participant,study,session,date,expName,psychopyVersion,OS,frameRate,mouse_practice.x,mouse_practice.y,mouse_practice.leftButton,mouse_practice.midButton,mouse_practice.rightButton,mouse_practice.time,mouse_practice.clicked_name,textbox_followup_practice.text,trials_practice.thisRepN,trials_practice.thisTrialN,trials_practice.thisN,trials_practice.thisIndex,trials_practice.ran,file_path,id,item,status,response,op1,op2,op3,mouse.x,mouse.y,mouse.leftButton,mouse.midButton,mouse.rightButton,mouse.time,mouse.clicked_name,textbox_followup.text,trials.thisRepN,trials.thisTrialN,trials.thisN,trials.thisIndex,trials.ran
563bb259be9cac0005aab7ab,63f3cfca20052e4ae7554ebf,6453ca9e121caf8095d8b5d4,2023-05-04_17h10.48.258,ga_syllabified_check,2022.2.5,Win32,60.0240096,,,,,,,,,,,,,,,,,,,,,,,,,,,,,,,,,,
563bb259be9cac0005aab7ab,63f3cfca20052e4ae7554ebf,6453ca9e121caf8095d8b5d4,2023-05-04_17h10.48.258,ga_syllabified_check,2022.2.5,Win32,60.0240096,-0.383101852,-0.104166667,1,0,0,4.281,text_option_1_practice,,0,0,0,0,1,./stim/p03_syllable_1_liamo_hit.wav,p03,liamo,hit,lia-mo,lia-mo,li-a-mo, ,,,,,,,,,,,,,
563bb259be9cac0005aab7ab,63f3cfca20052e4ae7554ebf,6453ca9e121caf8095d8b5d4,2023-05-04_17h10.48.258,ga_syllabified_check,2022.2.5,Win32,60.0240096,-0.37962963,-0.108796296,1,0,0,2.4,text_option_1_practice,,0,1,1,1,1,./stim/p05_syllable_1_matio_hit.wav,p05,matio,hit,ma-tio,ma-tio,ma-ti-o, ,,,,,,,,,,,,,
563bb259be9cac0005aab7ab,63f3cfca20052e4ae7554ebf,6453ca9e121caf8095d8b5d4,2023-05-04_17h10.48.258,ga_syllabified_check,2022.2.5,Win32,60.0240096,0.385416667,-0.099537037,1,0,0,8.246,text_option_2_practice,,0,2,2,2,1,./stim/p08_syllable_1_liamo_hit.wav,p08,liamo,hit,ja-mo,lia-mo,li-a-mo, ,,,,,,,,,,,,,
563bb259be9cac0005aab7ab,63f3cfca20052e4ae7554ebf,6453ca9e121caf8095d8b5d4,2023-05-04_17h10.48.258,ga_syllabified_check,2022.2.5,Win32,60.0240096,,,,,,,,,,,,,,,,,,,,,,,,,,,,,,,,,,
563bb259be9cac0005aab7ab,63f3cfca20052e4ae7554ebf,6453ca9e121caf8095d8b5d4,2023-05-04_17h10.48.258,ga_syllabified_check,2022.2.5,Win32,60.0240096,,,,,,,,,,,,,,./stim/p03_syllable_1_lakafuaisto_hit.wav,p03,lakafuaisto,hit,la-ka-fuais-to,la-ka-fuais-to,la-ka-fu-ais-to,la-ka-fua-is-to,-0.371527778,-0.108796296,1,0,0,4.765,text_option_1,,0,0,0,11,1
563bb259be9cac0005aab7ab,63f3cfca20052e4ae7554ebf,6453ca9e121caf8095d8b5d4,2023-05-04_17h10.48.258,ga_syllabified_check,2022.2.5,Win32,60.0240096,,,,,,,,,,,,,,./stim/p06_syllable_1_palutrauco_hit.wav,p06,palutrauco,hit,pa-lu-tra-u-co,pa-lu-trau-co,pa-lu-tra-u-co, ,0.439814815,-0.104166667,1,0,0,4.948,text_option_2,,0,1,1,131,1
563bb259be9cac0005aab7ab,63f3cfca20052e4ae7554ebf,6453ca9e121caf8095d8b5d4,2023-05-04_17h10.48.258,ga_syllabified_check,2022.2.5,Win32,60.0240096,,,,,,,,,,,,,,./stim/p05_syllable_1_palumaisto_hit.wav,p05,palumaisto,hit,pa-lu-mais-to,pa-lu-mais-to,pa-lu-ma-is-to, ,-0.372685185,-0.103009259,1,0,0,2.083,text_option_1,,0,2,2,96,1
563bb259be9cac0005aab7ab,63f3cfca20052e4ae7554ebf,6453ca9e121caf8095d8b5d4,2023-05-04_17h10.48.258,ga_syllabified_check,2022.2.5,Win32,60.0240096,,,,,,,,,,,,,,./stim/p06_syllable_1_pachialo_hit.wav,p06,pachialo,hit,pa-shi-a-lo,pa-chia-lo,pa-chi-a-lo, ,0.413194444,-0.096064815,1,0,0,2.116,text_option_2,,0,3,3,126,1
563bb259be9cac0005aab7ab,63f3cfca20052e4ae7554ebf,6453ca9e121caf8095d8b5d4,2023-05-04_17h10.48.258,ga_syllabified_check,2022.2.5,Win32,60.0240096,,,,,,,,,,,,,,./stim/p05_syllable_1_ruyiola_hit.wav,p05,ruyiola,hit,ru-yio-la,ru-yio-la,ru-yi-o-la, ,-0.381944444,-0.107638889,1,0,0,1.998,text_option_1,,0,4,4,100,1
563bb259be9cac0005aab7ab,63f3cfca20052e4ae7554ebf,6453ca9e121caf8095d8b5d4,2023-05-04_17h10.48.258,ga_syllabified_check,2022.2.5,Win32,60.0240096,,,,,,,,,,,,,,./stim/p06_syllable_1_paluguato_hit.wav,p06,paluguato,hit,pa-lu-gua-to,pa-lu-gua-to,pa-lu-gu-a-to, ,-0.381944444,-0.103009259,1,0,0,2.981,text_option_1,,0,5,5,129,1
563bb259be9cac0005aab7ab,63f3cfca20052e4ae7554ebf,6453ca9e121caf8095d8b5d4,2023-05-04_17h10.48.258,ga_syllabified_check,2022.2.5,Win32,60.0240096,,,,,,,,,,,,,,./stim/p06_syllable_1_lakaguaisto_hit.wav,p06,lakaguaisto,hit,la-ka-gu-a-is,la-ka-guais-to,la-ka-gu-ais-to,la-ka-gua-is-to,-0.039351852,-0.30787037,1,0,0,10.129,text_option_other,La-ka-gu-a-is-to,0,6,6,115,1
563bb259be9cac0005aab7ab,63f3cfca20052e4ae7554ebf,6453ca9e121caf8095d8b5d4,2023-05-04_17h10.48.258,ga_syllabified_check,2022.2.5,Win32,60.0240096,,,,,,,,,,,,,,./stim/p06_syllable_1_manhiala_hit.wav,p06,mañiala,hit,ma-nhi-a-la,ma-ñia-la,ma-ñi-a-la, ,0.430555556,-0.113425926,1,0,0,3.616,text_option_2,,0,7,7,123,1
563bb259be9cac0005aab7ab,63f3cfca20052e4ae7554ebf,6453ca9e121caf8095d8b5d4,2023-05-04_17h10.48.258,ga_syllabified_check,2022.2.5,Win32,60.0240096,,,,,,,,,,,,,,./stim/p03_syllable_1_palutrauco_hit.wav,p03,palutrauco,hit,pa-lu-trau-co,pa-lu-trau-co,pa-lu-tra-u-co, ,-0.365740741,-0.112268519,1,0,0,3.897,text_option_1,,0,8,8,29,1
563bb259be9cac0005aab7ab,63f3cfca20052e4ae7554ebf,6453ca9e121caf8095d8b5d4,2023-05-04_17h10.48.258,ga_syllabified_check,2022.2.5,Win32,60.0240096,,,,,,,,,,,,,,./stim/p08_syllable_1_lakakiaisto_hit.wav,p08,lakakiaisto,hit,la-ka-ki-jas-to,la-ka-kiais-to,la-ka-ki-ais-to,la-ka-kia-is-to,0.418981481,-0.100694444,1,0,0,8.363,text_option_2,,0,9,9,184,1
563bb259be9cac0005aab7ab,63f3cfca20052e4ae7554ebf,6453ca9e121caf8095d8b5d4,2023-05-04_17h10.48.258,ga_syllabified_check,2022.2.5,Win32,60.0240096,,,,,,,,,,,,,,./stim/p05_syllable_1_lakapiaisto_hit.wav,p05,lakapiaisto,hit,la-ka-pais-to,la-ka-piais-to,la-ka-pi-ais-to,la-ka-pia-is-to,0.016203704,-0.3125,1,0,0,15.993,text_option_other,La-ka-pais-to,0,10,10,84,1
563bb259be9cac0005aab7ab,63f3cfca20052e4ae7554ebf,6453ca9e121caf8095d8b5d4,2023-05-04_17h10.48.258,ga_syllabified_check,2022.2.5,Win32,60.0240096,,,,,,,,,,,,,,./stim/p04_syllable_1_lakapiaisto_hit.wav,p04,lakapiaisto,hit,la-ka-piais-to,la-ka-piais-to,la-ka-pi-ais-to,la-ka-pia-is-to,-0.344907407,-0.116898148,1,0,0,4.064,text_option_1,,0,11,11,50,1
563bb259be9cac0005aab7ab,63f3cfca20052e4ae7554ebf,6453ca9e121caf8095d8b5d4,2023-05-04_17h10.48.258,ga_syllabified_check,2022.2.5,Win32,60.0240096,,,,,,,,,,,,,,./stim/p04_syllable_1_nhiape_hit.wav,p04,ñiape,hit,nhia-pe,ñia-pe,ñi-a-pe, ,-0.405092593,-0.112268519,1,0,0,1.75,text_option_1,,0,12,12,57,1
563bb259be9cac0005aab7ab,63f3cfca20052e4ae7554ebf,6453ca9e121caf8095d8b5d4,2023-05-04_17h10.48.258,ga_syllabified_check,2022.2.5,Win32,60.0240096,,,,,,,,,,,,,,./stim/p04_syllable_1_payielo_hit.wav,p04,payielo,hit,pa-yie-lo,pa-yie-lo,pa-yi-e-lo, ,-0.390046296,-0.106481481,1,0,0,2.55,text_option_1,,0,13,13,64,1
563bb259be9cac0005aab7ab,63f3cfca20052e4ae7554ebf,6453ca9e121caf8095d8b5d4,2023-05-04_17h10.48.258,ga_syllabified_check,2022.2.5,Win32,60.0240096,,,,,,,,,,,,,,./stim/p04_syllable_1_falutraigo_hit.wav,p04,falutraigo,hit,fa-lu-trai-go,fa-lu-trai-go,fa-lu-tra-i-go, ,0.4375,-0.106481481,1,0,0,3.881,text_option_2,,0,14,14,38,1
563bb259be9cac0005aab7ab,63f3cfca20052e4ae7554ebf,6453ca9e121caf8095d8b5d4,2023-05-04_17h10.48.258,ga_syllabified_check,2022.2.5,Win32,60.0240096,,,,,,,,,,,,,,./stim/p08_syllable_1_palutrauco_hit.wav,p08,palutrauco,hit,pa-lu-trau-ko,pa-lu-trau-co,pa-lu-tra-u-co, ,-0.395833333,-0.096064815,1,0,0,3.266,text_option_1,,0,15,15,199,1
563bb259be9cac0005aab7ab,63f3cfca20052e4ae7554ebf,6453ca9e121caf8095d8b5d4,2023-05-04_17h10.48.258,ga_syllabified_check,2022.2.5,Win32,60.0240096,,,,,,,,,,,,,,./stim/p03_syllable_1_mebochiana_hit.wav,p03,mebochiana,hit,me-bo-chia-na,me-bo-chia-na,me-bo-chi-a-na, ,-0.344907407,-0.106481481,1,0,0,3.133,text_option_1,,0,16,16,22,1
563bb259be9cac0005aab7ab,63f3cfca20052e4ae7554ebf,6453ca9e121caf8095d8b5d4,2023-05-04_17h10.48.258,ga_syllabified_check,2022.2.5,Win32,60.0240096,,,,,,,,,,,,,,./stim/p07_syllable_1_lakakuaisto_hit.wav,p07,lakakuaisto,hit,la-ka-kuais-to,la-ka-kuais-to,la-ka-ku-ais-to,la-ka-kua-is-to,-0.34375,-0.103009259,1,0,0,5.48,text_option_1,,0,17,17,151,1
563bb259be9cac0005aab7ab,63f3cfca20052e4ae7554ebf,6453ca9e121caf8095d8b5d4,2023-05-04_17h10.48.258,ga_syllabified_check,2022.2.5,Win32,60.0240096,,,,,,,,,,,,,,./stim/p07_syllable_1_lakabuaisto_hit.wav,p07,lakabuaisto,hit,la-ka-buais-to,la-ka-buais-to,la-ka-bu-ais-to,la-ka-bua-is-to,-0.355324074,-0.109953704,1,0,0,3.848,text_option_1,,0,18,18,143,1
563bb259be9cac0005aab7ab,63f3cfca20052e4ae7554ebf,6453ca9e121caf8095d8b5d4,2023-05-04_17h10.48.258,ga_syllabified_check,2022.2.5,Win32,60.0240096,,,,,,,,,,,,,,./stim/p06_syllable_1_palumaisto_hit.wav,p06,palumaisto,hit,pa-lu-ma-is-to,pa-lu-mais-to,pa-lu-ma-is-to, ,0.46875,-0.108796296,1,0,0,3.648,text_option_2,,0,19,19,130,1
563bb259be9cac0005aab7ab,63f3cfca20052e4ae7554ebf,6453ca9e121caf8095d8b5d4,2023-05-04_17h10.48.258,ga_syllabified_check,2022.2.5,Win32,60.0240096,,,,,,,,,,,,,,./stim/p07_syllable_1_lakabiaisto_hit.wav,p07,lakabiaisto,hit,la-ka-bais-to,la-ka-biais-to,la-ka-bi-ais-to,la-ka-bia-is-to,0.001157407,-0.302083333,1,0,0,7.463,text_option_other,la-ka-bais-to,0,20,20,142,1
563bb259be9cac0005aab7ab,63f3cfca20052e4ae7554ebf,6453ca9e121caf8095d8b5d4,2023-05-04_17h10.48.258,ga_syllabified_check,2022.2.5,Win32,60.0240096,,,,,,,,,,,,,,./stim/p07_syllable_1_lakafiaisto_hit.wav,p07,lakafiaisto,hit,la-ka-fiais-to,la-ka-fiais-to,la-ka-fi-ais-to,la-ka-fia-is-to,-0.354166667,-0.108796296,1,0,0,3.249,text_option_1,,0,21,21,146,1
563bb259be9cac0005aab7ab,63f3cfca20052e4ae7554ebf,6453ca9e121caf8095d8b5d4,2023-05-04_17h10.48.258,ga_syllabified_check,2022.2.5,Win32,60.0240096,,,,,,,,,,,,,,./stim/p05_syllable_1_faluduako_hit.wav,p05,faluduako,hit,fa-lu-ba-ko,fa-lu-dua-ko,fa-lu-du-a-ko, ,-0.337962963,-0.09837963,1,0,0,3.648,text_option_1,,0,22,22,70,1
563bb259be9cac0005aab7ab,63f3cfca20052e4ae7554ebf,6453ca9e121caf8095d8b5d4,2023-05-04_17h10.48.258,ga_syllabified_check,2022.2.5,Win32,60.0240096,,,,,,,,,,,,,,./stim/p06_syllable_1_lliape_hit.wav,p06,lliape,hit,lli-lla-pe,llia-pe,lli-a-pe, ,0.393518519,-0.09837963,1,0,0,2.881,text_option_2,,0,23,23,122,1
563bb259be9cac0005aab7ab,63f3cfca20052e4ae7554ebf,6453ca9e121caf8095d8b5d4,2023-05-04_17h10.48.258,ga_syllabified_check,2022.2.5,Win32,60.0240096,,,,,,,,,,,,,,./stim/p03_syllable_1_lakaguaisto_hit.wav,p03,lakaguaisto,hit,la-ka-guais-to,la-ka-guais-to,la-ka-gu-ais-to,la-ka-gua-is-to,0.465277778,-0.096064815,1,0,0,6.364,text_option_2,,0,24,24,13,1
563bb259be9cac0005aab7ab,63f3cfca20052e4ae7554ebf,6453ca9e121caf8095d8b5d4,2023-05-04_17h10.48.258,ga_syllabified_check,2022.2.5,Win32,60.0240096,,,,,,,,,,,,,,./stim/p05_syllable_1_lakadiaisto_hit.wav,p05,lakadiaisto,hit,la-ka-di-ais-to,la-ka-diais-to,la-ka-di-ais-to,la-ka-dia-is-to,-0.336805556,-0.105324074,1,0,0,8.663,text_option_1,,0,25,25,76,1
563bb259be9cac0005aab7ab,63f3cfca20052e4ae7554ebf,6453ca9e121caf8095d8b5d4,2023-05-04_17h10.48.258,ga_syllabified_check,2022.2.5,Win32,60.0240096,,,,,,,,,,,,,,./stim/p06_syllable_1_lakagiaisto_hit.wav,p06,lakagiaisto,hit,la-ka-gia-is-to,la-ka-giais-to,la-ka-gi-ais-to,la-ka-gia-is-to,0.025462963,-0.101851852,1,0,0,4.081,text_option_3,,0,26,26,114,1
563bb259be9cac0005aab7ab,63f3cfca20052e4ae7554ebf,6453ca9e121caf8095d8b5d4,2023-05-04_17h10.48.258,ga_syllabified_check,2022.2.5,Win32,60.0240096,,,,,,,,,,,,,,./stim/p04_syllable_1_lakadiaisto_hit.wav,p04,lakadiaisto,hit,la-ka-dias-to,la-ka-diais-to,la-ka-di-ais-to,la-ka-dia-is-to,-0.344907407,-0.104166667,1,0,0,5.981,text_option_1,,0,27,27,42,1
563bb259be9cac0005aab7ab,63f3cfca20052e4ae7554ebf,6453ca9e121caf8095d8b5d4,2023-05-04_17h10.48.258,ga_syllabified_check,2022.2.5,Win32,60.0240096,,,,,,,,,,,,,,./stim/p03_syllable_1_tuliafo_hit.wav,p03,tuliafo,hit,tu-lia-fo,tu-lia-fo,tu-li-a-fo, ,-0.356481481,-0.107638889,1,0,0,2.482,text_option_1,,0,28,28,33,1
563bb259be9cac0005aab7ab,63f3cfca20052e4ae7554ebf,6453ca9e121caf8095d8b5d4,2023-05-04_17h10.48.258,ga_syllabified_check,2022.2.5,Win32,60.0240096,,,,,,,,,,,,,,./stim/p07_syllable_1_lakatiaisto_hit.wav,p07,lakatiaisto,hit,la-ka-tiai-sto,la-ka-tiais-to,la-ka-ti-ais-to,la-ka-tia-is-to,0.446759259,-0.111111111,1,0,0,9.129,text_option_2,,0,29,29,154,1
563bb259be9cac0005aab7ab,63f3cfca20052e4ae7554ebf,6453ca9e121caf8095d8b5d4,2023-05-04_17h10.48.258,ga_syllabified_check,2022.2.5,Win32,60.0240096,,,,,,,,,,,,,,./stim/p04_syllable_1_lakapuaisto_hit.wav,p04,lakapuaisto,hit,la-ka-puais-to,la-ka-puais-to,la-ka-pu-ais-to,la-ka-pua-is-to,-0.326388889,-0.108796296,1,0,0,5.046,text_option_1,,0,30,30,51,1
563bb259be9cac0005aab7ab,63f3cfca20052e4ae7554ebf,6453ca9e121caf8095d8b5d4,2023-05-04_17h10.48.258,ga_syllabified_check,2022.2.5,Win32,60.0240096,,,,,,,,,,,,,,./stim/p07_syllable_1_palumaisto_hit.wav,p07,palumaisto,hit,pa-lu-mais-to,pa-lu-mais-to,pa-lu-ma-is-to, ,-0.337962963,-0.108796296,1,0,0,3.115,text_option_1,,0,31,31,164,1
563bb259be9cac0005aab7ab,63f3cfca20052e4ae7554ebf,6453ca9e121caf8095d8b5d4,2023-05-04_17h10.48.258,ga_syllabified_check,2022.2.5,Win32,60.0240096,,,,,,,,,,,,,,./stim/p08_syllable_1_lakagiaisto_hit.wav,p08,lakagiaisto,hit,la-ka-gi-jas-to,la-ka-giais-to,la-ka-gi-ais-to,la-ka-gia-is-to,0.434027778,-0.099537037,1,0,0,3.748,text_option_2,,0,32,32,182,1
563bb259be9cac0005aab7ab,63f3cfca20052e4ae7554ebf,6453ca9e121caf8095d8b5d4,2023-05-04_17h10.48.258,ga_syllabified_check,2022.2.5,Win32,60.0240096,,,,,,,,,,,,,,./stim/p05_syllable_1_lakabuaisto_hit.wav,p05,lakabuaisto,hit,la-ka-buais-to,la-ka-buais-to,la-ka-bu-ais-to,la-ka-bua-is-to,0.010416667,-0.108796296,1,0,0,3.133,text_option_3,,0,33,33,75,1
563bb259be9cac0005aab7ab,63f3cfca20052e4ae7554ebf,6453ca9e121caf8095d8b5d4,2023-05-04_17h10.48.258,ga_syllabified_check,2022.2.5,Win32,60.0240096,,,,,,,,,,,,,,./stim/p08_syllable_1_lakabuaisto_hit.wav,p08,lakabuaisto,hit,la-ka-bu-ais-to,la-ka-buais-to,la-ka-bu-ais-to,la-ka-bua-is-to,0.469907407,-0.094907407,1,0,0,3.332,text_option_2,,0,34,34,177,1
563bb259be9cac0005aab7ab,63f3cfca20052e4ae7554ebf,6453ca9e121caf8095d8b5d4,2023-05-04_17h10.48.258,ga_syllabified_check,2022.2.5,Win32,60.0240096,,,,,,,,,,,,,,./stim/p05_syllable_1_tuliafo_hit.wav,p05,tuliafo,hit,tu-lai-fo,tu-lia-fo,tu-li-a-fo, ,0.011574074,-0.298611111,1,0,0,8.28,text_option_other,tu-lai-fo,0,35,35,101,1
563bb259be9cac0005aab7ab,63f3cfca20052e4ae7554ebf,6453ca9e121caf8095d8b5d4,2023-05-04_17h10.48.258,ga_syllabified_check,2022.2.5,Win32,60.0240096,,,,,,,,,,,,,,./stim/p04_syllable_1_lakagiaisto_hit.wav,p04,lakagiaisto,hit,la-ka-giais-to,la-ka-giais-to,la-ka-gi-ais-to,la-ka-gia-is-to,-0.400462963,-0.104166667,1,0,0,2.632,text_option_1,,0,36,36,46,1
563bb259be9cac0005aab7ab,63f3cfca20052e4ae7554ebf,6453ca9e121caf8095d8b5d4,2023-05-04_17h10.48.258,ga_syllabified_check,2022.2.5,Win32,60.0240096,,,,,,,,,,,,,,./stim/p05_syllable_1_lakabiaisto_hit.wav,p05,lakabiaisto,hit,la-ka-bi-ais-to,la-ka-biais-to,la-ka-bi-ais-to,la-ka-bia-is-to,0.429398148,-0.108796296,1,0,0,1.949,text_option_2,,0,37,37,74,1
563bb259be9cac0005aab7ab,63f3cfca20052e4ae7554ebf,6453ca9e121caf8095d8b5d4,2023-05-04_17h10.48.258,ga_syllabified_check,2022.2.5,Win32,60.0240096,,,,,,,,,,,,,,./stim/p06_syllable_1_falufaisto_hit.wav,p06,falufaisto,hit,fa-lu-fa-is-to,fa-lu-fais-to,fa-lu-fa-is-to, ,0.458333333,-0.109953704,1,0,0,3.066,text_option_2,,0,38,38,105,1
563bb259be9cac0005aab7ab,63f3cfca20052e4ae7554ebf,6453ca9e121caf8095d8b5d4,2023-05-04_17h10.48.258,ga_syllabified_check,2022.2.5,Win32,60.0240096,,,,,,,,,,,,,,./stim/p08_syllable_1_faluduako_hit.wav,p08,faluduako,hit,fa-lu-duai-ko,fa-lu-dua-ko,fa-lu-du-a-ko, ,-0.344907407,-0.103009259,1,0,0,12.993,text_option_1,,0,39,39,172,1
563bb259be9cac0005aab7ab,63f3cfca20052e4ae7554ebf,6453ca9e121caf8095d8b5d4,2023-05-04_17h10.48.258,ga_syllabified_check,2022.2.5,Win32,60.0240096,,,,,,,,,,,,,,./stim/p03_syllable_1_lakapiaisto_hit.wav,p03,lakapiaisto,hit,la-ka-piais-to,la-ka-piais-to,la-ka-pi-ais-to,la-ka-pia-is-to,-0.358796296,-0.107638889,1,0,0,5.148,text_option_1,,0,40,40,16,1
563bb259be9cac0005aab7ab,63f3cfca20052e4ae7554ebf,6453ca9e121caf8095d8b5d4,2023-05-04_17h10.48.258,ga_syllabified_check,2022.2.5,Win32,60.0240096,,,,,,,,,,,,,,./stim/p08_syllable_1_falufaisto_hit.wav,p08,falufaisto,hit,fa-lu-fais-to,fa-lu-fais-to,fa-lu-fa-is-to, ,-0.368055556,-0.097222222,1,0,0,5.43,text_option_1,,0,41,41,173,1
563bb259be9cac0005aab7ab,63f3cfca20052e4ae7554ebf,6453ca9e121caf8095d8b5d4,2023-05-04_17h10.48.258,ga_syllabified_check,2022.2.5,Win32,60.0240096,,,,,,,,,,,,,,./stim/p04_syllable_1_lakabiaisto_hit.wav,p04,lakabiaisto,hit,la-ka-biais-to,la-ka-biais-to,la-ka-bi-ais-to,la-ka-bia-is-to,-0.34375,-0.112268519,1,0,0,2.447,text_option_1,,0,42,42,40,1
563bb259be9cac0005aab7ab,63f3cfca20052e4ae7554ebf,6453ca9e121caf8095d8b5d4,2023-05-04_17h10.48.258,ga_syllabified_check,2022.2.5,Win32,60.0240096,,,,,,,,,,,,,,./stim/p08_syllable_1_palumaisto_hit.wav,p08,palumaisto,hit,pa-lu-mais-to,pa-lu-mais-to,pa-lu-ma-is-to, ,-0.355324074,-0.104166667,1,0,0,3.648,text_option_1,,0,43,43,198,1
563bb259be9cac0005aab7ab,63f3cfca20052e4ae7554ebf,6453ca9e121caf8095d8b5d4,2023-05-04_17h10.48.258,ga_syllabified_check,2022.2.5,Win32,60.0240096,,,,,,,,,,,,,,./stim/p06_syllable_1_payielo_hit.wav,p06,payielo,hit,pa-yi-e-lo,pa-yie-lo,pa-yi-e-lo, ,0.396990741,-0.103009259,1,0,0,3.782,text_option_2,,0,44,44,132,1
563bb259be9cac0005aab7ab,63f3cfca20052e4ae7554ebf,6453ca9e121caf8095d8b5d4,2023-05-04_17h10.48.258,ga_syllabified_check,2022.2.5,Win32,60.0240096,,,,,,,,,,,,,,./stim/p05_syllable_1_lakatuaisto_hit.wav,p05,lakatuaisto,hit,la-ka-tais-to,la-ka-tuais-to,la-ka-tu-ais-to,la-ka-tua-is-to,-0.325231481,-0.101851852,1,0,0,3.748,text_option_1,,0,45,45,87,1
563bb259be9cac0005aab7ab,63f3cfca20052e4ae7554ebf,6453ca9e121caf8095d8b5d4,2023-05-04_17h10.48.258,ga_syllabified_check,2022.2.5,Win32,60.0240096,,,,,,,,,,,,,,./stim/p06_syllable_1_rausto_hit.wav,p06,rausto,hit,ra-us-to,raus-to,ra-us-to, ,0.418981481,-0.094907407,1,0,0,2.365,text_option_2,,0,46,46,133,1
563bb259be9cac0005aab7ab,63f3cfca20052e4ae7554ebf,6453ca9e121caf8095d8b5d4,2023-05-04_17h10.48.258,ga_syllabified_check,2022.2.5,Win32,60.0240096,,,,,,,,,,,,,,./stim/p03_syllable_1_lakabuaisto_hit.wav,p03,lakabuaisto,hit,la-ka-buais-to,la-ka-buais-to,la-ka-bu-ais-to,la-ka-bua-is-to,-0.366898148,-0.109953704,1,0,0,3.698,text_option_1,,0,47,47,7,1
563bb259be9cac0005aab7ab,63f3cfca20052e4ae7554ebf,6453ca9e121caf8095d8b5d4,2023-05-04_17h10.48.258,ga_syllabified_check,2022.2.5,Win32,60.0240096,,,,,,,,,,,,,,./stim/p06_syllable_1_faluduako_hit.wav,p06,faluduako,hit,fa-lu-dua-ko,fa-lu-dua-ko,fa-lu-du-a-ko, ,-0.333333333,-0.105324074,1,0,0,3.898,text_option_1,,0,48,48,104,1
563bb259be9cac0005aab7ab,63f3cfca20052e4ae7554ebf,6453ca9e121caf8095d8b5d4,2023-05-04_17h10.48.258,ga_syllabified_check,2022.2.5,Win32,60.0240096,,,,,,,,,,,,,,./stim/p04_syllable_1_palufauro_hit.wav,p04,palufauro,hit,pa-lu-fau-ro,pa-lu-fau-ro,pa-lu-fa-u-ro, ,-0.354166667,-0.103009259,1,0,0,4.098,text_option_1,,0,49,49,59,1
563bb259be9cac0005aab7ab,63f3cfca20052e4ae7554ebf,6453ca9e121caf8095d8b5d4,2023-05-04_17h10.48.258,ga_syllabified_check,2022.2.5,Win32,60.0240096,,,,,,,,,,,,,,./stim/p08_syllable_1_pachialo_hit.wav,p08,pachialo,hit,pa-chi-ja-lo,pa-chia-lo,pa-chi-a-lo, ,0.402777778,-0.100694444,1,0,0,2.05,text_option_2,,0,50,50,194,1
563bb259be9cac0005aab7ab,63f3cfca20052e4ae7554ebf,6453ca9e121caf8095d8b5d4,2023-05-04_17h10.48.258,ga_syllabified_check,2022.2.5,Win32,60.0240096,,,,,,,,,,,,,,./stim/p08_syllable_1_lliape_hit.wav,p08,lliape,hit,li-a-pe,llia-pe,lli-a-pe, ,0.43287037,-0.105324074,1,0,0,2.149,text_option_2,,0,51,51,190,1
563bb259be9cac0005aab7ab,63f3cfca20052e4ae7554ebf,6453ca9e121caf8095d8b5d4,2023-05-04_17h10.48.258,ga_syllabified_check,2022.2.5,Win32,60.0240096,,,,,,,,,,,,,,./stim/p04_syllable_1_lakatuaisto_hit.wav,p04,lakatuaisto,hit,la-ka-kuais-to,la-ka-tuais-to,la-ka-tu-ais-to,la-ka-tua-is-to,-0.334490741,-0.099537037,1,0,0,3.2,text_option_1,,0,52,52,53,1
563bb259be9cac0005aab7ab,63f3cfca20052e4ae7554ebf,6453ca9e121caf8095d8b5d4,2023-05-04_17h10.48.258,ga_syllabified_check,2022.2.5,Win32,60.0240096,,,,,,,,,,,,,,./stim/p04_syllable_1_faluduako_hit.wav,p04,faluduako,hit,fa-lu-dua-ko,fa-lu-dua-ko,fa-lu-du-a-ko, ,0.44212963,-0.101851852,1,0,0,3.682,text_option_2,,0,53,53,36,1
563bb259be9cac0005aab7ab,63f3cfca20052e4ae7554ebf,6453ca9e121caf8095d8b5d4,2023-05-04_17h10.48.258,ga_syllabified_check,2022.2.5,Win32,60.0240096,,,,,,,,,,,,,,./stim/p03_syllable_1_lakakuaisto_hit.wav,p03,lakakuaisto,hit,la-ka-kuais-to,la-ka-kuais-to,la-ka-ku-ais-to,la-ka-kua-is-to,0.47337963,-0.099537037,1,0,0,7.981,text_option_2,,0,54,54,15,1
563bb259be9cac0005aab7ab,63f3cfca20052e4ae7554ebf,6453ca9e121caf8095d8b5d4,2023-05-04_17h10.48.258,ga_syllabified_check,2022.2.5,Win32,60.0240096,,,,,,,,,,,,,,./stim/p06_syllable_1_nhiape_hit.wav,p06,ñiape,hit,nhi-a-pe,ñia-pe,ñi-a-pe, ,0.413194444,-0.101851852,1,0,0,1.932,text_option_2,,0,55,55,125,1
563bb259be9cac0005aab7ab,63f3cfca20052e4ae7554ebf,6453ca9e121caf8095d8b5d4,2023-05-04_17h10.48.258,ga_syllabified_check,2022.2.5,Win32,60.0240096,,,,,,,,,,,,,,./stim/p07_syllable_1_palufauto_hit.wav,p07,palufauto,hit,pa-lu-fau-to,pa-lu-fau-to,pa-lu-fa-u-to, ,-0.30787037,-0.112268519,1,0,0,4.848,text_option_1,,0,56,56,162,1
563bb259be9cac0005aab7ab,63f3cfca20052e4ae7554ebf,6453ca9e121caf8095d8b5d4,2023-05-04_17h10.48.258,ga_syllabified_check,2022.2.5,Win32,60.0240096,,,,,,,,,,,,,,./stim/p07_syllable_1_mebochiana_hit.wav,p07,mebochiana,hit,me-bo-chia-na,me-bo-chia-na,me-bo-chi-a-na, ,-0.337962963,-0.106481481,1,0,0,4.598,text_option_1,,0,57,57,158,1
563bb259be9cac0005aab7ab,63f3cfca20052e4ae7554ebf,6453ca9e121caf8095d8b5d4,2023-05-04_17h10.48.258,ga_syllabified_check,2022.2.5,Win32,60.0240096,,,,,,,,,,,,,,./stim/p08_syllable_1_lakaduaisto_hit.wav,p08,lakaduaisto,hit,la-ka-du-ais-to,la-ka-duais-to,la-ka-du-ais-to,la-ka-dua-is-to,0.446759259,-0.096064815,1,0,0,5.699,text_option_2,,0,58,58,179,1
563bb259be9cac0005aab7ab,63f3cfca20052e4ae7554ebf,6453ca9e121caf8095d8b5d4,2023-05-04_17h10.48.258,ga_syllabified_check,2022.2.5,Win32,60.0240096,,,,,,,,,,,,,,./stim/p06_syllable_1_mebochiana_hit.wav,p06,mebochiana,hit,me-bo-shi-a-na,me-bo-chia-na,me-bo-chi-a-na, ,0.415509259,-0.109953704,1,0,0,3.116,text_option_2,,0,59,59,124,1
563bb259be9cac0005aab7ab,63f3cfca20052e4ae7554ebf,6453ca9e121caf8095d8b5d4,2023-05-04_17h10.48.258,ga_syllabified_check,2022.2.5,Win32,60.0240096,,,,,,,,,,,,,,./stim/p06_syllable_1_palufauro_hit.wav,p06,palufauro,hit,pa-lu-fau-ro,pa-lu-fau-ro,pa-lu-fa-u-ro, ,0.44212963,-0.103009259,1,0,0,4.049,text_option_2,,0,60,60,127,1
563bb259be9cac0005aab7ab,63f3cfca20052e4ae7554ebf,6453ca9e121caf8095d8b5d4,2023-05-04_17h10.48.258,ga_syllabified_check,2022.2.5,Win32,60.0240096,,,,,,,,,,,,,,./stim/p06_syllable_1_lakakuaisto_hit.wav,p06,lakakuaisto,hit,la-ka-ku-a-is,la-ka-kuais-to,la-ka-ku-ais-to,la-ka-kua-is-to,0.40625,-0.107638889,1,0,0,3.782,text_option_2,,0,61,61,117,1
563bb259be9cac0005aab7ab,63f3cfca20052e4ae7554ebf,6453ca9e121caf8095d8b5d4,2023-05-04_17h10.48.258,ga_syllabified_check,2022.2.5,Win32,60.0240096,,,,,,,,,,,,,,./stim/p05_syllable_1_costonhialo_hit.wav,p05,costoñialo,hit,cos-to-nhia-lo,cos-to-ñia-lo,cos-to-ñi-a-lo, ,-0.305555556,-0.104166667,1,0,0,5.197,text_option_1,,0,62,62,69,1
563bb259be9cac0005aab7ab,63f3cfca20052e4ae7554ebf,6453ca9e121caf8095d8b5d4,2023-05-04_17h10.48.258,ga_syllabified_check,2022.2.5,Win32,60.0240096,,,,,,,,,,,,,,./stim/p03_syllable_1_rausto_hit.wav,p03,rausto,hit,raus-to,raus-to,ra-us-to, ,-0.418981481,-0.090277778,1,0,0,1.832,text_option_1,,0,63,63,31,1
563bb259be9cac0005aab7ab,63f3cfca20052e4ae7554ebf,6453ca9e121caf8095d8b5d4,2023-05-04_17h10.48.258,ga_syllabified_check,2022.2.5,Win32,60.0240096,,,,,,,,,,,,,,./stim/p07_syllable_1_tuliafo_hit.wav,p07,tuliafo,hit,tu-lia-fo,tu-lia-fo,tu-li-a-fo, ,-0.377314815,-0.105324074,1,0,0,2.966,text_option_1,,0,64,64,169,1
563bb259be9cac0005aab7ab,63f3cfca20052e4ae7554ebf,6453ca9e121caf8095d8b5d4,2023-05-04_17h10.48.258,ga_syllabified_check,2022.2.5,Win32,60.0240096,,,,,,,,,,,,,,./stim/p06_syllable_1_palufauto_hit.wav,p06,palufauto,hit,pa-lu-fau-to,pa-lu-fau-to,pa-lu-fa-u-to, ,-0.346064815,-0.100694444,1,0,0,3.998,text_option_1,,0,65,65,128,1
563bb259be9cac0005aab7ab,63f3cfca20052e4ae7554ebf,6453ca9e121caf8095d8b5d4,2023-05-04_17h10.48.258,ga_syllabified_check,2022.2.5,Win32,60.0240096,,,,,,,,,,,,,,./stim/p05_syllable_1_paluguato_hit.wav,p05,paluguato,hit,pa-lu-gau-to,pa-lu-gua-to,pa-lu-gu-a-to, ,-0.320601852,-0.099537037,1,0,0,3.681,text_option_1,,0,66,66,95,1
563bb259be9cac0005aab7ab,63f3cfca20052e4ae7554ebf,6453ca9e121caf8095d8b5d4,2023-05-04_17h10.48.258,ga_syllabified_check,2022.2.5,Win32,60.0240096,,,,,,,,,,,,,,./stim/p03_syllable_1_lakatiaisto_hit.wav,p03,lakatiaisto,hit,la-ka-tiais-to,la-ka-tiais-to,la-ka-ti-ais-to,la-ka-tia-is-to,-0.335648148,-0.107638889,1,0,0,3.432,text_option_1,,0,67,67,18,1
563bb259be9cac0005aab7ab,63f3cfca20052e4ae7554ebf,6453ca9e121caf8095d8b5d4,2023-05-04_17h10.48.258,ga_syllabified_check,2022.2.5,Win32,60.0240096,,,,,,,,,,,,,,./stim/p07_syllable_1_lakaduaisto_hit.wav,p07,lakaduaisto,hit,la-ka-duais-to,la-ka-duais-to,la-ka-du-ais-to,la-ka-dua-is-to,-0.309027778,-0.108796296,1,0,0,3.698,text_option_1,,0,68,68,145,1
563bb259be9cac0005aab7ab,63f3cfca20052e4ae7554ebf,6453ca9e121caf8095d8b5d4,2023-05-04_17h10.48.258,ga_syllabified_check,2022.2.5,Win32,60.0240096,,,,,,,,,,,,,,./stim/p03_syllable_1_lliape_hit.wav,p03,lliape,hit,llia,llia-pe,lli-a-pe, ,-0.363425926,-0.107638889,1,0,0,1.381,text_option_1,,0,69,69,20,1
563bb259be9cac0005aab7ab,63f3cfca20052e4ae7554ebf,6453ca9e121caf8095d8b5d4,2023-05-04_17h10.48.258,ga_syllabified_check,2022.2.5,Win32,60.0240096,,,,,,,,,,,,,,./stim/p03_syllable_1_lakadiaisto_hit.wav,p03,lakadiaisto,hit,la-ka-diais-to,la-ka-diais-to,la-ka-di-ais-to,la-ka-dia-is-to,-0.34375,-0.116898148,1,0,0,3.965,text_option_1,,0,70,70,8,1
563bb259be9cac0005aab7ab,63f3cfca20052e4ae7554ebf,6453ca9e121caf8095d8b5d4,2023-05-04_17h10.48.258,ga_syllabified_check,2022.2.5,Win32,60.0240096,,,,,,,,,,,,,,./stim/p06_syllable_1_falutraigo_hit.wav,p06,falutraigo,hit,fa-lu-tra-i-go,fa-lu-trai-go,fa-lu-tra-i-go, ,0.420138889,-0.101851852,1,0,0,3.915,text_option_2,,0,71,71,106,1
563bb259be9cac0005aab7ab,63f3cfca20052e4ae7554ebf,6453ca9e121caf8095d8b5d4,2023-05-04_17h10.48.258,ga_syllabified_check,2022.2.5,Win32,60.0240096,,,,,,,,,,,,,,./stim/p04_syllable_1_ruyiola_hit.wav,p04,ruyiola,hit,ru-yio-la,ru-yio-la,ru-yi-o-la, ,-0.361111111,-0.109953704,1,0,0,3.681,text_option_1,,0,72,72,66,1
563bb259be9cac0005aab7ab,63f3cfca20052e4ae7554ebf,6453ca9e121caf8095d8b5d4,2023-05-04_17h10.48.258,ga_syllabified_check,2022.2.5,Win32,60.0240096,,,,,,,,,,,,,,./stim/p05_syllable_1_payielo_hit.wav,p05,payielo,hit,pai-yu-we-lo,pa-yie-lo,pa-yi-e-lo, ,-0.399305556,-0.111111111,1,0,0,3.165,text_option_1,,0,73,73,98,1
563bb259be9cac0005aab7ab,63f3cfca20052e4ae7554ebf,6453ca9e121caf8095d8b5d4,2023-05-04_17h10.48.258,ga_syllabified_check,2022.2.5,Win32,60.0240096,,,,,,,,,,,,,,./stim/p03_syllable_1_costonhialo_hit.wav,p03,costoñialo,hit,cos-to-nhia-lo,cos-to-ñia-lo,cos-to-ñi-a-lo, ,-0.344907407,-0.101851852,1,0,0,3.381,text_option_1,,0,74,74,1,1
563bb259be9cac0005aab7ab,63f3cfca20052e4ae7554ebf,6453ca9e121caf8095d8b5d4,2023-05-04_17h10.48.258,ga_syllabified_check,2022.2.5,Win32,60.0240096,,,,,,,,,,,,,,./stim/p06_syllable_1_lakakiaisto_hit.wav,p06,lakakiaisto,hit,la-ka-kia-is-to,la-ka-kiais-to,la-ka-ki-ais-to,la-ka-kia-is-to,0.053240741,-0.104166667,1,0,0,4.68,text_option_3,,0,75,75,116,1
563bb259be9cac0005aab7ab,63f3cfca20052e4ae7554ebf,6453ca9e121caf8095d8b5d4,2023-05-04_17h10.48.258,ga_syllabified_check,2022.2.5,Win32,60.0240096,,,,,,,,,,,,,,./stim/p05_syllable_1_mebochiana_hit.wav,p05,mebochiana,hit,me-cho-chai-na,me-bo-chia-na,me-bo-chi-a-na, ,-0.358796296,-0.100694444,1,0,0,4.349,text_option_1,,0,76,76,90,1
563bb259be9cac0005aab7ab,63f3cfca20052e4ae7554ebf,6453ca9e121caf8095d8b5d4,2023-05-04_17h10.48.258,ga_syllabified_check,2022.2.5,Win32,60.0240096,,,,,,,,,,,,,,./stim/p07_syllable_1_falufaisto_hit.wav,p07,falufaisto,hit,fa-lu-fais-to,fa-lu-fais-to,fa-lu-fa-is-to, ,-0.373842593,-0.112268519,1,0,0,3.015,text_option_1,,0,77,77,139,1
563bb259be9cac0005aab7ab,63f3cfca20052e4ae7554ebf,6453ca9e121caf8095d8b5d4,2023-05-04_17h10.48.258,ga_syllabified_check,2022.2.5,Win32,60.0240096,,,,,,,,,,,,,,./stim/p06_syllable_1_lakapuaisto_hit.wav,p06,lakapuaisto,hit,la-ka-pu-a-is,la-ka-puais-to,la-ka-pu-ais-to,la-ka-pua-is-to,0.033564815,-0.305555556,1,0,0,9.113,text_option_other,La-ka-pu-a-is-to,0,78,78,119,1
563bb259be9cac0005aab7ab,63f3cfca20052e4ae7554ebf,6453ca9e121caf8095d8b5d4,2023-05-04_17h10.48.258,ga_syllabified_check,2022.2.5,Win32,60.0240096,,,,,,,,,,,,,,./stim/p07_syllable_1_faluduako_hit.wav,p07,faluduako,hit,fa-lu-dua-ko,fa-lu-dua-ko,fa-lu-du-a-ko, ,-0.336805556,-0.112268519,1,0,0,2.766,text_option_1,,0,79,79,138,1
563bb259be9cac0005aab7ab,63f3cfca20052e4ae7554ebf,6453ca9e121caf8095d8b5d4,2023-05-04_17h10.48.258,ga_syllabified_check,2022.2.5,Win32,60.0240096,,,,,,,,,,,,,,./stim/p05_syllable_1_lakagiaisto_hit.wav,p05,lakagiaisto,hit,la-ka-ki-ais-to,la-ka-giais-to,la-ka-gi-ais-to,la-ka-gia-is-to,-0.327546296,-0.106481481,1,0,0,3.082,text_option_1,,0,80,80,80,1
563bb259be9cac0005aab7ab,63f3cfca20052e4ae7554ebf,6453ca9e121caf8095d8b5d4,2023-05-04_17h10.48.258,ga_syllabified_check,2022.2.5,Win32,60.0240096,,,,,,,,,,,,,,./stim/p08_syllable_1_ruyiola_hit.wav,p08,ruyiola,hit,ru-yio-la,ru-yio-la,ru-yi-o-la, ,-0.377314815,-0.108796296,1,0,0,2.632,text_option_1,,0,81,81,202,1
563bb259be9cac0005aab7ab,63f3cfca20052e4ae7554ebf,6453ca9e121caf8095d8b5d4,2023-05-04_17h10.48.258,ga_syllabified_check,2022.2.5,Win32,60.0240096,,,,,,,,,,,,,,./stim/p03_syllable_1_ruyiola_hit.wav,p03,ruyiola,hit,ru-yio-la,ru-yio-la,ru-yi-o-la, ,-0.414351852,-0.105324074,1,0,0,2.499,text_option_1,,0,82,82,32,1
563bb259be9cac0005aab7ab,63f3cfca20052e4ae7554ebf,6453ca9e121caf8095d8b5d4,2023-05-04_17h10.48.258,ga_syllabified_check,2022.2.5,Win32,60.0240096,,,,,,,,,,,,,,./stim/p08_syllable_1_lakatuaisto_hit.wav,p08,lakatuaisto,hit,la-ka-tu-i-jis,la-ka-tuais-to,la-ka-tu-ais-to,la-ka-tua-is-to,0.008101852,-0.306712963,1,0,0,6.964,text_option_other,La-ka-tui-yis-to,0,83,83,189,1
563bb259be9cac0005aab7ab,63f3cfca20052e4ae7554ebf,6453ca9e121caf8095d8b5d4,2023-05-04_17h10.48.258,ga_syllabified_check,2022.2.5,Win32,60.0240096,,,,,,,,,,,,,,./stim/p08_syllable_1_payielo_hit.wav,p08,payielo,hit,pa-yie-lo,pa-yie-lo,pa-yi-e-lo, ,-0.363425926,-0.104166667,1,0,0,2.833,text_option_1,,0,84,84,200,1
563bb259be9cac0005aab7ab,63f3cfca20052e4ae7554ebf,6453ca9e121caf8095d8b5d4,2023-05-04_17h10.48.258,ga_syllabified_check,2022.2.5,Win32,60.0240096,,,,,,,,,,,,,,./stim/p08_syllable_1_lakabiaisto_hit.wav,p08,lakabiaisto,hit,la-ka-bi-as-to,la-ka-biais-to,la-ka-bi-ais-to,la-ka-bia-is-to,0.453703704,-0.108796296,1,0,0,4.631,text_option_2,,0,85,85,176,1
563bb259be9cac0005aab7ab,63f3cfca20052e4ae7554ebf,6453ca9e121caf8095d8b5d4,2023-05-04_17h10.48.258,ga_syllabified_check,2022.2.5,Win32,60.0240096,,,,,,,,,,,,,,./stim/p07_syllable_1_rausto_hit.wav,p07,rausto,hit,raus-to,raus-to,ra-us-to, ,-0.381944444,-0.105324074,1,0,0,1.299,text_option_1,,0,86,86,167,1
563bb259be9cac0005aab7ab,63f3cfca20052e4ae7554ebf,6453ca9e121caf8095d8b5d4,2023-05-04_17h10.48.258,ga_syllabified_check,2022.2.5,Win32,60.0240096,,,,,,,,,,,,,,./stim/p03_syllable_1_palufauro_hit.wav,p03,palufauro,hit,pa-lu-fau-ro,pa-lu-fau-ro,pa-lu-fa-u-ro, ,-0.335648148,-0.111111111,1,0,0,1.534,text_option_1,,0,87,87,25,1
563bb259be9cac0005aab7ab,63f3cfca20052e4ae7554ebf,6453ca9e121caf8095d8b5d4,2023-05-04_17h10.48.258,ga_syllabified_check,2022.2.5,Win32,60.0240096,,,,,,,,,,,,,,./stim/p06_syllable_1_costonhialo_hit.wav,p06,costoñialo,hit,cos-to-nhia-lo,cos-to-ñia-lo,cos-to-ñi-a-lo, ,-0.357638889,-0.107638889,1,0,0,2.699,text_option_1,,0,88,88,103,1
563bb259be9cac0005aab7ab,63f3cfca20052e4ae7554ebf,6453ca9e121caf8095d8b5d4,2023-05-04_17h10.48.258,ga_syllabified_check,2022.2.5,Win32,60.0240096,,,,,,,,,,,,,,./stim/p08_syllable_1_falutraigo_hit.wav,p08,falutraigo,hit,fa-lu-trai-go,fa-lu-trai-go,fa-lu-tra-i-go, ,-0.375,-0.109953704,1,0,0,1.682,text_option_1,,0,89,89,174,1
563bb259be9cac0005aab7ab,63f3cfca20052e4ae7554ebf,6453ca9e121caf8095d8b5d4,2023-05-04_17h10.48.258,ga_syllabified_check,2022.2.5,Win32,60.0240096,,,,,,,,,,,,,,./stim/p03_syllable_1_flauro_hit.wav,p03,flauro,hit,flau-ro,flau-ro,fla-u-ro, ,-0.384259259,-0.103009259,1,0,0,1.149,text_option_1,,0,90,90,5,1
563bb259be9cac0005aab7ab,63f3cfca20052e4ae7554ebf,6453ca9e121caf8095d8b5d4,2023-05-04_17h10.48.258,ga_syllabified_check,2022.2.5,Win32,60.0240096,,,,,,,,,,,,,,./stim/p07_syllable_1_lakadiaisto_hit.wav,p07,lakadiaisto,hit,la-ka-dia-is-to,la-ka-diais-to,la-ka-di-ais-to,la-ka-dia-is-to,0.042824074,-0.103009259,1,0,0,4.298,text_option_3,,0,91,91,144,1
563bb259be9cac0005aab7ab,63f3cfca20052e4ae7554ebf,6453ca9e121caf8095d8b5d4,2023-05-04_17h10.48.258,ga_syllabified_check,2022.2.5,Win32,60.0240096,,,,,,,,,,,,,,./stim/p04_syllable_1_palufauto_hit.wav,p04,palufauto,hit,pa-lu-fau-to,pa-lu-fau-to,pa-lu-fa-u-to, ,-0.372685185,-0.100694444,1,0,0,2.916,text_option_1,,0,92,92,60,1
563bb259be9cac0005aab7ab,63f3cfca20052e4ae7554ebf,6453ca9e121caf8095d8b5d4,2023-05-04_17h10.48.258,ga_syllabified_check,2022.2.5,Win32,60.0240096,,,,,,,,,,,,,,./stim/p06_syllable_1_lakafiaisto_hit.wav,p06,lakafiaisto,hit,la-ka-fia-is-to,la-ka-fiais-to,la-ka-fi-ais-to,la-ka-fia-is-to,0.018518519,-0.108796296,1,0,0,5.664,text_option_3,,0,93,93,112,1
563bb259be9cac0005aab7ab,63f3cfca20052e4ae7554ebf,6453ca9e121caf8095d8b5d4,2023-05-04_17h10.48.258,ga_syllabified_check,2022.2.5,Win32,60.0240096,,,,,,,,,,,,,,./stim/p05_syllable_1_lliape_hit.wav,p05,lliape,hit,liai-pe,llia-pe,lli-a-pe, ,-0.378472222,-0.09837963,1,0,0,1.299,text_option_1,,0,94,94,88,1
563bb259be9cac0005aab7ab,63f3cfca20052e4ae7554ebf,6453ca9e121caf8095d8b5d4,2023-05-04_17h10.48.258,ga_syllabified_check,2022.2.5,Win32,60.0240096,,,,,,,,,,,,,,./stim/p07_syllable_1_lakatuaisto_hit.wav,p07,lakatuaisto,hit,la-ka-tuais-to,la-ka-tuais-to,la-ka-tu-ais-to,la-ka-tua-is-to,-0.326388889,-0.092592593,1,0,0,3.531,text_option_1,,0,95,95,155,1
563bb259be9cac0005aab7ab,63f3cfca20052e4ae7554ebf,6453ca9e121caf8095d8b5d4,2023-05-04_17h10.48.258,ga_syllabified_check,2022.2.5,Win32,60.0240096,,,,,,,,,,,,,,./stim/p07_syllable_1_lakagiaisto_hit.wav,p07,lakagiaisto,hit,la-ka-gais-to,la-ka-giais-to,la-ka-gi-ais-to,la-ka-gia-is-to,-0.359953704,-0.106481481,1,0,0,4.298,text_option_1,,0,96,96,148,1
563bb259be9cac0005aab7ab,63f3cfca20052e4ae7554ebf,6453ca9e121caf8095d8b5d4,2023-05-04_17h10.48.258,ga_syllabified_check,2022.2.5,Win32,60.0240096,,,,,,,,,,,,,,./stim/p04_syllable_1_lakatiaisto_hit.wav,p04,lakatiaisto,hit,la-ka-kiais-to,la-ka-tiais-to,la-ka-ti-ais-to,la-ka-tia-is-to,-0.344907407,-0.094907407,1,0,0,8.047,text_option_1,,0,97,97,52,1
563bb259be9cac0005aab7ab,63f3cfca20052e4ae7554ebf,6453ca9e121caf8095d8b5d4,2023-05-04_17h10.48.258,ga_syllabified_check,2022.2.5,Win32,60.0240096,,,,,,,,,,,,,,./stim/p07_syllable_1_manhiala_hit.wav,p07,mañiala,hit,ma-nhia-la,ma-ñia-la,ma-ñi-a-la, ,-0.346064815,-0.107638889,1,0,0,2.782,text_option_1,,0,98,98,157,1
563bb259be9cac0005aab7ab,63f3cfca20052e4ae7554ebf,6453ca9e121caf8095d8b5d4,2023-05-04_17h10.48.258,ga_syllabified_check,2022.2.5,Win32,60.0240096,,,,,,,,,,,,,,./stim/p08_syllable_1_palufauro_hit.wav,p08,palufauro,hit,pa-lu-fau-ro,pa-lu-fau-ro,pa-lu-fa-u-ro, ,-0.340277778,-0.114583333,1,0,0,6.83,text_option_1,,0,99,99,195,1
563bb259be9cac0005aab7ab,63f3cfca20052e4ae7554ebf,6453ca9e121caf8095d8b5d4,2023-05-04_17h10.48.258,ga_syllabified_check,2022.2.5,Win32,60.0240096,,,,,,,,,,,,,,./stim/p07_syllable_1_pachialo_hit.wav,p07,pachialo,hit,pa-cha-lo,pa-chia-lo,pa-chi-a-lo, ,-0.340277778,-0.099537037,1,0,0,3.015,text_option_1,,0,100,100,160,1
563bb259be9cac0005aab7ab,63f3cfca20052e4ae7554ebf,6453ca9e121caf8095d8b5d4,2023-05-04_17h10.48.258,ga_syllabified_check,2022.2.5,Win32,60.0240096,,,,,,,,,,,,,,./stim/p08_syllable_1_costonhialo_hit.wav,p08,costoñialo,hit,cos-to-nhia-lo,cos-to-ñia-lo,cos-to-ñi-a-lo, ,-0.332175926,-0.097222222,1,0,0,2.566,text_option_1,,0,101,101,171,1
563bb259be9cac0005aab7ab,63f3cfca20052e4ae7554ebf,6453ca9e121caf8095d8b5d4,2023-05-04_17h10.48.258,ga_syllabified_check,2022.2.5,Win32,60.0240096,,,,,,,,,,,,,,./stim/p05_syllable_1_lakatiaisto_hit.wav,p05,lakatiaisto,hit,la-ka-ti-ais-to,la-ka-tiais-to,la-ka-ti-ais-to,la-ka-tia-is-to,-0.341435185,-0.104166667,1,0,0,1.633,text_option_1,,0,102,102,86,1
563bb259be9cac0005aab7ab,63f3cfca20052e4ae7554ebf,6453ca9e121caf8095d8b5d4,2023-05-04_17h10.48.258,ga_syllabified_check,2022.2.5,Win32,60.0240096,,,,,,,,,,,,,,./stim/p08_syllable_1_lakafuaisto_hit.wav,p08,lakafuaisto,hit,la-ka-fju-ais-to,la-ka-fuais-to,la-ka-fu-ais-to,la-ka-fua-is-to,0.030092593,-0.108796296,1,0,0,6.13,text_option_3,,0,103,103,181,1
563bb259be9cac0005aab7ab,63f3cfca20052e4ae7554ebf,6453ca9e121caf8095d8b5d4,2023-05-04_17h10.48.258,ga_syllabified_check,2022.2.5,Win32,60.0240096,,,,,,,,,,,,,,./stim/p03_syllable_1_payielo_hit.wav,p03,payielo,hit,pa-yie-lo,pa-yie-lo,pa-yi-e-lo, ,-0.356481481,-0.094907407,1,0,0,2.565,text_option_1,,0,104,104,30,1
563bb259be9cac0005aab7ab,63f3cfca20052e4ae7554ebf,6453ca9e121caf8095d8b5d4,2023-05-04_17h10.48.258,ga_syllabified_check,2022.2.5,Win32,60.0240096,,,,,,,,,,,,,,./stim/p08_syllable_1_paluguato_hit.wav,p08,paluguato,hit,pa-lu-gua-to,pa-lu-gua-to,pa-lu-gu-a-to, ,-0.337962963,-0.09837963,1,0,0,3.031,text_option_1,,0,105,105,197,1
563bb259be9cac0005aab7ab,63f3cfca20052e4ae7554ebf,6453ca9e121caf8095d8b5d4,2023-05-04_17h10.48.258,ga_syllabified_check,2022.2.5,Win32,60.0240096,,,,,,,,,,,,,,./stim/p04_syllable_1_lakakiaisto_hit.wav,p04,lakakiaisto,hit,la-ka-kiais-to,la-ka-kiais-to,la-ka-ki-ais-to,la-ka-kia-is-to,-0.356481481,-0.104166667,1,0,0,3.598,text_option_1,,0,106,106,48,1
563bb259be9cac0005aab7ab,63f3cfca20052e4ae7554ebf,6453ca9e121caf8095d8b5d4,2023-05-04_17h10.48.258,ga_syllabified_check,2022.2.5,Win32,60.0240096,,,,,,,,,,,,,,./stim/p03_syllable_1_lakakiaisto_hit.wav,p03,lakakiaisto,hit,la-ka-kiais-to,la-ka-kiais-to,la-ka-ki-ais-to,la-ka-kia-is-to,-0.376157407,-0.106481481,1,0,0,3.566,text_option_1,,0,107,107,14,1
563bb259be9cac0005aab7ab,63f3cfca20052e4ae7554ebf,6453ca9e121caf8095d8b5d4,2023-05-04_17h10.48.258,ga_syllabified_check,2022.2.5,Win32,60.0240096,,,,,,,,,,,,,,./stim/p03_syllable_1_nhiape_hit.wav,p03,ñiape,hit,nhia-pe,ñia-pe,ñi-a-pe, ,-0.371527778,-0.108796296,1,0,0,0.851,text_option_1,,0,108,108,23,1
563bb259be9cac0005aab7ab,63f3cfca20052e4ae7554ebf,6453ca9e121caf8095d8b5d4,2023-05-04_17h10.48.258,ga_syllabified_check,2022.2.5,Win32,60.0240096,,,,,,,,,,,,,,./stim/p05_syllable_1_lakafuaisto_hit.wav,p05,lakafuaisto,hit,la-ka-fais-to,la-ka-fuais-to,la-ka-fu-ais-to,la-ka-fua-is-to,-0.344907407,-0.103009259,1,0,0,4.449,text_option_1,,0,109,109,79,1
563bb259be9cac0005aab7ab,63f3cfca20052e4ae7554ebf,6453ca9e121caf8095d8b5d4,2023-05-04_17h10.48.258,ga_syllabified_check,2022.2.5,Win32,60.0240096,,,,,,,,,,,,,,./stim/p05_syllable_1_palutrauco_hit.wav,p05,palutrauco,hit,pa-lu-trai-co,pa-lu-trau-co,pa-lu-tra-u-co, ,0.424768519,-0.111111111,1,0,0,2.732,text_option_2,,0,110,110,97,1
563bb259be9cac0005aab7ab,63f3cfca20052e4ae7554ebf,6453ca9e121caf8095d8b5d4,2023-05-04_17h10.48.258,ga_syllabified_check,2022.2.5,Win32,60.0240096,,,,,,,,,,,,,,./stim/p04_syllable_1_tuliafo_hit.wav,p04,tuliafo,hit,tu-lia-fo,tu-lia-fo,tu-li-a-fo, ,-0.381944444,-0.107638889,1,0,0,2.582,text_option_1,,0,111,111,67,1
563bb259be9cac0005aab7ab,63f3cfca20052e4ae7554ebf,6453ca9e121caf8095d8b5d4,2023-05-04_17h10.48.258,ga_syllabified_check,2022.2.5,Win32,60.0240096,,,,,,,,,,,,,,./stim/p03_syllable_1_palufauto_hit.wav,p03,palufauto,hit,pa-lu-fau,pa-lu-fau-to,pa-lu-fa-u-to, ,-0.363425926,-0.099537037,1,0,0,1.481,text_option_1,,0,112,112,26,1
563bb259be9cac0005aab7ab,63f3cfca20052e4ae7554ebf,6453ca9e121caf8095d8b5d4,2023-05-04_17h10.48.258,ga_syllabified_check,2022.2.5,Win32,60.0240096,,,,,,,,,,,,,,./stim/p05_syllable_1_nhiape_hit.wav,p05,ñiape,hit,nhia-pe,ñia-pe,ñi-a-pe, ,-0.395833333,-0.108796296,1,0,0,0.75,text_option_1,,0,113,113,91,1
563bb259be9cac0005aab7ab,63f3cfca20052e4ae7554ebf,6453ca9e121caf8095d8b5d4,2023-05-04_17h10.48.258,ga_syllabified_check,2022.2.5,Win32,60.0240096,,,,,,,,,,,,,,./stim/p05_syllable_1_manhiala_hit.wav,p05,mañiala,hit,ma-nhia-la,ma-ñia-la,ma-ñi-a-la, ,-0.384259259,-0.101851852,1,0,0,1.366,text_option_1,,0,114,114,89,1
563bb259be9cac0005aab7ab,63f3cfca20052e4ae7554ebf,6453ca9e121caf8095d8b5d4,2023-05-04_17h10.48.258,ga_syllabified_check,2022.2.5,Win32,60.0240096,,,,,,,,,,,,,,./stim/p08_syllable_1_lakafiaisto_hit.wav,p08,lakafiaisto,hit,la-ka-fi-as-to,la-ka-fiais-to,la-ka-fi-ais-to,la-ka-fia-is-to,0.4375,-0.101851852,1,0,0,4.731,text_option_2,,0,115,115,180,1
563bb259be9cac0005aab7ab,63f3cfca20052e4ae7554ebf,6453ca9e121caf8095d8b5d4,2023-05-04_17h10.48.258,ga_syllabified_check,2022.2.5,Win32,60.0240096,,,,,,,,,,,,,,./stim/p04_syllable_1_chiaba_hit.wav,p04,chiaba,hit,chia-ba,chia-ba,chi-a-ba, ,-0.387731481,-0.101851852,1,0,0,0.916,text_option_1,,0,116,116,34,1
563bb259be9cac0005aab7ab,63f3cfca20052e4ae7554ebf,6453ca9e121caf8095d8b5d4,2023-05-04_17h10.48.258,ga_syllabified_check,2022.2.5,Win32,60.0240096,,,,,,,,,,,,,,./stim/p03_syllable_1_lakabiaisto_hit.wav,p03,lakabiaisto,hit,la-ka-biais-to,la-ka-biais-to,la-ka-bi-ais-to,la-ka-bia-is-to,-0.362268519,-0.090277778,1,0,0,2.78,text_option_1,,0,117,117,6,1
563bb259be9cac0005aab7ab,63f3cfca20052e4ae7554ebf,6453ca9e121caf8095d8b5d4,2023-05-04_17h10.48.258,ga_syllabified_check,2022.2.5,Win32,60.0240096,,,,,,,,,,,,,,./stim/p06_syllable_1_lakatiaisto_hit.wav,p06,lakatiaisto,hit,la-ka-pia-is-to,la-ka-tiais-to,la-ka-ti-ais-to,la-ka-tia-is-to,0.040509259,-0.107638889,1,0,0,3.616,text_option_3,,0,118,118,120,1
563bb259be9cac0005aab7ab,63f3cfca20052e4ae7554ebf,6453ca9e121caf8095d8b5d4,2023-05-04_17h10.48.258,ga_syllabified_check,2022.2.5,Win32,60.0240096,,,,,,,,,,,,,,./stim/p03_syllable_1_falutraigo_hit.wav,p03,falutraigo,hit,fa-lu-trai-go,fa-lu-trai-go,fa-lu-tra-i-go, ,-0.364583333,-0.104166667,1,0,0,5.931,text_option_1,,0,119,119,4,1
563bb259be9cac0005aab7ab,63f3cfca20052e4ae7554ebf,6453ca9e121caf8095d8b5d4,2023-05-04_17h10.48.258,ga_syllabified_check,2022.2.5,Win32,60.0240096,,,,,,,,,,,,,,./stim/p03_syllable_1_falufaisto_hit.wav,p03,falufaisto,hit,fa-lu-fais-to,fa-lu-fais-to,fa-lu-fa-is-to, ,-0.358796296,-0.099537037,1,0,0,2.515,text_option_1,,0,120,120,3,1
563bb259be9cac0005aab7ab,63f3cfca20052e4ae7554ebf,6453ca9e121caf8095d8b5d4,2023-05-04_17h10.48.258,ga_syllabified_check,2022.2.5,Win32,60.0240096,,,,,,,,,,,,,,./stim/p07_syllable_1_payielo_hit.wav,p07,payielo,hit,pa-yie-lo,pa-yie-lo,pa-yi-e-lo, ,-0.37962963,-0.109953704,1,0,0,1.498,text_option_1,,0,121,121,166,1
563bb259be9cac0005aab7ab,63f3cfca20052e4ae7554ebf,6453ca9e121caf8095d8b5d4,2023-05-04_17h10.48.258,ga_syllabified_check,2022.2.5,Win32,60.0240096,,,,,,,,,,,,,,./stim/p03_syllable_1_faluduako_hit.wav,p03,faluduako,hit,fa-lu-dua-ko,fa-lu-dua-ko,fa-lu-du-a-ko, ,-0.350694444,-0.105324074,1,0,0,2.382,text_option_1,,0,122,122,2,1
563bb259be9cac0005aab7ab,63f3cfca20052e4ae7554ebf,6453ca9e121caf8095d8b5d4,2023-05-04_17h10.48.258,ga_syllabified_check,2022.2.5,Win32,60.0240096,,,,,,,,,,,,,,./stim/p05_syllable_1_lakafiaisto_hit.wav,p05,lakafiaisto,hit,la-ka-fi-ais-to,la-ka-fiais-to,la-ka-fi-ais-to,la-ka-fia-is-to,-0.363425926,-0.108796296,1,0,0,3.182,text_option_1,,0,123,123,78,1
563bb259be9cac0005aab7ab,63f3cfca20052e4ae7554ebf,6453ca9e121caf8095d8b5d4,2023-05-04_17h10.48.258,ga_syllabified_check,2022.2.5,Win32,60.0240096,,,,,,,,,,,,,,./stim/p08_syllable_1_lakaguaisto_hit.wav,p08,lakaguaisto,hit,la-ka-gu-ais-to,la-ka-guais-to,la-ka-gu-ais-to,la-ka-gua-is-to,0.423611111,-0.09837963,1,0,0,3.215,text_option_2,,0,124,124,183,1
563bb259be9cac0005aab7ab,63f3cfca20052e4ae7554ebf,6453ca9e121caf8095d8b5d4,2023-05-04_17h10.48.258,ga_syllabified_check,2022.2.5,Win32,60.0240096,,,,,,,,,,,,,,./stim/p05_syllable_1_palufauro_hit.wav,p05,palufauro,hit,pa-lu-fau-ro,pa-lu-fau-ro,pa-lu-fa-u-ro, ,-0.376157407,-0.108796296,1,0,0,2.815,text_option_1,,0,125,125,93,1
563bb259be9cac0005aab7ab,63f3cfca20052e4ae7554ebf,6453ca9e121caf8095d8b5d4,2023-05-04_17h10.48.258,ga_syllabified_check,2022.2.5,Win32,60.0240096,,,,,,,,,,,,,,./stim/p04_syllable_1_paluguato_hit.wav,p04,paluguato,hit,pa-lu-gua,pa-lu-gua-to,pa-lu-gu-a-to, ,-0.010416667,-0.305555556,1,0,0,5.732,text_option_other,Pa-lu-gua,0,126,126,61,1
563bb259be9cac0005aab7ab,63f3cfca20052e4ae7554ebf,6453ca9e121caf8095d8b5d4,2023-05-04_17h10.48.258,ga_syllabified_check,2022.2.5,Win32,60.0240096,,,,,,,,,,,,,,./stim/p05_syllable_1_pachialo_hit.wav,p05,pachialo,hit,pan-chia-lo,pa-chia-lo,pa-chi-a-lo, ,-0.376157407,-0.100694444,1,0,0,2.966,text_option_1,,0,127,127,92,1
563bb259be9cac0005aab7ab,63f3cfca20052e4ae7554ebf,6453ca9e121caf8095d8b5d4,2023-05-04_17h10.48.258,ga_syllabified_check,2022.2.5,Win32,60.0240096,,,,,,,,,,,,,,./stim/p08_syllable_1_palufauto_hit.wav,p08,palufauto,hit,pa-lu-fau-to,pa-lu-fau-to,pa-lu-fa-u-to, ,-0.359953704,-0.106481481,1,0,0,4.548,text_option_1,,0,128,128,196,1
563bb259be9cac0005aab7ab,63f3cfca20052e4ae7554ebf,6453ca9e121caf8095d8b5d4,2023-05-04_17h10.48.258,ga_syllabified_check,2022.2.5,Win32,60.0240096,,,,,,,,,,,,,,./stim/p05_syllable_1_palufauto_hit.wav,p05,palufauto,hit,pa-lu-fau-to,pa-lu-fau-to,pa-lu-fa-u-to, ,-0.344907407,-0.109953704,1,0,0,2.599,text_option_1,,0,129,129,94,1
563bb259be9cac0005aab7ab,63f3cfca20052e4ae7554ebf,6453ca9e121caf8095d8b5d4,2023-05-04_17h10.48.258,ga_syllabified_check,2022.2.5,Win32,60.0240096,,,,,,,,,,,,,,./stim/p04_syllable_1_lakafiaisto_hit.wav,p04,lakafiaisto,hit,la-ka-fiais-to,la-ka-fiais-to,la-ka-fi-ais-to,la-ka-fia-is-to,-0.358796296,-0.105324074,1,0,0,1.283,text_option_1,,0,130,130,44,1
563bb259be9cac0005aab7ab,63f3cfca20052e4ae7554ebf,6453ca9e121caf8095d8b5d4,2023-05-04_17h10.48.258,ga_syllabified_check,2022.2.5,Win32,60.0240096,,,,,,,,,,,,,,./stim/p06_syllable_1_ruyiola_hit.wav,p06,ruyiola,hit,ru-yi-o-la,ru-yio-la,ru-yi-o-la, ,0.427083333,-0.09837963,1,0,0,1.815,text_option_2,,0,131,131,134,1
563bb259be9cac0005aab7ab,63f3cfca20052e4ae7554ebf,6453ca9e121caf8095d8b5d4,2023-05-04_17h10.48.258,ga_syllabified_check,2022.2.5,Win32,60.0240096,,,,,,,,,,,,,,./stim/p08_syllable_1_flauro_hit.wav,p08,flauro,hit,flau-ro,flau-ro,fla-u-ro, ,0.41087963,-0.096064815,1,0,0,2.448,text_option_2,,0,132,132,175,1
563bb259be9cac0005aab7ab,63f3cfca20052e4ae7554ebf,6453ca9e121caf8095d8b5d4,2023-05-04_17h10.48.258,ga_syllabified_check,2022.2.5,Win32,60.0240096,,,,,,,,,,,,,,./stim/p04_syllable_1_flauro_hit.wav,p04,flauro,hit,flau-ro,flau-ro,fla-u-ro, ,-0.400462963,-0.109953704,1,0,0,1.15,text_option_1,,0,133,133,39,1
563bb259be9cac0005aab7ab,63f3cfca20052e4ae7554ebf,6453ca9e121caf8095d8b5d4,2023-05-04_17h10.48.258,ga_syllabified_check,2022.2.5,Win32,60.0240096,,,,,,,,,,,,,,./stim/p04_syllable_1_falufaisto_hit.wav,p04,falufaisto,hit,fa-lu-fais-to,fa-lu-fais-to,fa-lu-fa-is-to, ,-0.372685185,-0.104166667,1,0,0,1.848,text_option_1,,0,134,134,37,1
563bb259be9cac0005aab7ab,63f3cfca20052e4ae7554ebf,6453ca9e121caf8095d8b5d4,2023-05-04_17h10.48.258,ga_syllabified_check,2022.2.5,Win32,60.0240096,,,,,,,,,,,,,,./stim/p05_syllable_1_flauro_hit.wav,p05,flauro,hit,fa-lu-ro,flau-ro,fla-u-ro, ,0.0625,-0.298611111,1,0,0,10.596,text_option_other,Fa-lu-ro,0,135,135,73,1
563bb259be9cac0005aab7ab,63f3cfca20052e4ae7554ebf,6453ca9e121caf8095d8b5d4,2023-05-04_17h10.48.258,ga_syllabified_check,2022.2.5,Win32,60.0240096,,,,,,,,,,,,,,./stim/p03_syllable_1_palumaisto_hit.wav,p03,palumaisto,hit,pa-lu-mais-to,pa-lu-mais-to,pa-lu-ma-is-to, ,-0.392361111,-0.109953704,1,0,0,2.682,text_option_1,,0,136,136,28,1
563bb259be9cac0005aab7ab,63f3cfca20052e4ae7554ebf,6453ca9e121caf8095d8b5d4,2023-05-04_17h10.48.258,ga_syllabified_check,2022.2.5,Win32,60.0240096,,,,,,,,,,,,,,./stim/p06_syllable_1_lakadiaisto_hit.wav,p06,lakadiaisto,hit,la-ka-dia-is-to,la-ka-diais-to,la-ka-di-ais-to,la-ka-dia-is-to,0.011574074,-0.105324074,1,0,0,6.147,text_option_3,,0,137,137,110,1
563bb259be9cac0005aab7ab,63f3cfca20052e4ae7554ebf,6453ca9e121caf8095d8b5d4,2023-05-04_17h10.48.258,ga_syllabified_check,2022.2.5,Win32,60.0240096,,,,,,,,,,,,,,./stim/p07_syllable_1_lakaguaisto_hit.wav,p07,lakaguaisto,hit,la-ka-guais-to,la-ka-guais-to,la-ka-gu-ais-to,la-ka-gua-is-to,-0.320601852,-0.108796296,1,0,0,1.965,text_option_1,,0,138,138,149,1
563bb259be9cac0005aab7ab,63f3cfca20052e4ae7554ebf,6453ca9e121caf8095d8b5d4,2023-05-04_17h10.48.258,ga_syllabified_check,2022.2.5,Win32,60.0240096,,,,,,,,,,,,,,./stim/p06_syllable_1_lakapiaisto_hit.wav,p06,lakapiaisto,hit,la-ka-pia-is-to,la-ka-piais-to,la-ka-pi-ais-to,la-ka-pia-is-to,0.065972222,-0.109953704,1,0,0,4.631,text_option_3,,0,139,139,118,1
563bb259be9cac0005aab7ab,63f3cfca20052e4ae7554ebf,6453ca9e121caf8095d8b5d4,2023-05-04_17h10.48.258,ga_syllabified_check,2022.2.5,Win32,60.0240096,,,,,,,,,,,,,,./stim/p04_syllable_1_mebochiana_hit.wav,p04,mebochiana,hit,me-bo-chia-na,me-bo-chia-na,me-bo-chi-a-na, ,-0.344907407,-0.100694444,1,0,0,2.148,text_option_1,,0,140,140,56,1
563bb259be9cac0005aab7ab,63f3cfca20052e4ae7554ebf,6453ca9e121caf8095d8b5d4,2023-05-04_17h10.48.258,ga_syllabified_check,2022.2.5,Win32,60.0240096,,,,,,,,,,,,,,./stim/p06_syllable_1_lakabiaisto_hit.wav,p06,lakabiaisto,hit,la-ka-bia-is-to,la-ka-biais-to,la-ka-bi-ais-to,la-ka-bia-is-to,0.02662037,-0.101851852,1,0,0,4.014,text_option_3,,0,141,141,108,1
563bb259be9cac0005aab7ab,63f3cfca20052e4ae7554ebf,6453ca9e121caf8095d8b5d4,2023-05-04_17h10.48.258,ga_syllabified_check,2022.2.5,Win32,60.0240096,,,,,,,,,,,,,,./stim/p06_syllable_1_tuliafo_hit.wav,p06,tuliafo,hit,tu-li-a-fo,tu-lia-fo,tu-li-a-fo, ,0.414351852,-0.108796296,1,0,0,2.265,text_option_2,,0,142,142,135,1
563bb259be9cac0005aab7ab,63f3cfca20052e4ae7554ebf,6453ca9e121caf8095d8b5d4,2023-05-04_17h10.48.258,ga_syllabified_check,2022.2.5,Win32,60.0240096,,,,,,,,,,,,,,./stim/p07_syllable_1_lakapuaisto_hit.wav,p07,lakapuaisto,hit,la-ka-puais-to,la-ka-puais-to,la-ka-pu-ais-to,la-ka-pua-is-to,-0.359953704,-0.109953704,1,0,0,2.499,text_option_1,,0,143,143,153,1
563bb259be9cac0005aab7ab,63f3cfca20052e4ae7554ebf,6453ca9e121caf8095d8b5d4,2023-05-04_17h10.48.258,ga_syllabified_check,2022.2.5,Win32,60.0240096,,,,,,,,,,,,,,./stim/p03_syllable_1_lakagiaisto_hit.wav,p03,lakagiaisto,hit,la-ka-giais-to,la-ka-giais-to,la-ka-gi-ais-to,la-ka-gia-is-to,-0.395833333,-0.099537037,1,0,0,1.766,text_option_1,,0,144,144,12,1
563bb259be9cac0005aab7ab,63f3cfca20052e4ae7554ebf,6453ca9e121caf8095d8b5d4,2023-05-04_17h10.48.258,ga_syllabified_check,2022.2.5,Win32,60.0240096,,,,,,,,,,,,,,./stim/p06_syllable_1_flauro_hit.wav,p06,flauro,hit,fla-u-ro,flau-ro,fla-u-ro, ,0.443287037,-0.09837963,1,0,0,1.2,text_option_2,,0,145,145,107,1
563bb259be9cac0005aab7ab,63f3cfca20052e4ae7554ebf,6453ca9e121caf8095d8b5d4,2023-05-04_17h10.48.258,ga_syllabified_check,2022.2.5,Win32,60.0240096,,,,,,,,,,,,,,./stim/p05_syllable_1_rausto_hit.wav,p05,rausto,hit,raus-to,raus-to,ra-us-to, ,-0.377314815,-0.103009259,1,0,0,1.2,text_option_1,,0,146,146,99,1
563bb259be9cac0005aab7ab,63f3cfca20052e4ae7554ebf,6453ca9e121caf8095d8b5d4,2023-05-04_17h10.48.258,ga_syllabified_check,2022.2.5,Win32,60.0240096,,,,,,,,,,,,,,./stim/p08_syllable_1_manhiala_hit.wav,p08,mañiala,hit,ma-nhia-la,ma-ñia-la,ma-ñi-a-la, ,-0.361111111,-0.105324074,1,0,0,1.816,text_option_1,,0,147,147,191,1
563bb259be9cac0005aab7ab,63f3cfca20052e4ae7554ebf,6453ca9e121caf8095d8b5d4,2023-05-04_17h10.48.258,ga_syllabified_check,2022.2.5,Win32,60.0240096,,,,,,,,,,,,,,./stim/p08_syllable_1_lakatiaisto_hit.wav,p08,lakatiaisto,hit,la-ka-ti-as-to,la-ka-tiais-to,la-ka-ti-ais-to,la-ka-tia-is-to,-0.33912037,-0.106481481,1,0,0,7.081,text_option_1,,0,148,148,188,1
563bb259be9cac0005aab7ab,63f3cfca20052e4ae7554ebf,6453ca9e121caf8095d8b5d4,2023-05-04_17h10.48.258,ga_syllabified_check,2022.2.5,Win32,60.0240096,,,,,,,,,,,,,,./stim/p08_syllable_1_mebochiana_hit.wav,p08,mebochiana,hit,me-bo-chi-a-na,me-bo-chia-na,me-bo-chi-a-na, ,0.380787037,-0.08912037,1,0,0,4.03,text_option_2,,0,149,149,192,1
563bb259be9cac0005aab7ab,63f3cfca20052e4ae7554ebf,6453ca9e121caf8095d8b5d4,2023-05-04_17h10.48.258,ga_syllabified_check,2022.2.5,Win32,60.0240096,,,,,,,,,,,,,,./stim/p08_syllable_1_rausto_hit.wav,p08,rausto,hit,raus-to,raus-to,ra-us-to, ,-0.373842593,-0.099537037,1,0,0,1.017,text_option_1,,0,150,150,201,1
563bb259be9cac0005aab7ab,63f3cfca20052e4ae7554ebf,6453ca9e121caf8095d8b5d4,2023-05-04_17h10.48.258,ga_syllabified_check,2022.2.5,Win32,60.0240096,,,,,,,,,,,,,,./stim/p08_syllable_1_chiaba_hit.wav,p08,chiaba,hit,chi-a-ba,chia-ba,chi-a-ba, ,0.436342593,-0.082175926,1,0,0,2.116,text_option_2,,0,151,151,170,1
563bb259be9cac0005aab7ab,63f3cfca20052e4ae7554ebf,6453ca9e121caf8095d8b5d4,2023-05-04_17h10.48.258,ga_syllabified_check,2022.2.5,Win32,60.0240096,,,,,,,,,,,,,,./stim/p07_syllable_1_lakafuaisto_hit.wav,p07,lakafuaisto,hit,la-ka-fuais-to,la-ka-fuais-to,la-ka-fu-ais-to,la-ka-fua-is-to,-0.337962963,-0.108796296,1,0,0,2.317,text_option_1,,0,152,152,147,1
563bb259be9cac0005aab7ab,63f3cfca20052e4ae7554ebf,6453ca9e121caf8095d8b5d4,2023-05-04_17h10.48.258,ga_syllabified_check,2022.2.5,Win32,60.0240096,,,,,,,,,,,,,,./stim/p07_syllable_1_nhiape_hit.wav,p07,ñiape,hit,nhia-pe,ñia-pe,ñi-a-pe, ,-0.386574074,-0.113425926,1,0,0,1.282,text_option_1,,0,153,153,159,1
563bb259be9cac0005aab7ab,63f3cfca20052e4ae7554ebf,6453ca9e121caf8095d8b5d4,2023-05-04_17h10.48.258,ga_syllabified_check,2022.2.5,Win32,60.0240096,,,,,,,,,,,,,,./stim/p08_syllable_1_tuliafo_hit.wav,p08,tuliafo,hit,tu-li-a-fo,tu-lia-fo,tu-li-a-fo, ,0.428240741,-0.114583333,1,0,0,2.249,text_option_2,,0,154,154,203,1
563bb259be9cac0005aab7ab,63f3cfca20052e4ae7554ebf,6453ca9e121caf8095d8b5d4,2023-05-04_17h10.48.258,ga_syllabified_check,2022.2.5,Win32,60.0240096,,,,,,,,,,,,,,./stim/p07_syllable_1_falutraigo_hit.wav,p07,falutraigo,hit,fa-lu-trai-go,fa-lu-trai-go,fa-lu-tra-i-go, ,-0.356481481,-0.105324074,1,0,0,2.482,text_option_1,,0,155,155,140,1
563bb259be9cac0005aab7ab,63f3cfca20052e4ae7554ebf,6453ca9e121caf8095d8b5d4,2023-05-04_17h10.48.258,ga_syllabified_check,2022.2.5,Win32,60.0240096,,,,,,,,,,,,,,./stim/p05_syllable_1_lakakiaisto_hit.wav,p05,lakakiaisto,hit,la-ka-ki-ais-to,la-ka-kiais-to,la-ka-ki-ais-to,la-ka-kia-is-to,-0.357638889,-0.099537037,1,0,0,4.247,text_option_1,,0,156,156,82,1
563bb259be9cac0005aab7ab,63f3cfca20052e4ae7554ebf,6453ca9e121caf8095d8b5d4,2023-05-04_17h10.48.258,ga_syllabified_check,2022.2.5,Win32,60.0240096,,,,,,,,,,,,,,./stim/p05_syllable_1_lakapuaisto_hit.wav,p05,lakapuaisto,hit,la-ka-pais-to,la-ka-puais-to,la-ka-pu-ais-to,la-ka-pua-is-to,0.050925926,-0.30787037,1,0,0,6.264,text_option_other,La-ka-pais-to,0,157,157,85,1
563bb259be9cac0005aab7ab,63f3cfca20052e4ae7554ebf,6453ca9e121caf8095d8b5d4,2023-05-04_17h10.48.258,ga_syllabified_check,2022.2.5,Win32,60.0240096,,,,,,,,,,,,,,./stim/p08_syllable_1_lakakuaisto_hit.wav,p08,lakakuaisto,hit,la-ka-ku-ais-to,la-ka-kuais-to,la-ka-ku-ais-to,la-ka-kua-is-to,0.4375,-0.105324074,1,0,0,4.5,text_option_2,,0,158,158,185,1
563bb259be9cac0005aab7ab,63f3cfca20052e4ae7554ebf,6453ca9e121caf8095d8b5d4,2023-05-04_17h10.48.258,ga_syllabified_check,2022.2.5,Win32,60.0240096,,,,,,,,,,,,,,./stim/p04_syllable_1_lakaguaisto_hit.wav,p04,lakaguaisto,hit,la-ka-guais-to,la-ka-guais-to,la-ka-gu-ais-to,la-ka-gua-is-to,-0.356481481,-0.099537037,1,0,0,1.898,text_option_1,,0,159,159,47,1
563bb259be9cac0005aab7ab,63f3cfca20052e4ae7554ebf,6453ca9e121caf8095d8b5d4,2023-05-04_17h10.48.258,ga_syllabified_check,2022.2.5,Win32,60.0240096,,,,,,,,,,,,,,./stim/p04_syllable_1_pachialo_hit.wav,p04,pachialo,hit,pa-chia-lo,pa-chia-lo,pa-chi-a-lo, ,-0.388888889,-0.106481481,1,0,0,0.733,text_option_1,,0,160,160,58,1
563bb259be9cac0005aab7ab,63f3cfca20052e4ae7554ebf,6453ca9e121caf8095d8b5d4,2023-05-04_17h10.48.258,ga_syllabified_check,2022.2.5,Win32,60.0240096,,,,,,,,,,,,,,./stim/p07_syllable_1_flauro_hit.wav,p07,flauro,hit,flau-ro,flau-ro,fla-u-ro, ,-0.381944444,-0.105324074,1,0,0,0.933,text_option_1,,0,161,161,141,1
563bb259be9cac0005aab7ab,63f3cfca20052e4ae7554ebf,6453ca9e121caf8095d8b5d4,2023-05-04_17h10.48.258,ga_syllabified_check,2022.2.5,Win32,60.0240096,,,,,,,,,,,,,,./stim/p05_syllable_1_lakaduaisto_hit.wav,p05,lakaduaisto,hit,la-ka-dais-to,la-ka-duais-to,la-ka-du-ais-to,la-ka-dua-is-to,-0.412037037,-0.09837963,1,0,0,5.748,text_option_1,,0,162,162,77,1
563bb259be9cac0005aab7ab,63f3cfca20052e4ae7554ebf,6453ca9e121caf8095d8b5d4,2023-05-04_17h10.48.258,ga_syllabified_check,2022.2.5,Win32,60.0240096,,,,,,,,,,,,,,./stim/p04_syllable_1_palutrauco_hit.wav,p04,palutrauco,hit,pa-lu-trau-co,pa-lu-trau-co,pa-lu-tra-u-co, ,-0.392361111,-0.108796296,1,0,0,2.566,text_option_1,,0,163,163,63,1
563bb259be9cac0005aab7ab,63f3cfca20052e4ae7554ebf,6453ca9e121caf8095d8b5d4,2023-05-04_17h10.48.258,ga_syllabified_check,2022.2.5,Win32,60.0240096,,,,,,,,,,,,,,./stim/p07_syllable_1_paluguato_hit.wav,p07,paluguato,hit,pa-lu-gua-to,pa-lu-gua-to,pa-lu-gu-a-to, ,-0.354166667,-0.104166667,1,0,0,2.499,text_option_1,,0,164,164,163,1
563bb259be9cac0005aab7ab,63f3cfca20052e4ae7554ebf,6453ca9e121caf8095d8b5d4,2023-05-04_17h10.48.258,ga_syllabified_check,2022.2.5,Win32,60.0240096,,,,,,,,,,,,,,./stim/p04_syllable_1_lliape_hit.wav,p04,lliape,hit,lia-pe,llia-pe,lli-a-pe, ,-0.394675926,-0.094907407,1,0,0,0.466,text_option_1,,0,165,165,54,1
563bb259be9cac0005aab7ab,63f3cfca20052e4ae7554ebf,6453ca9e121caf8095d8b5d4,2023-05-04_17h10.48.258,ga_syllabified_check,2022.2.5,Win32,60.0240096,,,,,,,,,,,,,,./stim/p03_syllable_1_manhiala_hit.wav,p03,mañiala,hit,ma-nhia-la,ma-ñia-la,ma-ñi-a-la, ,-0.390046296,-0.104166667,1,0,0,0.832,text_option_1,,0,166,166,21,1
563bb259be9cac0005aab7ab,63f3cfca20052e4ae7554ebf,6453ca9e121caf8095d8b5d4,2023-05-04_17h10.48.258,ga_syllabified_check,2022.2.5,Win32,60.0240096,,,,,,,,,,,,,,./stim/p07_syllable_1_palufauro_hit.wav,p07,palufauro,hit,pa-lu-fau-ro,pa-lu-fau-ro,pa-lu-fa-u-ro, ,-0.396990741,-0.108796296,1,0,0,2.599,text_option_1,,0,167,167,161,1
563bb259be9cac0005aab7ab,63f3cfca20052e4ae7554ebf,6453ca9e121caf8095d8b5d4,2023-05-04_17h10.48.258,ga_syllabified_check,2022.2.5,Win32,60.0240096,,,,,,,,,,,,,,./stim/p03_syllable_1_lakaduaisto_hit.wav,p03,lakaduaisto,hit,la-ka-duais-to,la-ka-duais-to,la-ka-du-ais-to,la-ka-dua-is-to,-0.326388889,-0.108796296,1,0,0,2.283,text_option_1,,0,168,168,9,1
563bb259be9cac0005aab7ab,63f3cfca20052e4ae7554ebf,6453ca9e121caf8095d8b5d4,2023-05-04_17h10.48.258,ga_syllabified_check,2022.2.5,Win32,60.0240096,,,,,,,,,,,,,,./stim/p08_syllable_1_lakadiaisto_hit.wav,p08,lakadiaisto,hit,la-ka-di-jas-to,la-ka-diais-to,la-ka-di-ais-to,la-ka-dia-is-to,0.395833333,-0.108796296,1,0,0,3.649,text_option_2,,0,169,169,178,1
563bb259be9cac0005aab7ab,63f3cfca20052e4ae7554ebf,6453ca9e121caf8095d8b5d4,2023-05-04_17h10.48.258,ga_syllabified_check,2022.2.5,Win32,60.0240096,,,,,,,,,,,,,,./stim/p07_syllable_1_chiaba_hit.wav,p07,chiaba,hit,chia-ba,chia-ba,chi-a-ba, ,-0.387731481,-0.108796296,1,0,0,1.1,text_option_1,,0,170,170,136,1
563bb259be9cac0005aab7ab,63f3cfca20052e4ae7554ebf,6453ca9e121caf8095d8b5d4,2023-05-04_17h10.48.258,ga_syllabified_check,2022.2.5,Win32,60.0240096,,,,,,,,,,,,,,./stim/p07_syllable_1_costonhialo_hit.wav,p07,costoñialo,hit,cos-to-nhia-lo,cos-to-ñia-lo,cos-to-ñi-a-lo, ,-0.375,-0.113425926,1,0,0,3.199,text_option_1,,0,171,171,137,1
563bb259be9cac0005aab7ab,63f3cfca20052e4ae7554ebf,6453ca9e121caf8095d8b5d4,2023-05-04_17h10.48.258,ga_syllabified_check,2022.2.5,Win32,60.0240096,,,,,,,,,,,,,,./stim/p06_syllable_1_lakabuaisto_hit.wav,p06,lakabuaisto,hit,la-ka-bu-a-is,la-ka-buais-to,la-ka-bu-ais-to,la-ka-bua-is-to,0.039351852,-0.30787037,1,0,0,6.064,text_option_other,la-ka-bu-a-is-to,0,172,172,109,1
563bb259be9cac0005aab7ab,63f3cfca20052e4ae7554ebf,6453ca9e121caf8095d8b5d4,2023-05-04_17h10.48.258,ga_syllabified_check,2022.2.5,Win32,60.0240096,,,,,,,,,,,,,,./stim/p04_syllable_1_lakafuaisto_hit.wav,p04,lakafuaisto,hit,la-ka-fuais-to,la-ka-fuais-to,la-ka-fu-ais-to,la-ka-fua-is-to,-0.365740741,-0.099537037,1,0,0,0.967,text_option_1,,0,173,173,45,1
563bb259be9cac0005aab7ab,63f3cfca20052e4ae7554ebf,6453ca9e121caf8095d8b5d4,2023-05-04_17h10.48.258,ga_syllabified_check,2022.2.5,Win32,60.0240096,,,,,,,,,,,,,,./stim/p07_syllable_1_ruyiola_hit.wav,p07,ruyiola,hit,ru-yio-la,ru-yio-la,ru-yi-o-la, ,-0.395833333,-0.100694444,1,0,0,1.034,text_option_1,,0,174,174,168,1
563bb259be9cac0005aab7ab,63f3cfca20052e4ae7554ebf,6453ca9e121caf8095d8b5d4,2023-05-04_17h10.48.258,ga_syllabified_check,2022.2.5,Win32,60.0240096,,,,,,,,,,,,,,./stim/p06_syllable_1_lakafuaisto_hit.wav,p06,lakafuaisto,hit,la-ka-fu-a-is,la-ka-fuais-to,la-ka-fu-ais-to,la-ka-fua-is-to,0.017361111,-0.309027778,1,0,0,3.882,text_option_other,la-ka-fu-a-is-to,0,175,175,113,1
563bb259be9cac0005aab7ab,63f3cfca20052e4ae7554ebf,6453ca9e121caf8095d8b5d4,2023-05-04_17h10.48.258,ga_syllabified_check,2022.2.5,Win32,60.0240096,,,,,,,,,,,,,,./stim/p08_syllable_1_nhiape_hit.wav,p08,ñiape,hit,ni-a-pe,ñia-pe,ñi-a-pe, ,0.414351852,-0.109953704,1,0,0,1.1,text_option_2,,0,176,176,193,1
563bb259be9cac0005aab7ab,63f3cfca20052e4ae7554ebf,6453ca9e121caf8095d8b5d4,2023-05-04_17h10.48.258,ga_syllabified_check,2022.2.5,Win32,60.0240096,,,,,,,,,,,,,,./stim/p03_syllable_1_pachialo_hit.wav,p03,pachialo,hit,pa-chia-lo,pa-chia-lo,pa-chi-a-lo, ,-0.368055556,-0.108796296,1,0,0,0.717,text_option_1,,0,177,177,24,1
563bb259be9cac0005aab7ab,63f3cfca20052e4ae7554ebf,6453ca9e121caf8095d8b5d4,2023-05-04_17h10.48.258,ga_syllabified_check,2022.2.5,Win32,60.0240096,,,,,,,,,,,,,,./stim/p05_syllable_1_falufaisto_hit.wav,p05,falufaisto,hit,fa-lu-fais-to,fa-lu-fais-to,fa-lu-fa-is-to, ,-0.344907407,-0.108796296,1,0,0,1.333,text_option_1,,0,178,178,71,1
563bb259be9cac0005aab7ab,63f3cfca20052e4ae7554ebf,6453ca9e121caf8095d8b5d4,2023-05-04_17h10.48.258,ga_syllabified_check,2022.2.5,Win32,60.0240096,,,,,,,,,,,,,,./stim/p04_syllable_1_lakakuaisto_hit.wav,p04,lakakuaisto,hit,la-ka-kuais-to,la-ka-kuais-to,la-ka-ku-ais-to,la-ka-kua-is-to,-0.340277778,-0.104166667,1,0,0,3.365,text_option_1,,0,179,179,49,1
563bb259be9cac0005aab7ab,63f3cfca20052e4ae7554ebf,6453ca9e121caf8095d8b5d4,2023-05-04_17h10.48.258,ga_syllabified_check,2022.2.5,Win32,60.0240096,,,,,,,,,,,,,,./stim/p04_syllable_1_lakabuaisto_hit.wav,p04,lakabuaisto,hit,la-ka-buais-to,la-ka-buais-to,la-ka-bu-ais-to,la-ka-bua-is-to,-0.334490741,-0.103009259,1,0,0,0.95,text_option_1,,0,180,180,41,1
563bb259be9cac0005aab7ab,63f3cfca20052e4ae7554ebf,6453ca9e121caf8095d8b5d4,2023-05-04_17h10.48.258,ga_syllabified_check,2022.2.5,Win32,60.0240096,,,,,,,,,,,,,,./stim/p04_syllable_1_rausto_hit.wav,p04,rausto,hit,raus-to,raus-to,ra-us-to, ,-0.368055556,-0.108796296,1,0,0,0.851,text_option_1,,0,181,181,65,1
563bb259be9cac0005aab7ab,63f3cfca20052e4ae7554ebf,6453ca9e121caf8095d8b5d4,2023-05-04_17h10.48.258,ga_syllabified_check,2022.2.5,Win32,60.0240096,,,,,,,,,,,,,,./stim/p05_syllable_1_lakaguaisto_hit.wav,p05,lakaguaisto,hit,la-ka-gais,la-ka-guais-to,la-ka-gu-ais-to,la-ka-gua-is-to,-0.384259259,-0.097222222,1,0,0,3.85,text_option_1,,0,182,182,81,1
563bb259be9cac0005aab7ab,63f3cfca20052e4ae7554ebf,6453ca9e121caf8095d8b5d4,2023-05-04_17h10.48.258,ga_syllabified_check,2022.2.5,Win32,60.0240096,,,,,,,,,,,,,,./stim/p06_syllable_1_chiaba_hit.wav,p06,chiaba,hit,chi-a-ba,chia-ba,chi-a-ba, ,-0.359953704,-0.109953704,1,0,0,2.132,text_option_1,,0,183,183,102,1
563bb259be9cac0005aab7ab,63f3cfca20052e4ae7554ebf,6453ca9e121caf8095d8b5d4,2023-05-04_17h10.48.258,ga_syllabified_check,2022.2.5,Win32,60.0240096,,,,,,,,,,,,,,./stim/p03_syllable_1_lakatuaisto_hit.wav,p03,lakatuaisto,hit,la-ka-tuais-to,la-ka-tuais-to,la-ka-tu-ais-to,la-ka-tua-is-to,-0.349537037,-0.105324074,1,0,0,2.948,text_option_1,,0,184,184,19,1
563bb259be9cac0005aab7ab,63f3cfca20052e4ae7554ebf,6453ca9e121caf8095d8b5d4,2023-05-04_17h10.48.258,ga_syllabified_check,2022.2.5,Win32,60.0240096,,,,,,,,,,,,,,./stim/p04_syllable_1_lakaduaisto_hit.wav,p04,lakaduaisto,hit,la-ka-duais-to,la-ka-duais-to,la-ka-du-ais-to,la-ka-dua-is-to,-0.334490741,-0.106481481,1,0,0,1.149,text_option_1,,0,185,185,43,1
563bb259be9cac0005aab7ab,63f3cfca20052e4ae7554ebf,6453ca9e121caf8095d8b5d4,2023-05-04_17h10.48.258,ga_syllabified_check,2022.2.5,Win32,60.0240096,,,,,,,,,,,,,,./stim/p03_syllable_1_paluguato_hit.wav,p03,paluguato,hit,pa-lu-gua,pa-lu-gua-to,pa-lu-gu-a-to, ,-0.334490741,-0.103009259,1,0,0,1.232,text_option_1,,0,186,186,27,1
563bb259be9cac0005aab7ab,63f3cfca20052e4ae7554ebf,6453ca9e121caf8095d8b5d4,2023-05-04_17h10.48.258,ga_syllabified_check,2022.2.5,Win32,60.0240096,,,,,,,,,,,,,,./stim/p05_syllable_1_falutraigo_hit.wav,p05,falutraigo,hit,fa-lu-trai-go,fa-lu-trai-go,fa-lu-tra-i-go, ,-0.340277778,-0.105324074,1,0,0,2.682,text_option_1,,0,187,187,72,1
563bb259be9cac0005aab7ab,63f3cfca20052e4ae7554ebf,6453ca9e121caf8095d8b5d4,2023-05-04_17h10.48.258,ga_syllabified_check,2022.2.5,Win32,60.0240096,,,,,,,,,,,,,,./stim/p08_syllable_1_lakapiaisto_hit.wav,p08,lakapiaisto,hit,la-ka-pi-as-to,la-ka-piais-to,la-ka-pi-ais-to,la-ka-pia-is-to,0.428240741,-0.109953704,1,0,0,3.284,text_option_2,,0,188,188,186,1
563bb259be9cac0005aab7ab,63f3cfca20052e4ae7554ebf,6453ca9e121caf8095d8b5d4,2023-05-04_17h10.48.258,ga_syllabified_check,2022.2.5,Win32,60.0240096,,,,,,,,,,,,,,./stim/p06_syllable_1_lakatuaisto_hit.wav,p06,lakatuaisto,hit,la-ka-tu-a-is,la-ka-tuais-to,la-ka-tu-ais-to,la-ka-tua-is-to,0.030092593,-0.310185185,1,0,0,3.681,text_option_other,la-ka-tu-a-is-to,0,189,189,121,1
563bb259be9cac0005aab7ab,63f3cfca20052e4ae7554ebf,6453ca9e121caf8095d8b5d4,2023-05-04_17h10.48.258,ga_syllabified_check,2022.2.5,Win32,60.0240096,,,,,,,,,,,,,,./stim/p04_syllable_1_manhiala_hit.wav,p04,mañiala,hit,ma-nhia-la,ma-ñia-la,ma-ñi-a-la, ,-0.396990741,-0.086805556,1,0,0,0.782,text_option_1,,0,190,190,55,1
563bb259be9cac0005aab7ab,63f3cfca20052e4ae7554ebf,6453ca9e121caf8095d8b5d4,2023-05-04_17h10.48.258,ga_syllabified_check,2022.2.5,Win32,60.0240096,,,,,,,,,,,,,,./stim/p05_syllable_1_lakakuaisto_hit.wav,p05,lakakuaisto,hit,la-ka-kais-to,la-ka-kuais-to,la-ka-ku-ais-to,la-ka-kua-is-to,-0.351851852,-0.103009259,1,0,0,2.3,text_option_1,,0,191,191,83,1
563bb259be9cac0005aab7ab,63f3cfca20052e4ae7554ebf,6453ca9e121caf8095d8b5d4,2023-05-04_17h10.48.258,ga_syllabified_check,2022.2.5,Win32,60.0240096,,,,,,,,,,,,,,./stim/p04_syllable_1_costonhialo_hit.wav,p04,costoñialo,hit,cos-to-nhia-lo,cos-to-ñia-lo,cos-to-ñi-a-lo, ,-0.341435185,-0.104166667,1,0,0,1.167,text_option_1,,0,192,192,35,1
563bb259be9cac0005aab7ab,63f3cfca20052e4ae7554ebf,6453ca9e121caf8095d8b5d4,2023-05-04_17h10.48.258,ga_syllabified_check,2022.2.5,Win32,60.0240096,,,,,,,,,,,,,,./stim/p03_syllable_1_lakafiaisto_hit.wav,p03,lakafiaisto,hit,la-ka-fiais-to,la-ka-fiais-to,la-ka-fi-ais-to,la-ka-fia-is-to,-0.357638889,-0.105324074,1,0,0,1.083,text_option_1,,0,193,193,10,1
563bb259be9cac0005aab7ab,63f3cfca20052e4ae7554ebf,6453ca9e121caf8095d8b5d4,2023-05-04_17h10.48.258,ga_syllabified_check,2022.2.5,Win32,60.0240096,,,,,,,,,,,,,,./stim/p05_syllable_1_chiaba_hit.wav,p05,chiaba,hit,chia-ba,chia-ba,chi-a-ba, ,-0.415509259,-0.105324074,1,0,0,3.032,text_option_1,,0,194,194,68,1
563bb259be9cac0005aab7ab,63f3cfca20052e4ae7554ebf,6453ca9e121caf8095d8b5d4,2023-05-04_17h10.48.258,ga_syllabified_check,2022.2.5,Win32,60.0240096,,,,,,,,,,,,,,./stim/p07_syllable_1_lliape_hit.wav,p07,lliape,hit,lliai-pe,llia-pe,lli-a-pe, ,-0.40162037,-0.108796296,1,0,0,2.181,text_option_1,,0,195,195,156,1
563bb259be9cac0005aab7ab,63f3cfca20052e4ae7554ebf,6453ca9e121caf8095d8b5d4,2023-05-04_17h10.48.258,ga_syllabified_check,2022.2.5,Win32,60.0240096,,,,,,,,,,,,,,./stim/p04_syllable_1_palumaisto_hit.wav,p04,palumaisto,hit,pa-lu-mais-to,pa-lu-mais-to,pa-lu-ma-is-to, ,-0.336805556,-0.109953704,1,0,0,3.349,text_option_1,,0,196,196,62,1
563bb259be9cac0005aab7ab,63f3cfca20052e4ae7554ebf,6453ca9e121caf8095d8b5d4,2023-05-04_17h10.48.258,ga_syllabified_check,2022.2.5,Win32,60.0240096,,,,,,,,,,,,,,./stim/p07_syllable_1_lakakiaisto_hit.wav,p07,lakakiaisto,hit,la-ka-kais-to,la-ka-kiais-to,la-ka-ki-ais-to,la-ka-kia-is-to,-0.344907407,-0.108796296,1,0,0,2.415,text_option_1,,0,197,197,150,1
563bb259be9cac0005aab7ab,63f3cfca20052e4ae7554ebf,6453ca9e121caf8095d8b5d4,2023-05-04_17h10.48.258,ga_syllabified_check,2022.2.5,Win32,60.0240096,,,,,,,,,,,,,,./stim/p07_syllable_1_lakapiaisto_hit.wav,p07,lakapiaisto,hit,la-ka-pia-sto,la-ka-piais-to,la-ka-pi-ais-to,la-ka-pia-is-to,0.06712963,-0.097222222,1,0,0,5.931,text_option_3,,0,198,198,152,1
563bb259be9cac0005aab7ab,63f3cfca20052e4ae7554ebf,6453ca9e121caf8095d8b5d4,2023-05-04_17h10.48.258,ga_syllabified_check,2022.2.5,Win32,60.0240096,,,,,,,,,,,,,,./stim/p06_syllable_1_lakaduaisto_hit.wav,p06,lakaduaisto,hit,la-ka-du-a-is,la-ka-duais-to,la-ka-du-ais-to,la-ka-dua-is-to,0.011574074,-0.313657407,1,0,0,4.398,text_option_other,la-ka-du-a-is-to,0,199,199,111,1
563bb259be9cac0005aab7ab,63f3cfca20052e4ae7554ebf,6453ca9e121caf8095d8b5d4,2023-05-04_17h10.48.258,ga_syllabified_check,2022.2.5,Win32,60.0240096,,,,,,,,,,,,,,./stim/p07_syllable_1_palutrauco_hit.wav,p07,palutrauco,hit,pa-lu-trau-co,pa-lu-trau-co,pa-lu-tra-u-co, ,-0.350694444,-0.107638889,1,0,0,1.116,text_option_1,,0,200,200,165,1
563bb259be9cac0005aab7ab,63f3cfca20052e4ae7554ebf,6453ca9e121caf8095d8b5d4,2023-05-04_17h10.48.258,ga_syllabified_check,2022.2.5,Win32,60.0240096,,,,,,,,,,,,,,./stim/p03_syllable_1_chiaba_hit.wav,p03,chiaba,hit,chia-ba,chia-ba,chi-a-ba, ,-0.383101852,-0.097222222,1,0,0,0.499,text_option_1,,0,201,201,0,1
563bb259be9cac0005aab7ab,63f3cfca20052e4ae7554ebf,6453ca9e121caf8095d8b5d4,2023-05-04_17h10.48.258,ga_syllabified_check,2022.2.5,Win32,60.0240096,,,,,,,,,,,,,,./stim/p03_syllable_1_lakapuaisto_hit.wav,p03,lakapuaisto,hit,la-ka-puais-to,la-ka-puais-to,la-ka-pu-ais-to,la-ka-pua-is-to,-0.335648148,-0.111111111,1,0,0,1.283,text_option_1,,0,202,202,17,1
563bb259be9cac0005aab7ab,63f3cfca20052e4ae7554ebf,6453ca9e121caf8095d8b5d4,2023-05-04_17h10.48.258,ga_syllabified_check,2022.2.5,Win32,60.0240096,,,,,,,,,,,,,,./stim/p08_syllable_1_lakapuaisto_hit.wav,p08,lakapuaisto,hit,la-ka-pu-as-to,la-ka-puais-to,la-ka-pu-ais-to,la-ka-pua-is-to,0.429398148,-0.107638889,1,0,0,2.732,text_option_2,,0,203,203,187,1
563bb259be9cac0005aab7ab,63f3cfca20052e4ae7554ebf,6453ca9e121caf8095d8b5d4,2023-05-04_17h10.48.258,ga_syllabified_check,2022.2.5,Win32,60.0240096,,,,,,,,,,,,,,,,,,,,,,,,,,,,,,,,,,
