participant,study,session,date,expName,psychopyVersion,OS,frameRate,mouse_practice.x,mouse_practice.y,mouse_practice.leftButton,mouse_practice.midButton,mouse_practice.rightButton,mouse_practice.time,mouse_practice.clicked_name,textbox_followup_practice.text,trials_practice.thisRepN,trials_practice.thisTrialN,trials_practice.thisN,trials_practice.thisIndex,trials_practice.ran,file_path,id,item,status,response,op1,op2,op3,mouse.x,mouse.y,mouse.leftButton,mouse.midButton,mouse.rightButton,mouse.time,mouse.clicked_name,textbox_followup.text,trials.thisRepN,trials.thisTrialN,trials.thisN,trials.thisIndex,trials.ran
59402f40e9b44100013b1789,63f3cfca20052e4ae7554ebf,6453cd3f07663f6b4ecc61dd,2023-05-04_17h20.59.466,ga_syllabified_check,2022.2.5,Win32,59.70149254,,,,,,,,,,,,,,,,,,,,,,,,,,,,,,,,,,
59402f40e9b44100013b1789,63f3cfca20052e4ae7554ebf,6453cd3f07663f6b4ecc61dd,2023-05-04_17h20.59.466,ga_syllabified_check,2022.2.5,Win32,59.70149254,-0.394261763,-0.108053681,1,0,0,3.3843,text_option_1_practice,,0,0,0,0,1,./stim/p03_syllable_1_liamo_hit.wav,p03,liamo,hit,lia-mo,lia-mo,li-a-mo, ,,,,,,,,,,,,,
59402f40e9b44100013b1789,63f3cfca20052e4ae7554ebf,6453cd3f07663f6b4ecc61dd,2023-05-04_17h20.59.466,ga_syllabified_check,2022.2.5,Win32,59.70149254,-0.394261763,-0.108053681,1,0,0,0.9174,text_option_1_practice,,0,1,1,1,1,./stim/p05_syllable_1_matio_hit.wav,p05,matio,hit,ma-tio,ma-tio,ma-ti-o, ,,,,,,,,,,,,,
59402f40e9b44100013b1789,63f3cfca20052e4ae7554ebf,6453cd3f07663f6b4ecc61dd,2023-05-04_17h20.59.466,ga_syllabified_check,2022.2.5,Win32,59.70149254,0.364932886,-0.083355692,1,0,0,1.8341,text_option_2_practice,,0,2,2,2,1,./stim/p08_syllable_1_liamo_hit.wav,p08,liamo,hit,ja-mo,lia-mo,li-a-mo, ,,,,,,,,,,,,,
59402f40e9b44100013b1789,63f3cfca20052e4ae7554ebf,6453cd3f07663f6b4ecc61dd,2023-05-04_17h20.59.466,ga_syllabified_check,2022.2.5,Win32,59.70149254,,,,,,,,,,,,,,,,,,,,,,,,,,,,,,,,,,
59402f40e9b44100013b1789,63f3cfca20052e4ae7554ebf,6453cd3f07663f6b4ecc61dd,2023-05-04_17h20.59.466,ga_syllabified_check,2022.2.5,Win32,59.70149254,,,,,,,,,,,,,,./stim/p07_syllable_1_ruyiola_hit.wav,p07,ruyiola,hit,ru-yio-la,ru-yio-la,ru-yi-o-la, ,-0.385671168,-0.114496628,1,0,0,1.7002,text_option_1,,0,0,0,168,1
59402f40e9b44100013b1789,63f3cfca20052e4ae7554ebf,6453cd3f07663f6b4ecc61dd,2023-05-04_17h20.59.466,ga_syllabified_check,2022.2.5,Win32,59.70149254,,,,,,,,,,,,,,./stim/p05_syllable_1_flauro_hit.wav,p05,flauro,hit,fa-lu-ro,flau-ro,fla-u-ro, ,0.040637535,-0.284161049,1,0,0,1.917,text_option_other,fa-lu-ro,0,1,1,73,1
59402f40e9b44100013b1789,63f3cfca20052e4ae7554ebf,6453cd3f07663f6b4ecc61dd,2023-05-04_17h20.59.466,ga_syllabified_check,2022.2.5,Win32,59.70149254,,,,,,,,,,,,,,./stim/p08_syllable_1_flauro_hit.wav,p08,flauro,hit,flau-ro,flau-ro,fla-u-ro, ,-0.385671168,-0.10697978,1,0,0,1.0167,text_option_1,,0,2,2,175,1
59402f40e9b44100013b1789,63f3cfca20052e4ae7554ebf,6453cd3f07663f6b4ecc61dd,2023-05-04_17h20.59.466,ga_syllabified_check,2022.2.5,Win32,59.70149254,,,,,,,,,,,,,,./stim/p08_syllable_1_manhiala_hit.wav,p08,mañiala,hit,ma-nhia-la,ma-ñia-la,ma-ñi-a-la, ,-0.385671168,-0.10697978,1,0,0,1.5502,text_option_1,,0,3,3,191,1
59402f40e9b44100013b1789,63f3cfca20052e4ae7554ebf,6453cd3f07663f6b4ecc61dd,2023-05-04_17h20.59.466,ga_syllabified_check,2022.2.5,Win32,59.70149254,,,,,,,,,,,,,,./stim/p04_syllable_1_nhiape_hit.wav,p04,ñiape,hit,nhia-pe,ñia-pe,ñi-a-pe, ,-0.365268477,-0.117718127,1,0,0,1.2837,text_option_1,,0,4,4,57,1
59402f40e9b44100013b1789,63f3cfca20052e4ae7554ebf,6453cd3f07663f6b4ecc61dd,2023-05-04_17h20.59.466,ga_syllabified_check,2022.2.5,Win32,59.70149254,,,,,,,,,,,,,,./stim/p07_syllable_1_mebochiana_hit.wav,p07,mebochiana,hit,me-bo-chia-na,me-bo-chia-na,me-bo-chi-a-na, ,-0.338422839,-0.095167787,1,0,0,2.2506,text_option_1,,0,5,5,158,1
59402f40e9b44100013b1789,63f3cfca20052e4ae7554ebf,6453cd3f07663f6b4ecc61dd,2023-05-04_17h20.59.466,ga_syllabified_check,2022.2.5,Win32,59.70149254,,,,,,,,,,,,,,./stim/p06_syllable_1_lakatiaisto_hit.wav,p06,lakatiaisto,hit,la-ka-pia-is-to,la-ka-tiais-to,la-ka-ti-ais-to,la-ka-tia-is-to,-0.005536892,-0.110201381,1,0,0,3.8171,text_option_3,,0,6,6,120,1
59402f40e9b44100013b1789,63f3cfca20052e4ae7554ebf,6453cd3f07663f6b4ecc61dd,2023-05-04_17h20.59.466,ga_syllabified_check,2022.2.5,Win32,59.70149254,,,,,,,,,,,,,,./stim/p06_syllable_1_palufauro_hit.wav,p06,palufauro,hit,pa-lu-fau-ro,pa-lu-fau-ro,pa-lu-fa-u-ro, ,0.033120789,-0.290603996,1,0,0,7.1171,text_option_other,pa-lo-fao-u-ro,0,7,7,127,1
59402f40e9b44100013b1789,63f3cfca20052e4ae7554ebf,6453cd3f07663f6b4ecc61dd,2023-05-04_17h20.59.466,ga_syllabified_check,2022.2.5,Win32,59.70149254,,,,,,,,,,,,,,./stim/p05_syllable_1_lakaduaisto_hit.wav,p05,lakaduaisto,hit,la-ka-dais-to,la-ka-duais-to,la-ka-du-ais-to,la-ka-dua-is-to,-0.338422839,-0.090872489,1,0,0,7.2879,text_option_1,,0,8,8,77,1
59402f40e9b44100013b1789,63f3cfca20052e4ae7554ebf,6453cd3f07663f6b4ecc61dd,2023-05-04_17h20.59.466,ga_syllabified_check,2022.2.5,Win32,59.70149254,,,,,,,,,,,,,,./stim/p04_syllable_1_lakadiaisto_hit.wav,p04,lakadiaisto,hit,la-ka-dias-to,la-ka-diais-to,la-ka-di-ais-to,la-ka-dia-is-to,-0.320167746,-0.103758383,1,0,0,1.6872,text_option_1,,0,9,9,42,1
59402f40e9b44100013b1789,63f3cfca20052e4ae7554ebf,6453cd3f07663f6b4ecc61dd,2023-05-04_17h20.59.466,ga_syllabified_check,2022.2.5,Win32,59.70149254,,,,,,,,,,,,,,./stim/p05_syllable_1_lakatuaisto_hit.wav,p05,lakatuaisto,hit,la-ka-tais-to,la-ka-tuais-to,la-ka-tu-ais-to,la-ka-tua-is-to,-0.047416124,-0.30134219,1,0,0,2.0333,text_option_other,la-ka-tais-to,0,10,10,87,1
59402f40e9b44100013b1789,63f3cfca20052e4ae7554ebf,6453cd3f07663f6b4ecc61dd,2023-05-04_17h20.59.466,ga_syllabified_check,2022.2.5,Win32,59.70149254,,,,,,,,,,,,,,./stim/p06_syllable_1_lakagiaisto_hit.wav,p06,lakagiaisto,hit,la-ka-gia-is-to,la-ka-giais-to,la-ka-gi-ais-to,la-ka-gia-is-to,0.040637535,-0.112348979,1,0,0,3.984,text_option_3,,0,11,11,114,1
59402f40e9b44100013b1789,63f3cfca20052e4ae7554ebf,6453cd3f07663f6b4ecc61dd,2023-05-04_17h20.59.466,ga_syllabified_check,2022.2.5,Win32,59.70149254,,,,,,,,,,,,,,./stim/p03_syllable_1_lakabiaisto_hit.wav,p03,lakabiaisto,hit,la-ka-biais-to,la-ka-biais-to,la-ka-bi-ais-to,la-ka-bia-is-to,-0.366342276,-0.117718127,1,0,0,1.4002,text_option_1,,0,12,12,6,1
59402f40e9b44100013b1789,63f3cfca20052e4ae7554ebf,6453cd3f07663f6b4ecc61dd,2023-05-04_17h20.59.466,ga_syllabified_check,2022.2.5,Win32,59.70149254,,,,,,,,,,,,,,./stim/p03_syllable_1_payielo_hit.wav,p03,payielo,hit,pa-yie-lo,pa-yie-lo,pa-yi-e-lo, ,-0.344865786,-0.097315436,1,0,0,1.2331,text_option_1,,0,13,13,30,1
59402f40e9b44100013b1789,63f3cfca20052e4ae7554ebf,6453cd3f07663f6b4ecc61dd,2023-05-04_17h20.59.466,ga_syllabified_check,2022.2.5,Win32,59.70149254,,,,,,,,,,,,,,./stim/p03_syllable_1_lliape_hit.wav,p03,lliape,hit,llia,llia-pe,lli-a-pe, ,-0.392114114,-0.103758383,1,0,0,0.8833,text_option_1,,0,14,14,20,1
59402f40e9b44100013b1789,63f3cfca20052e4ae7554ebf,6453cd3f07663f6b4ecc61dd,2023-05-04_17h20.59.466,ga_syllabified_check,2022.2.5,Win32,59.70149254,,,,,,,,,,,,,,./stim/p04_syllable_1_lakagiaisto_hit.wav,p04,lakagiaisto,hit,la-ka-giais-to,la-ka-giais-to,la-ka-gi-ais-to,la-ka-gia-is-to,-0.33520134,-0.10697978,1,0,0,1.5666,text_option_1,,0,15,15,46,1
59402f40e9b44100013b1789,63f3cfca20052e4ae7554ebf,6453cd3f07663f6b4ecc61dd,2023-05-04_17h20.59.466,ga_syllabified_check,2022.2.5,Win32,59.70149254,,,,,,,,,,,,,,./stim/p04_syllable_1_lliape_hit.wav,p04,lliape,hit,lia-pe,llia-pe,lli-a-pe, ,-0.369563775,-0.10697978,1,0,0,0.3671,text_option_1,,0,16,16,54,1
59402f40e9b44100013b1789,63f3cfca20052e4ae7554ebf,6453cd3f07663f6b4ecc61dd,2023-05-04_17h20.59.466,ga_syllabified_check,2022.2.5,Win32,59.70149254,,,,,,,,,,,,,,./stim/p06_syllable_1_lakapuaisto_hit.wav,p06,lakapuaisto,hit,la-ka-pu-a-is,la-ka-puais-to,la-ka-pu-ais-to,la-ka-pua-is-to,-0.002315444,-0.286308698,1,0,0,4.8335,text_option_other,la-ka-pu-a-is-to,0,17,17,119,1
59402f40e9b44100013b1789,63f3cfca20052e4ae7554ebf,6453cd3f07663f6b4ecc61dd,2023-05-04_17h20.59.466,ga_syllabified_check,2022.2.5,Win32,59.70149254,,,,,,,,,,,,,,./stim/p03_syllable_1_paluguato_hit.wav,p03,paluguato,hit,pa-lu-gua,pa-lu-gua-to,pa-lu-gu-a-to, ,-0.349161084,-0.111275078,1,0,0,1.2999,text_option_1,,0,18,18,27,1
59402f40e9b44100013b1789,63f3cfca20052e4ae7554ebf,6453cd3f07663f6b4ecc61dd,2023-05-04_17h20.59.466,ga_syllabified_check,2022.2.5,Win32,59.70149254,,,,,,,,,,,,,,./stim/p07_syllable_1_lakafuaisto_hit.wav,p07,lakafuaisto,hit,la-ka-fuais-to,la-ka-fuais-to,la-ka-fu-ais-to,la-ka-fua-is-to,-0.359899329,-0.110201381,1,0,0,1.9492,text_option_1,,0,19,19,147,1
59402f40e9b44100013b1789,63f3cfca20052e4ae7554ebf,6453cd3f07663f6b4ecc61dd,2023-05-04_17h20.59.466,ga_syllabified_check,2022.2.5,Win32,59.70149254,,,,,,,,,,,,,,./stim/p03_syllable_1_palutrauco_hit.wav,p03,palutrauco,hit,pa-lu-trau-co,pa-lu-trau-co,pa-lu-tra-u-co, ,-0.359899329,-0.110201381,1,0,0,0.7167,text_option_1,,0,20,20,29,1
59402f40e9b44100013b1789,63f3cfca20052e4ae7554ebf,6453cd3f07663f6b4ecc61dd,2023-05-04_17h20.59.466,ga_syllabified_check,2022.2.5,Win32,59.70149254,,,,,,,,,,,,,,./stim/p06_syllable_1_lakabiaisto_hit.wav,p06,lakabiaisto,hit,la-ka-bia-is-to,la-ka-biais-to,la-ka-bi-ais-to,la-ka-bia-is-to,0.015939597,-0.095167787,1,0,0,3.8505,text_option_3,,0,21,21,108,1
59402f40e9b44100013b1789,63f3cfca20052e4ae7554ebf,6453cd3f07663f6b4ecc61dd,2023-05-04_17h20.59.466,ga_syllabified_check,2022.2.5,Win32,59.70149254,,,,,,,,,,,,,,./stim/p05_syllable_1_falutraigo_hit.wav,p05,falutraigo,hit,fa-lu-trai-go,fa-lu-trai-go,fa-lu-tra-i-go, ,-0.360973179,-0.113422829,1,0,0,0.9167,text_option_1,,0,22,22,72,1
59402f40e9b44100013b1789,63f3cfca20052e4ae7554ebf,6453cd3f07663f6b4ecc61dd,2023-05-04_17h20.59.466,ga_syllabified_check,2022.2.5,Win32,59.70149254,,,,,,,,,,,,,,./stim/p08_syllable_1_ruyiola_hit.wav,p08,ruyiola,hit,ru-yio-la,ru-yio-la,ru-yi-o-la, ,-0.360973179,-0.113422829,1,0,0,0.9369,text_option_1,,0,23,23,202,1
59402f40e9b44100013b1789,63f3cfca20052e4ae7554ebf,6453cd3f07663f6b4ecc61dd,2023-05-04_17h20.59.466,ga_syllabified_check,2022.2.5,Win32,59.70149254,,,,,,,,,,,,,,./stim/p05_syllable_1_manhiala_hit.wav,p05,mañiala,hit,ma-nhia-la,ma-ñia-la,ma-ñi-a-la, ,-0.360973179,-0.113422829,1,0,0,0.6001,text_option_1,,0,24,24,89,1
59402f40e9b44100013b1789,63f3cfca20052e4ae7554ebf,6453cd3f07663f6b4ecc61dd,2023-05-04_17h20.59.466,ga_syllabified_check,2022.2.5,Win32,59.70149254,,,,,,,,,,,,,,./stim/p03_syllable_1_lakadiaisto_hit.wav,p03,lakadiaisto,hit,la-ka-diais-to,la-ka-diais-to,la-ka-di-ais-to,la-ka-dia-is-to,-0.360973179,-0.113422829,1,0,0,1.3548,text_option_1,,0,25,25,8,1
59402f40e9b44100013b1789,63f3cfca20052e4ae7554ebf,6453cd3f07663f6b4ecc61dd,2023-05-04_17h20.59.466,ga_syllabified_check,2022.2.5,Win32,59.70149254,,,,,,,,,,,,,,./stim/p08_syllable_1_lakapuaisto_hit.wav,p08,lakapuaisto,hit,la-ka-pu-as-to,la-ka-puais-to,la-ka-pu-ais-to,la-ka-pua-is-to,0.017013447,-0.316375835,1,0,0,3.1217,text_option_other,la-ka-puas-to,0,26,26,187,1
59402f40e9b44100013b1789,63f3cfca20052e4ae7554ebf,6453cd3f07663f6b4ecc61dd,2023-05-04_17h20.59.466,ga_syllabified_check,2022.2.5,Win32,59.70149254,,,,,,,,,,,,,,./stim/p05_syllable_1_lakadiaisto_hit.wav,p05,lakadiaisto,hit,la-ka-di-ais-to,la-ka-diais-to,la-ka-di-ais-to,la-ka-dia-is-to,-0.367416126,-0.103758383,1,0,0,1.4001,text_option_1,,0,27,27,76,1
59402f40e9b44100013b1789,63f3cfca20052e4ae7554ebf,6453cd3f07663f6b4ecc61dd,2023-05-04_17h20.59.466,ga_syllabified_check,2022.2.5,Win32,59.70149254,,,,,,,,,,,,,,./stim/p07_syllable_1_lakakuaisto_hit.wav,p07,lakakuaisto,hit,la-ka-kuais-to,la-ka-kuais-to,la-ka-ku-ais-to,la-ka-kua-is-to,-0.367416126,-0.103758383,1,0,0,2.2336,text_option_1,,0,28,28,151,1
59402f40e9b44100013b1789,63f3cfca20052e4ae7554ebf,6453cd3f07663f6b4ecc61dd,2023-05-04_17h20.59.466,ga_syllabified_check,2022.2.5,Win32,59.70149254,,,,,,,,,,,,,,./stim/p07_syllable_1_flauro_hit.wav,p07,flauro,hit,flau-ro,flau-ro,fla-u-ro, ,-0.367416126,-0.103758383,1,0,0,1.0503,text_option_1,,0,29,29,141,1
59402f40e9b44100013b1789,63f3cfca20052e4ae7554ebf,6453cd3f07663f6b4ecc61dd,2023-05-04_17h20.59.466,ga_syllabified_check,2022.2.5,Win32,59.70149254,,,,,,,,,,,,,,./stim/p04_syllable_1_lakaguaisto_hit.wav,p04,lakaguaisto,hit,la-ka-guais-to,la-ka-guais-to,la-ka-gu-ais-to,la-ka-gua-is-to,-0.367416126,-0.103758383,1,0,0,1.4666,text_option_1,,0,30,30,47,1
59402f40e9b44100013b1789,63f3cfca20052e4ae7554ebf,6453cd3f07663f6b4ecc61dd,2023-05-04_17h20.59.466,ga_syllabified_check,2022.2.5,Win32,59.70149254,,,,,,,,,,,,,,./stim/p03_syllable_1_lakagiaisto_hit.wav,p03,lakagiaisto,hit,la-ka-giais-to,la-ka-giais-to,la-ka-gi-ais-to,la-ka-gia-is-to,-0.367416126,-0.103758383,1,0,0,2.8669,text_option_1,,0,31,31,12,1
59402f40e9b44100013b1789,63f3cfca20052e4ae7554ebf,6453cd3f07663f6b4ecc61dd,2023-05-04_17h20.59.466,ga_syllabified_check,2022.2.5,Win32,59.70149254,,,,,,,,,,,,,,./stim/p04_syllable_1_lakaduaisto_hit.wav,p04,lakaduaisto,hit,la-ka-duais-to,la-ka-duais-to,la-ka-du-ais-to,la-ka-dua-is-to,-0.367416126,-0.103758383,1,0,0,2.2171,text_option_1,,0,32,32,43,1
59402f40e9b44100013b1789,63f3cfca20052e4ae7554ebf,6453cd3f07663f6b4ecc61dd,2023-05-04_17h20.59.466,ga_syllabified_check,2022.2.5,Win32,59.70149254,,,,,,,,,,,,,,./stim/p04_syllable_1_pachialo_hit.wav,p04,pachialo,hit,pa-chia-lo,pa-chia-lo,pa-chi-a-lo, ,-0.367416126,-0.103758383,1,0,0,1.5001,text_option_1,,0,33,33,58,1
59402f40e9b44100013b1789,63f3cfca20052e4ae7554ebf,6453cd3f07663f6b4ecc61dd,2023-05-04_17h20.59.466,ga_syllabified_check,2022.2.5,Win32,59.70149254,,,,,,,,,,,,,,./stim/p06_syllable_1_payielo_hit.wav,p06,payielo,hit,pa-yi-e-lo,pa-yie-lo,pa-yi-e-lo, ,-0.367416126,-0.103758383,1,0,0,3.3166,text_option_1,,0,34,34,132,1
59402f40e9b44100013b1789,63f3cfca20052e4ae7554ebf,6453cd3f07663f6b4ecc61dd,2023-05-04_17h20.59.466,ga_syllabified_check,2022.2.5,Win32,59.70149254,,,,,,,,,,,,,,./stim/p04_syllable_1_lakafuaisto_hit.wav,p04,lakafuaisto,hit,la-ka-fuais-to,la-ka-fuais-to,la-ka-fu-ais-to,la-ka-fua-is-to,-0.367416126,-0.103758383,1,0,0,0.5171,text_option_1,,0,35,35,45,1
59402f40e9b44100013b1789,63f3cfca20052e4ae7554ebf,6453cd3f07663f6b4ecc61dd,2023-05-04_17h20.59.466,ga_syllabified_check,2022.2.5,Win32,59.70149254,,,,,,,,,,,,,,./stim/p07_syllable_1_lakabuaisto_hit.wav,p07,lakabuaisto,hit,la-ka-buais-to,la-ka-buais-to,la-ka-bu-ais-to,la-ka-bua-is-to,-0.367416126,-0.103758383,1,0,0,0.9336,text_option_1,,0,36,36,143,1
59402f40e9b44100013b1789,63f3cfca20052e4ae7554ebf,6453cd3f07663f6b4ecc61dd,2023-05-04_17h20.59.466,ga_syllabified_check,2022.2.5,Win32,59.70149254,,,,,,,,,,,,,,./stim/p08_syllable_1_palufauro_hit.wav,p08,palufauro,hit,pa-lu-fau-ro,pa-lu-fau-ro,pa-lu-fa-u-ro, ,-0.367416126,-0.103758383,1,0,0,2.3005,text_option_1,,0,37,37,195,1
59402f40e9b44100013b1789,63f3cfca20052e4ae7554ebf,6453cd3f07663f6b4ecc61dd,2023-05-04_17h20.59.466,ga_syllabified_check,2022.2.5,Win32,59.70149254,,,,,,,,,,,,,,./stim/p06_syllable_1_faluduako_hit.wav,p06,faluduako,hit,fa-lu-dua-ko,fa-lu-dua-ko,fa-lu-du-a-ko, ,0.492718076,-0.094093937,1,0,0,3.0169,text_option_2,,0,38,38,104,1
59402f40e9b44100013b1789,63f3cfca20052e4ae7554ebf,6453cd3f07663f6b4ecc61dd,2023-05-04_17h20.59.466,ga_syllabified_check,2022.2.5,Win32,59.70149254,,,,,,,,,,,,,,./stim/p05_syllable_1_nhiape_hit.wav,p05,ñiape,hit,nhia-pe,ñia-pe,ñi-a-pe, ,-0.360973179,-0.120939575,1,0,0,0.5158,text_option_1,,0,39,39,91,1
59402f40e9b44100013b1789,63f3cfca20052e4ae7554ebf,6453cd3f07663f6b4ecc61dd,2023-05-04_17h20.59.466,ga_syllabified_check,2022.2.5,Win32,59.70149254,,,,,,,,,,,,,,./stim/p03_syllable_1_nhiape_hit.wav,p03,ñiape,hit,nhia-pe,ñia-pe,ñi-a-pe, ,-0.407147657,-0.099463136,1,0,0,0.8002,text_option_1,,0,40,40,23,1
59402f40e9b44100013b1789,63f3cfca20052e4ae7554ebf,6453cd3f07663f6b4ecc61dd,2023-05-04_17h20.59.466,ga_syllabified_check,2022.2.5,Win32,59.70149254,,,,,,,,,,,,,,./stim/p04_syllable_1_paluguato_hit.wav,p04,paluguato,hit,pa-lu-gua,pa-lu-gua-to,pa-lu-gu-a-to, ,-0.040973126,-0.295973144,1,0,0,2.0212,text_option_other,pa-lu-gua,0,41,41,61,1
59402f40e9b44100013b1789,63f3cfca20052e4ae7554ebf,6453cd3f07663f6b4ecc61dd,2023-05-04_17h20.59.466,ga_syllabified_check,2022.2.5,Win32,59.70149254,,,,,,,,,,,,,,./stim/p05_syllable_1_lakapiaisto_hit.wav,p05,lakapiaisto,hit,la-ka-pais-to,la-ka-piais-to,la-ka-pi-ais-to,la-ka-pia-is-to,-0.014127591,-0.30456374,1,0,0,1.6999,text_option_other,la-ka-pais-to,0,42,42,84,1
59402f40e9b44100013b1789,63f3cfca20052e4ae7554ebf,6453cd3f07663f6b4ecc61dd,2023-05-04_17h20.59.466,ga_syllabified_check,2022.2.5,Win32,59.70149254,,,,,,,,,,,,,,./stim/p03_syllable_1_manhiala_hit.wav,p03,mañiala,hit,ma-nhia-la,ma-ñia-la,ma-ñi-a-la, ,-0.377080623,-0.111275078,1,0,0,0.7335,text_option_1,,0,43,43,21,1
59402f40e9b44100013b1789,63f3cfca20052e4ae7554ebf,6453cd3f07663f6b4ecc61dd,2023-05-04_17h20.59.466,ga_syllabified_check,2022.2.5,Win32,59.70149254,,,,,,,,,,,,,,./stim/p06_syllable_1_lakatuaisto_hit.wav,p06,lakatuaisto,hit,la-ka-tu-a-is,la-ka-tuais-to,la-ka-tu-ais-to,la-ka-tua-is-to,0.027751539,-0.30134219,1,0,0,3.4008,text_option_other,la-ka-tu-a-is-to,0,44,44,121,1
59402f40e9b44100013b1789,63f3cfca20052e4ae7554ebf,6453cd3f07663f6b4ecc61dd,2023-05-04_17h20.59.466,ga_syllabified_check,2022.2.5,Win32,59.70149254,,,,,,,,,,,,,,./stim/p06_syllable_1_paluguato_hit.wav,p06,paluguato,hit,pa-lu-gua-to,pa-lu-gua-to,pa-lu-gu-a-to, ,-0.35775168,-0.112348979,1,0,0,1.4667,text_option_1,,0,45,45,129,1
59402f40e9b44100013b1789,63f3cfca20052e4ae7554ebf,6453cd3f07663f6b4ecc61dd,2023-05-04_17h20.59.466,ga_syllabified_check,2022.2.5,Win32,59.70149254,,,,,,,,,,,,,,./stim/p04_syllable_1_palumaisto_hit.wav,p04,palumaisto,hit,pa-lu-mais-to,pa-lu-mais-to,pa-lu-ma-is-to, ,-0.35775168,-0.112348979,1,0,0,0.9002,text_option_1,,0,46,46,62,1
59402f40e9b44100013b1789,63f3cfca20052e4ae7554ebf,6453cd3f07663f6b4ecc61dd,2023-05-04_17h20.59.466,ga_syllabified_check,2022.2.5,Win32,59.70149254,,,,,,,,,,,,,,./stim/p05_syllable_1_lakafiaisto_hit.wav,p05,lakafiaisto,hit,la-ka-fi-ais-to,la-ka-fiais-to,la-ka-fi-ais-to,la-ka-fia-is-to,0.055671231,-0.097315436,1,0,0,2.0668,text_option_3,,0,47,47,78,1
59402f40e9b44100013b1789,63f3cfca20052e4ae7554ebf,6453cd3f07663f6b4ecc61dd,2023-05-04_17h20.59.466,ga_syllabified_check,2022.2.5,Win32,59.70149254,,,,,,,,,,,,,,./stim/p08_syllable_1_lakaduaisto_hit.wav,p08,lakaduaisto,hit,la-ka-du-ais-to,la-ka-duais-to,la-ka-du-ais-to,la-ka-dua-is-to,0.055671231,-0.097315436,1,0,0,3.1502,text_option_3,,0,48,48,179,1
59402f40e9b44100013b1789,63f3cfca20052e4ae7554ebf,6453cd3f07663f6b4ecc61dd,2023-05-04_17h20.59.466,ga_syllabified_check,2022.2.5,Win32,59.70149254,,,,,,,,,,,,,,./stim/p06_syllable_1_palutrauco_hit.wav,p06,palutrauco,hit,pa-lu-tra-u-co,pa-lu-trau-co,pa-lu-tra-u-co, ,0.442248146,-0.102684533,1,0,0,2.55,text_option_2,,0,49,49,131,1
59402f40e9b44100013b1789,63f3cfca20052e4ae7554ebf,6453cd3f07663f6b4ecc61dd,2023-05-04_17h20.59.466,ga_syllabified_check,2022.2.5,Win32,59.70149254,,,,,,,,,,,,,,./stim/p04_syllable_1_costonhialo_hit.wav,p04,costoñialo,hit,cos-to-nhia-lo,cos-to-ñia-lo,cos-to-ñi-a-lo, ,-0.334127541,-0.10697978,1,0,0,1.3835,text_option_1,,0,50,50,35,1
59402f40e9b44100013b1789,63f3cfca20052e4ae7554ebf,6453cd3f07663f6b4ecc61dd,2023-05-04_17h20.59.466,ga_syllabified_check,2022.2.5,Win32,59.70149254,,,,,,,,,,,,,,./stim/p08_syllable_1_lakatiaisto_hit.wav,p08,lakatiaisto,hit,la-ka-ti-as-to,la-ka-tiais-to,la-ka-ti-ais-to,la-ka-tia-is-to,-0.05493287,-0.300268442,1,0,0,4.0168,text_option_other,la-ka-tias-to,0,51,51,188,1
59402f40e9b44100013b1789,63f3cfca20052e4ae7554ebf,6453cd3f07663f6b4ecc61dd,2023-05-04_17h20.59.466,ga_syllabified_check,2022.2.5,Win32,59.70149254,,,,,,,,,,,,,,./stim/p07_syllable_1_nhiape_hit.wav,p07,ñiape,hit,nhia-pe,ñia-pe,ñi-a-pe, ,-0.391040264,-0.091946288,1,0,0,0.4495,text_option_1,,0,52,52,159,1
59402f40e9b44100013b1789,63f3cfca20052e4ae7554ebf,6453cd3f07663f6b4ecc61dd,2023-05-04_17h20.59.466,ga_syllabified_check,2022.2.5,Win32,59.70149254,,,,,,,,,,,,,,./stim/p08_syllable_1_falufaisto_hit.wav,p08,falufaisto,hit,fa-lu-fais-to,fa-lu-fais-to,fa-lu-fa-is-to, ,-0.391040264,-0.091946288,1,0,0,1.7668,text_option_1,,0,53,53,173,1
59402f40e9b44100013b1789,63f3cfca20052e4ae7554ebf,6453cd3f07663f6b4ecc61dd,2023-05-04_17h20.59.466,ga_syllabified_check,2022.2.5,Win32,59.70149254,,,,,,,,,,,,,,./stim/p03_syllable_1_palufauro_hit.wav,p03,palufauro,hit,pa-lu-fau-ro,pa-lu-fau-ro,pa-lu-fa-u-ro, ,-0.391040264,-0.091946288,1,0,0,1.0864,text_option_1,,0,54,54,25,1
59402f40e9b44100013b1789,63f3cfca20052e4ae7554ebf,6453cd3f07663f6b4ecc61dd,2023-05-04_17h20.59.466,ga_syllabified_check,2022.2.5,Win32,59.70149254,,,,,,,,,,,,,,./stim/p03_syllable_1_chiaba_hit.wav,p03,chiaba,hit,chia-ba,chia-ba,chi-a-ba, ,-0.391040264,-0.091946288,1,0,0,0.5172,text_option_1,,0,55,55,0,1
59402f40e9b44100013b1789,63f3cfca20052e4ae7554ebf,6453cd3f07663f6b4ecc61dd,2023-05-04_17h20.59.466,ga_syllabified_check,2022.2.5,Win32,59.70149254,,,,,,,,,,,,,,./stim/p03_syllable_1_pachialo_hit.wav,p03,pachialo,hit,pa-chia-lo,pa-chia-lo,pa-chi-a-lo, ,-0.391040264,-0.091946288,1,0,0,0.7511,text_option_1,,0,56,56,24,1
59402f40e9b44100013b1789,63f3cfca20052e4ae7554ebf,6453cd3f07663f6b4ecc61dd,2023-05-04_17h20.59.466,ga_syllabified_check,2022.2.5,Win32,59.70149254,,,,,,,,,,,,,,./stim/p05_syllable_1_lakafuaisto_hit.wav,p05,lakafuaisto,hit,la-ka-fais-to,la-ka-fuais-to,la-ka-fu-ais-to,la-ka-fua-is-to,-0.387818817,-0.111275078,1,0,0,1.5665,text_option_1,,0,57,57,79,1
59402f40e9b44100013b1789,63f3cfca20052e4ae7554ebf,6453cd3f07663f6b4ecc61dd,2023-05-04_17h20.59.466,ga_syllabified_check,2022.2.5,Win32,59.70149254,,,,,,,,,,,,,,./stim/p08_syllable_1_lakadiaisto_hit.wav,p08,lakadiaisto,hit,la-ka-di-jas-to,la-ka-diais-to,la-ka-di-ais-to,la-ka-dia-is-to,0.061040277,-0.302416091,1,0,0,3.305,text_option_other,la-ka-dias-to,0,58,58,178,1
59402f40e9b44100013b1789,63f3cfca20052e4ae7554ebf,6453cd3f07663f6b4ecc61dd,2023-05-04_17h20.59.466,ga_syllabified_check,2022.2.5,Win32,59.70149254,,,,,,,,,,,,,,./stim/p05_syllable_1_lakakuaisto_hit.wav,p05,lakakuaisto,hit,la-ka-kais-to,la-ka-kuais-to,la-ka-ku-ais-to,la-ka-kua-is-to,0.067483172,-0.295973144,1,0,0,1.2216,text_option_other,la-ka-kais-to,0,59,59,83,1
59402f40e9b44100013b1789,63f3cfca20052e4ae7554ebf,6453cd3f07663f6b4ecc61dd,2023-05-04_17h20.59.466,ga_syllabified_check,2022.2.5,Win32,59.70149254,,,,,,,,,,,,,,./stim/p04_syllable_1_falufaisto_hit.wav,p04,falufaisto,hit,fa-lu-fais-to,fa-lu-fais-to,fa-lu-fa-is-to, ,-0.364194627,-0.08765099,1,0,0,0.7334,text_option_1,,0,60,60,37,1
59402f40e9b44100013b1789,63f3cfca20052e4ae7554ebf,6453cd3f07663f6b4ecc61dd,2023-05-04_17h20.59.466,ga_syllabified_check,2022.2.5,Win32,59.70149254,,,,,,,,,,,,,,./stim/p06_syllable_1_palufauto_hit.wav,p06,palufauto,hit,pa-lu-fau-to,pa-lu-fau-to,pa-lu-fa-u-to, ,-0.384597317,-0.102684533,1,0,0,2.5503,text_option_1,,0,61,61,128,1
59402f40e9b44100013b1789,63f3cfca20052e4ae7554ebf,6453cd3f07663f6b4ecc61dd,2023-05-04_17h20.59.466,ga_syllabified_check,2022.2.5,Win32,59.70149254,,,,,,,,,,,,,,./stim/p04_syllable_1_lakakiaisto_hit.wav,p04,lakakiaisto,hit,la-ka-kiais-to,la-ka-kiais-to,la-ka-ki-ais-to,la-ka-kia-is-to,-0.331979892,-0.095167787,1,0,0,1.2833,text_option_1,,0,62,62,48,1
59402f40e9b44100013b1789,63f3cfca20052e4ae7554ebf,6453cd3f07663f6b4ecc61dd,2023-05-04_17h20.59.466,ga_syllabified_check,2022.2.5,Win32,59.70149254,,,,,,,,,,,,,,./stim/p08_syllable_1_lakafuaisto_hit.wav,p08,lakafuaisto,hit,la-ka-fju-ais-to,la-ka-fuais-to,la-ka-fu-ais-to,la-ka-fua-is-to,-0.331979892,-0.095167787,1,0,0,5.7837,text_option_1,,0,63,63,181,1
59402f40e9b44100013b1789,63f3cfca20052e4ae7554ebf,6453cd3f07663f6b4ecc61dd,2023-05-04_17h20.59.466,ga_syllabified_check,2022.2.5,Win32,59.70149254,,,,,,,,,,,,,,./stim/p08_syllable_1_lakakuaisto_hit.wav,p08,lakakuaisto,hit,la-ka-ku-ais-to,la-ka-kuais-to,la-ka-ku-ais-to,la-ka-kua-is-to,-0.331979892,-0.095167787,1,0,0,2.8006,text_option_1,,0,64,64,185,1
59402f40e9b44100013b1789,63f3cfca20052e4ae7554ebf,6453cd3f07663f6b4ecc61dd,2023-05-04_17h20.59.466,ga_syllabified_check,2022.2.5,Win32,59.70149254,,,,,,,,,,,,,,./stim/p03_syllable_1_flauro_hit.wav,p03,flauro,hit,flau-ro,flau-ro,fla-u-ro, ,-0.393187913,-0.10697978,1,0,0,0.3495,text_option_1,,0,65,65,5,1
59402f40e9b44100013b1789,63f3cfca20052e4ae7554ebf,6453cd3f07663f6b4ecc61dd,2023-05-04_17h20.59.466,ga_syllabified_check,2022.2.5,Win32,59.70149254,,,,,,,,,,,,,,./stim/p07_syllable_1_palutrauco_hit.wav,p07,palutrauco,hit,pa-lu-trau-co,pa-lu-trau-co,pa-lu-tra-u-co, ,-0.393187913,-0.10697978,1,0,0,1.0835,text_option_1,,0,66,66,165,1
59402f40e9b44100013b1789,63f3cfca20052e4ae7554ebf,6453cd3f07663f6b4ecc61dd,2023-05-04_17h20.59.466,ga_syllabified_check,2022.2.5,Win32,59.70149254,,,,,,,,,,,,,,./stim/p07_syllable_1_lakabiaisto_hit.wav,p07,lakabiaisto,hit,la-ka-bais-to,la-ka-biais-to,la-ka-bi-ais-to,la-ka-bia-is-to,-0.00983219,-0.297046892,1,0,0,2.6711,text_option_other,la-ka-bais-to,0,67,67,142,1
59402f40e9b44100013b1789,63f3cfca20052e4ae7554ebf,6453cd3f07663f6b4ecc61dd,2023-05-04_17h20.59.466,ga_syllabified_check,2022.2.5,Win32,59.70149254,,,,,,,,,,,,,,./stim/p08_syllable_1_lakatuaisto_hit.wav,p08,lakatuaisto,hit,la-ka-tu-i-jis,la-ka-tuais-to,la-ka-tu-ais-to,la-ka-tua-is-to,-0.410369156,-0.086577191,1,0,0,20.7504,text_option_1,,0,68,68,189,1
59402f40e9b44100013b1789,63f3cfca20052e4ae7554ebf,6453cd3f07663f6b4ecc61dd,2023-05-04_17h20.59.466,ga_syllabified_check,2022.2.5,Win32,59.70149254,,,,,,,,,,,,,,./stim/p06_syllable_1_costonhialo_hit.wav,p06,costoñialo,hit,cos-to-nhia-lo,cos-to-ñia-lo,cos-to-ñi-a-lo, ,-0.365268477,-0.120939575,1,0,0,1.8671,text_option_1,,0,69,69,103,1
59402f40e9b44100013b1789,63f3cfca20052e4ae7554ebf,6453cd3f07663f6b4ecc61dd,2023-05-04_17h20.59.466,ga_syllabified_check,2022.2.5,Win32,59.70149254,,,,,,,,,,,,,,./stim/p07_syllable_1_lakapiaisto_hit.wav,p07,lakapiaisto,hit,la-ka-pia-sto,la-ka-piais-to,la-ka-pi-ais-to,la-ka-pia-is-to,0.042785235,-0.112348979,1,0,0,3.8363,text_option_3,,0,70,70,152,1
59402f40e9b44100013b1789,63f3cfca20052e4ae7554ebf,6453cd3f07663f6b4ecc61dd,2023-05-04_17h20.59.466,ga_syllabified_check,2022.2.5,Win32,59.70149254,,,,,,,,,,,,,,./stim/p03_syllable_1_lakapuaisto_hit.wav,p03,lakapuaisto,hit,la-ka-puais-to,la-ka-puais-to,la-ka-pu-ais-to,la-ka-pua-is-to,-0.302986606,-0.095167787,1,0,0,1.1878,text_option_1,,0,71,71,17,1
59402f40e9b44100013b1789,63f3cfca20052e4ae7554ebf,6453cd3f07663f6b4ecc61dd,2023-05-04_17h20.59.466,ga_syllabified_check,2022.2.5,Win32,59.70149254,,,,,,,,,,,,,,./stim/p03_syllable_1_lakabuaisto_hit.wav,p03,lakabuaisto,hit,la-ka-buais-to,la-ka-buais-to,la-ka-bu-ais-to,la-ka-bua-is-to,-0.302986606,-0.095167787,1,0,0,0.8835,text_option_1,,0,72,72,7,1
59402f40e9b44100013b1789,63f3cfca20052e4ae7554ebf,6453cd3f07663f6b4ecc61dd,2023-05-04_17h20.59.466,ga_syllabified_check,2022.2.5,Win32,59.70149254,,,,,,,,,,,,,,./stim/p08_syllable_1_lakabuaisto_hit.wav,p08,lakabuaisto,hit,la-ka-bu-ais-to,la-ka-buais-to,la-ka-bu-ais-to,la-ka-bua-is-to,0.40681222,-0.108053681,1,0,0,3.4291,text_option_2,,0,73,73,177,1
59402f40e9b44100013b1789,63f3cfca20052e4ae7554ebf,6453cd3f07663f6b4ecc61dd,2023-05-04_17h20.59.466,ga_syllabified_check,2022.2.5,Win32,59.70149254,,,,,,,,,,,,,,./stim/p06_syllable_1_lakadiaisto_hit.wav,p06,lakadiaisto,hit,la-ka-dia-is-to,la-ka-diais-to,la-ka-di-ais-to,la-ka-dia-is-to,0.020234895,-0.097315436,1,0,0,2.5668,text_option_3,,0,74,74,110,1
59402f40e9b44100013b1789,63f3cfca20052e4ae7554ebf,6453cd3f07663f6b4ecc61dd,2023-05-04_17h20.59.466,ga_syllabified_check,2022.2.5,Win32,59.70149254,,,,,,,,,,,,,,./stim/p05_syllable_1_palutrauco_hit.wav,p05,palutrauco,hit,pa-lu-trai-co,pa-lu-trau-co,pa-lu-tra-u-co, ,-0.001241594,-0.299194541,1,0,0,1.6502,text_option_other,pa-lu-trai-co,0,75,75,97,1
59402f40e9b44100013b1789,63f3cfca20052e4ae7554ebf,6453cd3f07663f6b4ecc61dd,2023-05-04_17h20.59.466,ga_syllabified_check,2022.2.5,Win32,59.70149254,,,,,,,,,,,,,,./stim/p07_syllable_1_pachialo_hit.wav,p07,pachialo,hit,pa-cha-lo,pa-chia-lo,pa-chi-a-lo, ,-0.393187913,-0.097315436,1,0,0,0.8835,text_option_1,,0,76,76,160,1
59402f40e9b44100013b1789,63f3cfca20052e4ae7554ebf,6453cd3f07663f6b4ecc61dd,2023-05-04_17h20.59.466,ga_syllabified_check,2022.2.5,Win32,59.70149254,,,,,,,,,,,,,,./stim/p03_syllable_1_palumaisto_hit.wav,p03,palumaisto,hit,pa-lu-mais-to,pa-lu-mais-to,pa-lu-ma-is-to, ,-0.393187913,-0.097315436,1,0,0,0.9885,text_option_1,,0,77,77,28,1
59402f40e9b44100013b1789,63f3cfca20052e4ae7554ebf,6453cd3f07663f6b4ecc61dd,2023-05-04_17h20.59.466,ga_syllabified_check,2022.2.5,Win32,59.70149254,,,,,,,,,,,,,,./stim/p06_syllable_1_manhiala_hit.wav,p06,mañiala,hit,ma-nhi-a-la,ma-ñia-la,ma-ñi-a-la, ,0.408959715,-0.08872484,1,0,0,1.529,text_option_2,,0,78,78,123,1
59402f40e9b44100013b1789,63f3cfca20052e4ae7554ebf,6453cd3f07663f6b4ecc61dd,2023-05-04_17h20.59.466,ga_syllabified_check,2022.2.5,Win32,59.70149254,,,,,,,,,,,,,,./stim/p07_syllable_1_lliape_hit.wav,p07,lliape,hit,lliai-pe,llia-pe,lli-a-pe, ,-0.062449615,-0.278791952,1,0,0,2.2956,text_option_other,lliai-pe,0,79,79,156,1
59402f40e9b44100013b1789,63f3cfca20052e4ae7554ebf,6453cd3f07663f6b4ecc61dd,2023-05-04_17h20.59.466,ga_syllabified_check,2022.2.5,Win32,59.70149254,,,,,,,,,,,,,,./stim/p03_syllable_1_mebochiana_hit.wav,p03,mebochiana,hit,me-bo-chia-na,me-bo-chia-na,me-bo-chi-a-na, ,-0.348087336,-0.079060394,1,0,0,32.5846,text_option_1,,0,80,80,22,1
59402f40e9b44100013b1789,63f3cfca20052e4ae7554ebf,6453cd3f07663f6b4ecc61dd,2023-05-04_17h20.59.466,ga_syllabified_check,2022.2.5,Win32,59.70149254,,,,,,,,,,,,,,./stim/p06_syllable_1_chiaba_hit.wav,p06,chiaba,hit,chi-a-ba,chia-ba,chi-a-ba, ,-0.370637574,-0.08765099,1,0,0,1.4337,text_option_1,,0,81,81,102,1
59402f40e9b44100013b1789,63f3cfca20052e4ae7554ebf,6453cd3f07663f6b4ecc61dd,2023-05-04_17h20.59.466,ga_syllabified_check,2022.2.5,Win32,59.70149254,,,,,,,,,,,,,,./stim/p03_syllable_1_lakatiaisto_hit.wav,p03,lakatiaisto,hit,la-ka-tiais-to,la-ka-tiais-to,la-ka-ti-ais-to,la-ka-tia-is-to,-0.351308733,-0.103758383,1,0,0,1.6166,text_option_1,,0,82,82,18,1
59402f40e9b44100013b1789,63f3cfca20052e4ae7554ebf,6453cd3f07663f6b4ecc61dd,2023-05-04_17h20.59.466,ga_syllabified_check,2022.2.5,Win32,59.70149254,,,,,,,,,,,,,,./stim/p07_syllable_1_lakapuaisto_hit.wav,p07,lakapuaisto,hit,la-ka-puais-to,la-ka-puais-to,la-ka-pu-ais-to,la-ka-pua-is-to,-0.351308733,-0.103758383,1,0,0,2.4172,text_option_1,,0,83,83,153,1
59402f40e9b44100013b1789,63f3cfca20052e4ae7554ebf,6453cd3f07663f6b4ecc61dd,2023-05-04_17h20.59.466,ga_syllabified_check,2022.2.5,Win32,59.70149254,,,,,,,,,,,,,,./stim/p04_syllable_1_falutraigo_hit.wav,p04,falutraigo,hit,fa-lu-trai-go,fa-lu-trai-go,fa-lu-tra-i-go, ,-0.351308733,-0.103758383,1,0,0,1.2835,text_option_1,,0,84,84,38,1
59402f40e9b44100013b1789,63f3cfca20052e4ae7554ebf,6453cd3f07663f6b4ecc61dd,2023-05-04_17h20.59.466,ga_syllabified_check,2022.2.5,Win32,59.70149254,,,,,,,,,,,,,,./stim/p04_syllable_1_lakatuaisto_hit.wav,p04,lakatuaisto,hit,la-ka-kuais-to,la-ka-tuais-to,la-ka-tu-ais-to,la-ka-tua-is-to,-0.351308733,-0.103758383,1,0,0,1.3334,text_option_1,,0,85,85,53,1
59402f40e9b44100013b1789,63f3cfca20052e4ae7554ebf,6453cd3f07663f6b4ecc61dd,2023-05-04_17h20.59.466,ga_syllabified_check,2022.2.5,Win32,59.70149254,,,,,,,,,,,,,,./stim/p05_syllable_1_paluguato_hit.wav,p05,paluguato,hit,pa-lu-gau-to,pa-lu-gua-to,pa-lu-gu-a-to, ,-0.044194676,-0.278791952,1,0,0,1.6838,text_option_other,pa-lu-gau-to,0,86,86,95,1
59402f40e9b44100013b1789,63f3cfca20052e4ae7554ebf,6453cd3f07663f6b4ecc61dd,2023-05-04_17h20.59.466,ga_syllabified_check,2022.2.5,Win32,59.70149254,,,,,,,,,,,,,,./stim/p07_syllable_1_palufauto_hit.wav,p07,palufauto,hit,pa-lu-fau-to,pa-lu-fau-to,pa-lu-fa-u-to, ,-0.35775168,-0.105906032,1,0,0,1.2675,text_option_1,,0,87,87,162,1
59402f40e9b44100013b1789,63f3cfca20052e4ae7554ebf,6453cd3f07663f6b4ecc61dd,2023-05-04_17h20.59.466,ga_syllabified_check,2022.2.5,Win32,59.70149254,,,,,,,,,,,,,,./stim/p04_syllable_1_palufauto_hit.wav,p04,palufauto,hit,pa-lu-fau-to,pa-lu-fau-to,pa-lu-fa-u-to, ,-0.35775168,-0.105906032,1,0,0,0.467,text_option_1,,0,88,88,60,1
59402f40e9b44100013b1789,63f3cfca20052e4ae7554ebf,6453cd3f07663f6b4ecc61dd,2023-05-04_17h20.59.466,ga_syllabified_check,2022.2.5,Win32,59.70149254,,,,,,,,,,,,,,./stim/p07_syllable_1_lakaduaisto_hit.wav,p07,lakaduaisto,hit,la-ka-duais-to,la-ka-duais-to,la-ka-du-ais-to,la-ka-dua-is-to,-0.35775168,-0.105906032,1,0,0,2.0666,text_option_1,,0,89,89,145,1
59402f40e9b44100013b1789,63f3cfca20052e4ae7554ebf,6453cd3f07663f6b4ecc61dd,2023-05-04_17h20.59.466,ga_syllabified_check,2022.2.5,Win32,59.70149254,,,,,,,,,,,,,,./stim/p08_syllable_1_palumaisto_hit.wav,p08,palumaisto,hit,pa-lu-mais-to,pa-lu-mais-to,pa-lu-ma-is-to, ,-0.35775168,-0.105906032,1,0,0,2.0001,text_option_1,,0,90,90,198,1
59402f40e9b44100013b1789,63f3cfca20052e4ae7554ebf,6453cd3f07663f6b4ecc61dd,2023-05-04_17h20.59.466,ga_syllabified_check,2022.2.5,Win32,59.70149254,,,,,,,,,,,,,,./stim/p05_syllable_1_lliape_hit.wav,p05,lliape,hit,liai-pe,llia-pe,lli-a-pe, ,-0.03023483,-0.288456347,1,0,0,0.9835,text_option_other,llai-pe,0,91,91,88,1
59402f40e9b44100013b1789,63f3cfca20052e4ae7554ebf,6453cd3f07663f6b4ecc61dd,2023-05-04_17h20.59.466,ga_syllabified_check,2022.2.5,Win32,59.70149254,,,,,,,,,,,,,,./stim/p03_syllable_1_lakafuaisto_hit.wav,p03,lakafuaisto,hit,la-ka-fuais-to,la-ka-fuais-to,la-ka-fu-ais-to,la-ka-fua-is-to,-0.38030202,-0.102684533,1,0,0,0.9497,text_option_1,,0,92,92,11,1
59402f40e9b44100013b1789,63f3cfca20052e4ae7554ebf,6453cd3f07663f6b4ecc61dd,2023-05-04_17h20.59.466,ga_syllabified_check,2022.2.5,Win32,59.70149254,,,,,,,,,,,,,,./stim/p08_syllable_1_palufauto_hit.wav,p08,palufauto,hit,pa-lu-fau-to,pa-lu-fau-to,pa-lu-fa-u-to, ,-0.392114114,-0.093020138,1,0,0,45.0683,text_option_1,,0,93,93,196,1
59402f40e9b44100013b1789,63f3cfca20052e4ae7554ebf,6453cd3f07663f6b4ecc61dd,2023-05-04_17h20.59.466,ga_syllabified_check,2022.2.5,Win32,59.70149254,,,,,,,,,,,,,,./stim/p08_syllable_1_lakafiaisto_hit.wav,p08,lakafiaisto,hit,la-ka-fi-as-to,la-ka-fiais-to,la-ka-fi-ais-to,la-ka-fia-is-to,-0.016275188,-0.308859038,1,0,0,3.6047,text_option_other,la-ka-fias-to,0,94,94,180,1
59402f40e9b44100013b1789,63f3cfca20052e4ae7554ebf,6453cd3f07663f6b4ecc61dd,2023-05-04_17h20.59.466,ga_syllabified_check,2022.2.5,Win32,59.70149254,,,,,,,,,,,,,,./stim/p04_syllable_1_lakapiaisto_hit.wav,p04,lakapiaisto,hit,la-ka-piais-to,la-ka-piais-to,la-ka-pi-ais-to,la-ka-pia-is-to,-0.389966465,-0.102684533,1,0,0,1.0842,text_option_1,,0,95,95,50,1
59402f40e9b44100013b1789,63f3cfca20052e4ae7554ebf,6453cd3f07663f6b4ecc61dd,2023-05-04_17h20.59.466,ga_syllabified_check,2022.2.5,Win32,59.70149254,,,,,,,,,,,,,,./stim/p07_syllable_1_paluguato_hit.wav,p07,paluguato,hit,pa-lu-gua-to,pa-lu-gua-to,pa-lu-gu-a-to, ,-0.362046978,-0.112348979,1,0,0,1.7512,text_option_1,,0,96,96,163,1
59402f40e9b44100013b1789,63f3cfca20052e4ae7554ebf,6453cd3f07663f6b4ecc61dd,2023-05-04_17h20.59.466,ga_syllabified_check,2022.2.5,Win32,59.70149254,,,,,,,,,,,,,,./stim/p05_syllable_1_mebochiana_hit.wav,p05,mebochiana,hit,me-cho-chai-na,me-bo-chia-na,me-bo-chi-a-na, ,0.048154383,-0.30134219,1,0,0,2.1462,text_option_other,me-cho-chai-na,0,97,97,90,1
59402f40e9b44100013b1789,63f3cfca20052e4ae7554ebf,6453cd3f07663f6b4ecc61dd,2023-05-04_17h20.59.466,ga_syllabified_check,2022.2.5,Win32,59.70149254,,,,,,,,,,,,,,./stim/p06_syllable_1_rausto_hit.wav,p06,rausto,hit,ra-us-to,raus-to,ra-us-to, ,0.418624161,-0.105906032,1,0,0,4,text_option_2,,0,98,98,133,1
59402f40e9b44100013b1789,63f3cfca20052e4ae7554ebf,6453cd3f07663f6b4ecc61dd,2023-05-04_17h20.59.466,ga_syllabified_check,2022.2.5,Win32,59.70149254,,,,,,,,,,,,,,./stim/p07_syllable_1_faluduako_hit.wav,p07,faluduako,hit,fa-lu-dua-ko,fa-lu-dua-ko,fa-lu-du-a-ko, ,-0.373859073,-0.109127429,1,0,0,22.9177,text_option_1,,0,99,99,138,1
59402f40e9b44100013b1789,63f3cfca20052e4ae7554ebf,6453cd3f07663f6b4ecc61dd,2023-05-04_17h20.59.466,ga_syllabified_check,2022.2.5,Win32,59.70149254,,,,,,,,,,,,,,./stim/p07_syllable_1_falutraigo_hit.wav,p07,falutraigo,hit,fa-lu-trai-go,fa-lu-trai-go,fa-lu-tra-i-go, ,-0.365268477,-0.112348979,1,0,0,1.6689,text_option_1,,0,100,100,140,1
59402f40e9b44100013b1789,63f3cfca20052e4ae7554ebf,6453cd3f07663f6b4ecc61dd,2023-05-04_17h20.59.466,ga_syllabified_check,2022.2.5,Win32,59.70149254,,,,,,,,,,,,,,./stim/p06_syllable_1_pachialo_hit.wav,p06,pachialo,hit,pa-shi-a-lo,pa-chia-lo,pa-chi-a-lo, ,0.372449632,-0.097315436,1,0,0,1.2336,text_option_2,,0,101,101,126,1
59402f40e9b44100013b1789,63f3cfca20052e4ae7554ebf,6453cd3f07663f6b4ecc61dd,2023-05-04_17h20.59.466,ga_syllabified_check,2022.2.5,Win32,59.70149254,,,,,,,,,,,,,,./stim/p06_syllable_1_lakakuaisto_hit.wav,p06,lakakuaisto,hit,la-ka-ku-a-is,la-ka-kuais-to,la-ka-ku-ais-to,la-ka-kua-is-to,0.000905901,-0.298120844,1,0,0,3.499,text_option_other,la-ka-ku-a-is-to,0,102,102,117,1
59402f40e9b44100013b1789,63f3cfca20052e4ae7554ebf,6453cd3f07663f6b4ecc61dd,2023-05-04_17h20.59.466,ga_syllabified_check,2022.2.5,Win32,59.70149254,,,,,,,,,,,,,,./stim/p08_syllable_1_lakagiaisto_hit.wav,p08,lakagiaisto,hit,la-ka-gi-jas-to,la-ka-giais-to,la-ka-gi-ais-to,la-ka-gia-is-to,-0.343792038,-0.111275078,1,0,0,31.1681,text_option_1,,0,103,103,182,1
59402f40e9b44100013b1789,63f3cfca20052e4ae7554ebf,6453cd3f07663f6b4ecc61dd,2023-05-04_17h20.59.466,ga_syllabified_check,2022.2.5,Win32,59.70149254,,,,,,,,,,,,,,./stim/p03_syllable_1_lakaduaisto_hit.wav,p03,lakaduaisto,hit,la-ka-duais-to,la-ka-duais-to,la-ka-du-ais-to,la-ka-dua-is-to,-0.354530232,-0.100536884,1,0,0,1.4881,text_option_1,,0,104,104,9,1
59402f40e9b44100013b1789,63f3cfca20052e4ae7554ebf,6453cd3f07663f6b4ecc61dd,2023-05-04_17h20.59.466,ga_syllabified_check,2022.2.5,Win32,59.70149254,,,,,,,,,,,,,,./stim/p04_syllable_1_lakafiaisto_hit.wav,p04,lakafiaisto,hit,la-ka-fiais-to,la-ka-fiais-to,la-ka-fi-ais-to,la-ka-fia-is-to,-0.35775168,-0.091946288,1,0,0,1.4716,text_option_1,,0,105,105,44,1
59402f40e9b44100013b1789,63f3cfca20052e4ae7554ebf,6453cd3f07663f6b4ecc61dd,2023-05-04_17h20.59.466,ga_syllabified_check,2022.2.5,Win32,59.70149254,,,,,,,,,,,,,,./stim/p03_syllable_1_ruyiola_hit.wav,p03,ruyiola,hit,ru-yio-la,ru-yio-la,ru-yi-o-la, ,-0.38137587,-0.111275078,1,0,0,0.8168,text_option_1,,0,106,106,32,1
59402f40e9b44100013b1789,63f3cfca20052e4ae7554ebf,6453cd3f07663f6b4ecc61dd,2023-05-04_17h20.59.466,ga_syllabified_check,2022.2.5,Win32,59.70149254,,,,,,,,,,,,,,./stim/p06_syllable_1_lakaduaisto_hit.wav,p06,lakaduaisto,hit,la-ka-du-a-is,la-ka-duais-to,la-ka-du-ais-to,la-ka-dua-is-to,-0.004463145,-0.314228237,1,0,0,3.0828,text_option_other,la-ka-du-a-is-to,0,107,107,111,1
59402f40e9b44100013b1789,63f3cfca20052e4ae7554ebf,6453cd3f07663f6b4ecc61dd,2023-05-04_17h20.59.466,ga_syllabified_check,2022.2.5,Win32,59.70149254,,,,,,,,,,,,,,./stim/p04_syllable_1_palutrauco_hit.wav,p04,palutrauco,hit,pa-lu-trau-co,pa-lu-trau-co,pa-lu-tra-u-co, ,-0.424328849,-0.113422829,1,0,0,1.7003,text_option_1,,0,108,108,63,1
59402f40e9b44100013b1789,63f3cfca20052e4ae7554ebf,6453cd3f07663f6b4ecc61dd,2023-05-04_17h20.59.466,ga_syllabified_check,2022.2.5,Win32,59.70149254,,,,,,,,,,,,,,./stim/p03_syllable_1_lakapiaisto_hit.wav,p03,lakapiaisto,hit,la-ka-piais-to,la-ka-piais-to,la-ka-pi-ais-to,la-ka-pia-is-to,-0.402852359,-0.111275078,1,0,0,1.3331,text_option_1,,0,109,109,16,1
59402f40e9b44100013b1789,63f3cfca20052e4ae7554ebf,6453cd3f07663f6b4ecc61dd,2023-05-04_17h20.59.466,ga_syllabified_check,2022.2.5,Win32,59.70149254,,,,,,,,,,,,,,./stim/p07_syllable_1_lakafiaisto_hit.wav,p07,lakafiaisto,hit,la-ka-fiais-to,la-ka-fiais-to,la-ka-fi-ais-to,la-ka-fia-is-to,-0.402852359,-0.111275078,1,0,0,1.45,text_option_1,,0,110,110,146,1
59402f40e9b44100013b1789,63f3cfca20052e4ae7554ebf,6453cd3f07663f6b4ecc61dd,2023-05-04_17h20.59.466,ga_syllabified_check,2022.2.5,Win32,59.70149254,,,,,,,,,,,,,,./stim/p08_syllable_1_mebochiana_hit.wav,p08,mebochiana,hit,me-bo-chi-a-na,me-bo-chia-na,me-bo-chi-a-na, ,0.397147467,-0.103758383,1,0,0,2.5506,text_option_2,,0,111,111,192,1
59402f40e9b44100013b1789,63f3cfca20052e4ae7554ebf,6453cd3f07663f6b4ecc61dd,2023-05-04_17h20.59.466,ga_syllabified_check,2022.2.5,Win32,59.70149254,,,,,,,,,,,,,,./stim/p08_syllable_1_lakabiaisto_hit.wav,p08,lakabiaisto,hit,la-ka-bi-as-to,la-ka-biais-to,la-ka-bi-ais-to,la-ka-bia-is-to,0.052449681,-0.298120844,1,0,0,3.8128,text_option_other,la-ka-bi-as-to,0,112,112,176,1
59402f40e9b44100013b1789,63f3cfca20052e4ae7554ebf,6453cd3f07663f6b4ecc61dd,2023-05-04_17h20.59.466,ga_syllabified_check,2022.2.5,Win32,59.70149254,,,,,,,,,,,,,,./stim/p05_syllable_1_lakabuaisto_hit.wav,p05,lakabuaisto,hit,la-ka-buais-to,la-ka-buais-to,la-ka-bu-ais-to,la-ka-bua-is-to,-0.374932974,-0.109127429,1,0,0,1.3334,text_option_1,,0,113,113,75,1
59402f40e9b44100013b1789,63f3cfca20052e4ae7554ebf,6453cd3f07663f6b4ecc61dd,2023-05-04_17h20.59.466,ga_syllabified_check,2022.2.5,Win32,59.70149254,,,,,,,,,,,,,,./stim/p04_syllable_1_ruyiola_hit.wav,p04,ruyiola,hit,ru-yio-la,ru-yio-la,ru-yi-o-la, ,-0.374932974,-0.109127429,1,0,0,1.1335,text_option_1,,0,114,114,66,1
59402f40e9b44100013b1789,63f3cfca20052e4ae7554ebf,6453cd3f07663f6b4ecc61dd,2023-05-04_17h20.59.466,ga_syllabified_check,2022.2.5,Win32,59.70149254,,,,,,,,,,,,,,./stim/p06_syllable_1_mebochiana_hit.wav,p06,mebochiana,hit,me-bo-shi-a-na,me-bo-chia-na,me-bo-chi-a-na, ,0.432583905,-0.086577191,1,0,0,2.554,text_option_2,,0,115,115,124,1
59402f40e9b44100013b1789,63f3cfca20052e4ae7554ebf,6453cd3f07663f6b4ecc61dd,2023-05-04_17h20.59.466,ga_syllabified_check,2022.2.5,Win32,59.70149254,,,,,,,,,,,,,,./stim/p05_syllable_1_palumaisto_hit.wav,p05,palumaisto,hit,pa-lu-mais-to,pa-lu-mais-to,pa-lu-ma-is-to, ,-0.362046978,-0.117718127,1,0,0,1.0828,text_option_1,,0,116,116,96,1
59402f40e9b44100013b1789,63f3cfca20052e4ae7554ebf,6453cd3f07663f6b4ecc61dd,2023-05-04_17h20.59.466,ga_syllabified_check,2022.2.5,Win32,59.70149254,,,,,,,,,,,,,,./stim/p07_syllable_1_palumaisto_hit.wav,p07,palumaisto,hit,pa-lu-mais-to,pa-lu-mais-to,pa-lu-ma-is-to, ,-0.371711424,-0.116644277,1,0,0,1.8169,text_option_1,,0,117,117,164,1
59402f40e9b44100013b1789,63f3cfca20052e4ae7554ebf,6453cd3f07663f6b4ecc61dd,2023-05-04_17h20.59.466,ga_syllabified_check,2022.2.5,Win32,59.70149254,,,,,,,,,,,,,,./stim/p04_syllable_1_lakabuaisto_hit.wav,p04,lakabuaisto,hit,la-ka-buais-to,la-ka-buais-to,la-ka-bu-ais-to,la-ka-bua-is-to,-0.371711424,-0.116644277,1,0,0,0.8836,text_option_1,,0,118,118,41,1
59402f40e9b44100013b1789,63f3cfca20052e4ae7554ebf,6453cd3f07663f6b4ecc61dd,2023-05-04_17h20.59.466,ga_syllabified_check,2022.2.5,Win32,59.70149254,,,,,,,,,,,,,,./stim/p03_syllable_1_tuliafo_hit.wav,p03,tuliafo,hit,tu-lia-fo,tu-lia-fo,tu-li-a-fo, ,-0.371711424,-0.116644277,1,0,0,0.6999,text_option_1,,0,119,119,33,1
59402f40e9b44100013b1789,63f3cfca20052e4ae7554ebf,6453cd3f07663f6b4ecc61dd,2023-05-04_17h20.59.466,ga_syllabified_check,2022.2.5,Win32,59.70149254,,,,,,,,,,,,,,./stim/p04_syllable_1_mebochiana_hit.wav,p04,mebochiana,hit,me-bo-chia-na,me-bo-chia-na,me-bo-chi-a-na, ,-0.347013435,-0.111275078,1,0,0,1.2501,text_option_1,,0,120,120,56,1
59402f40e9b44100013b1789,63f3cfca20052e4ae7554ebf,6453cd3f07663f6b4ecc61dd,2023-05-04_17h20.59.466,ga_syllabified_check,2022.2.5,Win32,59.70149254,,,,,,,,,,,,,,./stim/p07_syllable_1_chiaba_hit.wav,p07,chiaba,hit,chia-ba,chia-ba,chi-a-ba, ,-0.347013435,-0.111275078,1,0,0,0.75,text_option_1,,0,121,121,136,1
59402f40e9b44100013b1789,63f3cfca20052e4ae7554ebf,6453cd3f07663f6b4ecc61dd,2023-05-04_17h20.59.466,ga_syllabified_check,2022.2.5,Win32,59.70149254,,,,,,,,,,,,,,./stim/p06_syllable_1_lakakiaisto_hit.wav,p06,lakakiaisto,hit,la-ka-kia-is-to,la-ka-kiais-to,la-ka-ki-ais-to,la-ka-kia-is-to,0.061040277,-0.10697978,1,0,0,4.5167,text_option_3,,0,122,122,116,1
59402f40e9b44100013b1789,63f3cfca20052e4ae7554ebf,6453cd3f07663f6b4ecc61dd,2023-05-04_17h20.59.466,ga_syllabified_check,2022.2.5,Win32,59.70149254,,,,,,,,,,,,,,./stim/p07_syllable_1_lakaguaisto_hit.wav,p07,lakaguaisto,hit,la-ka-guais-to,la-ka-guais-to,la-ka-gu-ais-to,la-ka-gua-is-to,-0.376006722,-0.101610734,1,0,0,0.9842,text_option_1,,0,123,123,149,1
59402f40e9b44100013b1789,63f3cfca20052e4ae7554ebf,6453cd3f07663f6b4ecc61dd,2023-05-04_17h20.59.466,ga_syllabified_check,2022.2.5,Win32,59.70149254,,,,,,,,,,,,,,./stim/p06_syllable_1_lakafuaisto_hit.wav,p06,lakafuaisto,hit,la-ka-fu-a-is,la-ka-fuais-to,la-ka-fu-ais-to,la-ka-fua-is-to,0.069630872,-0.113422829,1,0,0,4.0033,text_option_3,,0,124,124,113,1
59402f40e9b44100013b1789,63f3cfca20052e4ae7554ebf,6453cd3f07663f6b4ecc61dd,2023-05-04_17h20.59.466,ga_syllabified_check,2022.2.5,Win32,59.70149254,,,,,,,,,,,,,,./stim/p04_syllable_1_tuliafo_hit.wav,p04,tuliafo,hit,tu-lia-fo,tu-lia-fo,tu-li-a-fo, ,-0.38030202,-0.095167787,1,0,0,0.5833,text_option_1,,0,125,125,67,1
59402f40e9b44100013b1789,63f3cfca20052e4ae7554ebf,6453cd3f07663f6b4ecc61dd,2023-05-04_17h20.59.466,ga_syllabified_check,2022.2.5,Win32,59.70149254,,,,,,,,,,,,,,./stim/p04_syllable_1_lakapuaisto_hit.wav,p04,lakapuaisto,hit,la-ka-puais-to,la-ka-puais-to,la-ka-pu-ais-to,la-ka-pua-is-to,-0.344865786,-0.095167787,1,0,0,0.7332,text_option_1,,0,126,126,51,1
59402f40e9b44100013b1789,63f3cfca20052e4ae7554ebf,6453cd3f07663f6b4ecc61dd,2023-05-04_17h20.59.466,ga_syllabified_check,2022.2.5,Win32,59.70149254,,,,,,,,,,,,,,./stim/p03_syllable_1_palufauto_hit.wav,p03,palufauto,hit,pa-lu-fau,pa-lu-fau-to,pa-lu-fa-u-to, ,-0.344865786,-0.095167787,1,0,0,0.75,text_option_1,,0,127,127,26,1
59402f40e9b44100013b1789,63f3cfca20052e4ae7554ebf,6453cd3f07663f6b4ecc61dd,2023-05-04_17h20.59.466,ga_syllabified_check,2022.2.5,Win32,59.70149254,,,,,,,,,,,,,,./stim/p04_syllable_1_payielo_hit.wav,p04,payielo,hit,pa-yie-lo,pa-yie-lo,pa-yi-e-lo, ,-0.344865786,-0.095167787,1,0,0,0.5502,text_option_1,,0,128,128,64,1
59402f40e9b44100013b1789,63f3cfca20052e4ae7554ebf,6453cd3f07663f6b4ecc61dd,2023-05-04_17h20.59.466,ga_syllabified_check,2022.2.5,Win32,59.70149254,,,,,,,,,,,,,,./stim/p03_syllable_1_lakafiaisto_hit.wav,p03,lakafiaisto,hit,la-ka-fiais-to,la-ka-fiais-to,la-ka-fi-ais-to,la-ka-fia-is-to,-0.344865786,-0.095167787,1,0,0,1.05,text_option_1,,0,129,129,10,1
59402f40e9b44100013b1789,63f3cfca20052e4ae7554ebf,6453cd3f07663f6b4ecc61dd,2023-05-04_17h20.59.466,ga_syllabified_check,2022.2.5,Win32,59.70149254,,,,,,,,,,,,,,./stim/p04_syllable_1_lakakuaisto_hit.wav,p04,lakakuaisto,hit,la-ka-kuais-to,la-ka-kuais-to,la-ka-ku-ais-to,la-ka-kua-is-to,-0.344865786,-0.095167787,1,0,0,0.8666,text_option_1,,0,130,130,49,1
59402f40e9b44100013b1789,63f3cfca20052e4ae7554ebf,6453cd3f07663f6b4ecc61dd,2023-05-04_17h20.59.466,ga_syllabified_check,2022.2.5,Win32,59.70149254,,,,,,,,,,,,,,./stim/p08_syllable_1_palutrauco_hit.wav,p08,palutrauco,hit,pa-lu-trau-ko,pa-lu-trau-co,pa-lu-tra-u-co, ,-0.344865786,-0.095167787,1,0,0,2.317,text_option_1,,0,131,131,199,1
59402f40e9b44100013b1789,63f3cfca20052e4ae7554ebf,6453cd3f07663f6b4ecc61dd,2023-05-04_17h20.59.466,ga_syllabified_check,2022.2.5,Win32,59.70149254,,,,,,,,,,,,,,./stim/p06_syllable_1_lakapiaisto_hit.wav,p06,lakapiaisto,hit,la-ka-pia-is-to,la-ka-piais-to,la-ka-pi-ais-to,la-ka-pia-is-to,0.026677791,-0.090872489,1,0,0,4.6502,text_option_3,,0,132,132,118,1
59402f40e9b44100013b1789,63f3cfca20052e4ae7554ebf,6453cd3f07663f6b4ecc61dd,2023-05-04_17h20.59.466,ga_syllabified_check,2022.2.5,Win32,59.70149254,,,,,,,,,,,,,,./stim/p06_syllable_1_ruyiola_hit.wav,p06,ruyiola,hit,ru-yi-o-la,ru-yio-la,ru-yi-o-la, ,0.442248146,-0.102684533,1,0,0,1.2669,text_option_2,,0,133,133,134,1
59402f40e9b44100013b1789,63f3cfca20052e4ae7554ebf,6453cd3f07663f6b4ecc61dd,2023-05-04_17h20.59.466,ga_syllabified_check,2022.2.5,Win32,59.70149254,,,,,,,,,,,,,,./stim/p08_syllable_1_nhiape_hit.wav,p08,ñiape,hit,ni-a-pe,ñia-pe,ñi-a-pe, ,-0.414664454,-0.109127429,1,0,0,0.8995,text_option_1,,0,134,134,193,1
59402f40e9b44100013b1789,63f3cfca20052e4ae7554ebf,6453cd3f07663f6b4ecc61dd,2023-05-04_17h20.59.466,ga_syllabified_check,2022.2.5,Win32,59.70149254,,,,,,,,,,,,,,./stim/p04_syllable_1_chiaba_hit.wav,p04,chiaba,hit,chia-ba,chia-ba,chi-a-ba, ,-0.414664454,-0.109127429,1,0,0,0.3669,text_option_1,,0,135,135,34,1
59402f40e9b44100013b1789,63f3cfca20052e4ae7554ebf,6453cd3f07663f6b4ecc61dd,2023-05-04_17h20.59.466,ga_syllabified_check,2022.2.5,Win32,59.70149254,,,,,,,,,,,,,,./stim/p05_syllable_1_costonhialo_hit.wav,p05,costoñialo,hit,cos-to-nhia-lo,cos-to-ñia-lo,cos-to-ñi-a-lo, ,-0.414664454,-0.109127429,1,0,0,0.8668,text_option_1,,0,136,136,69,1
59402f40e9b44100013b1789,63f3cfca20052e4ae7554ebf,6453cd3f07663f6b4ecc61dd,2023-05-04_17h20.59.466,ga_syllabified_check,2022.2.5,Win32,59.70149254,,,,,,,,,,,,,,./stim/p06_syllable_1_palumaisto_hit.wav,p06,palumaisto,hit,pa-lu-ma-is-to,pa-lu-mais-to,pa-lu-ma-is-to, ,0.414328863,-0.111275078,1,0,0,2.234,text_option_2,,0,137,137,130,1
59402f40e9b44100013b1789,63f3cfca20052e4ae7554ebf,6453cd3f07663f6b4ecc61dd,2023-05-04_17h20.59.466,ga_syllabified_check,2022.2.5,Win32,59.70149254,,,,,,,,,,,,,,./stim/p05_syllable_1_palufauro_hit.wav,p05,palufauro,hit,pa-lu-fau-ro,pa-lu-fau-ro,pa-lu-fa-u-ro, ,-0.360973179,-0.105906032,1,0,0,0.8497,text_option_1,,0,138,138,93,1
59402f40e9b44100013b1789,63f3cfca20052e4ae7554ebf,6453cd3f07663f6b4ecc61dd,2023-05-04_17h20.59.466,ga_syllabified_check,2022.2.5,Win32,59.70149254,,,,,,,,,,,,,,./stim/p07_syllable_1_lakatiaisto_hit.wav,p07,lakatiaisto,hit,la-ka-tiai-sto,la-ka-tiais-to,la-ka-ti-ais-to,la-ka-tia-is-to,0.015939597,-0.308859038,1,0,0,3.7838,text_option_other,la-ka-tiai-s-to,0,139,139,154,1
59402f40e9b44100013b1789,63f3cfca20052e4ae7554ebf,6453cd3f07663f6b4ecc61dd,2023-05-04_17h20.59.466,ga_syllabified_check,2022.2.5,Win32,59.70149254,,,,,,,,,,,,,,./stim/p08_syllable_1_paluguato_hit.wav,p08,paluguato,hit,pa-lu-gua-to,pa-lu-gua-to,pa-lu-gu-a-to, ,-0.33627519,-0.10697978,1,0,0,1.2669,text_option_1,,0,140,140,197,1
59402f40e9b44100013b1789,63f3cfca20052e4ae7554ebf,6453cd3f07663f6b4ecc61dd,2023-05-04_17h20.59.466,ga_syllabified_check,2022.2.5,Win32,59.70149254,,,,,,,,,,,,,,./stim/p05_syllable_1_ruyiola_hit.wav,p05,ruyiola,hit,ru-yio-la,ru-yio-la,ru-yi-o-la, ,-0.38137587,-0.10697978,1,0,0,0.4225,text_option_1,,0,141,141,100,1
59402f40e9b44100013b1789,63f3cfca20052e4ae7554ebf,6453cd3f07663f6b4ecc61dd,2023-05-04_17h20.59.466,ga_syllabified_check,2022.2.5,Win32,59.70149254,,,,,,,,,,,,,,./stim/p08_syllable_1_costonhialo_hit.wav,p08,costoñialo,hit,cos-to-nhia-lo,cos-to-ñia-lo,cos-to-ñi-a-lo, ,-0.38137587,-0.10697978,1,0,0,1.2837,text_option_1,,0,142,142,171,1
59402f40e9b44100013b1789,63f3cfca20052e4ae7554ebf,6453cd3f07663f6b4ecc61dd,2023-05-04_17h20.59.466,ga_syllabified_check,2022.2.5,Win32,59.70149254,,,,,,,,,,,,,,./stim/p07_syllable_1_lakatuaisto_hit.wav,p07,lakatuaisto,hit,la-ka-tuais-to,la-ka-tuais-to,la-ka-tu-ais-to,la-ka-tua-is-to,-0.38137587,-0.10697978,1,0,0,1.9833,text_option_1,,0,143,143,155,1
59402f40e9b44100013b1789,63f3cfca20052e4ae7554ebf,6453cd3f07663f6b4ecc61dd,2023-05-04_17h20.59.466,ga_syllabified_check,2022.2.5,Win32,59.70149254,,,,,,,,,,,,,,./stim/p04_syllable_1_lakatiaisto_hit.wav,p04,lakatiaisto,hit,la-ka-kiais-to,la-ka-tiais-to,la-ka-ti-ais-to,la-ka-tia-is-to,-0.38137587,-0.10697978,1,0,0,0.9667,text_option_1,,0,144,144,52,1
59402f40e9b44100013b1789,63f3cfca20052e4ae7554ebf,6453cd3f07663f6b4ecc61dd,2023-05-04_17h20.59.466,ga_syllabified_check,2022.2.5,Win32,59.70149254,,,,,,,,,,,,,,./stim/p08_syllable_1_payielo_hit.wav,p08,payielo,hit,pa-yie-lo,pa-yie-lo,pa-yi-e-lo, ,-0.414664454,-0.097315436,1,0,0,1.1,text_option_1,,0,145,145,200,1
59402f40e9b44100013b1789,63f3cfca20052e4ae7554ebf,6453cd3f07663f6b4ecc61dd,2023-05-04_17h20.59.466,ga_syllabified_check,2022.2.5,Win32,59.70149254,,,,,,,,,,,,,,./stim/p07_syllable_1_lakadiaisto_hit.wav,p07,lakadiaisto,hit,la-ka-dia-is-to,la-ka-diais-to,la-ka-di-ais-to,la-ka-dia-is-to,0.009496599,-0.098389235,1,0,0,2.0835,text_option_3,,0,146,146,144,1
59402f40e9b44100013b1789,63f3cfca20052e4ae7554ebf,6453cd3f07663f6b4ecc61dd,2023-05-04_17h20.59.466,ga_syllabified_check,2022.2.5,Win32,59.70149254,,,,,,,,,,,,,,./stim/p08_syllable_1_pachialo_hit.wav,p08,pachialo,hit,pa-chi-ja-lo,pa-chia-lo,pa-chi-a-lo, ,0.428288709,-0.108053681,1,0,0,1.1666,text_option_2,,0,147,147,194,1
59402f40e9b44100013b1789,63f3cfca20052e4ae7554ebf,6453cd3f07663f6b4ecc61dd,2023-05-04_17h20.59.466,ga_syllabified_check,2022.2.5,Win32,59.70149254,,,,,,,,,,,,,,./stim/p03_syllable_1_lakakuaisto_hit.wav,p03,lakakuaisto,hit,la-ka-kuais-to,la-ka-kuais-to,la-ka-ku-ais-to,la-ka-kua-is-to,-0.330905991,-0.08872484,1,0,0,2.0166,text_option_1,,0,148,148,15,1
59402f40e9b44100013b1789,63f3cfca20052e4ae7554ebf,6453cd3f07663f6b4ecc61dd,2023-05-04_17h20.59.466,ga_syllabified_check,2022.2.5,Win32,59.70149254,,,,,,,,,,,,,,./stim/p07_syllable_1_manhiala_hit.wav,p07,mañiala,hit,ma-nhia-la,ma-ñia-la,ma-ñi-a-la, ,-0.368013586,-0.085670614,1,0,0,3.2832,text_option_1,,0,149,149,157,1
59402f40e9b44100013b1789,63f3cfca20052e4ae7554ebf,6453cd3f07663f6b4ecc61dd,2023-05-04_17h20.59.466,ga_syllabified_check,2022.2.5,Win32,59.70149254,,,,,,,,,,,,,,./stim/p05_syllable_1_lakapuaisto_hit.wav,p05,lakapuaisto,hit,la-ka-pais-to,la-ka-puais-to,la-ka-pu-ais-to,la-ka-pua-is-to,0.041629863,-0.288862452,1,0,0,2.6505,text_option_other,la-ka-pais-to,0,150,150,85,1
59402f40e9b44100013b1789,63f3cfca20052e4ae7554ebf,6453cd3f07663f6b4ecc61dd,2023-05-04_17h20.59.466,ga_syllabified_check,2022.2.5,Win32,59.70149254,,,,,,,,,,,,,,./stim/p07_syllable_1_falufaisto_hit.wav,p07,falufaisto,hit,fa-lu-fais-to,fa-lu-fais-to,fa-lu-fa-is-to, ,-0.314770801,-0.10740229,1,0,0,4.7166,text_option_1,,0,151,151,139,1
59402f40e9b44100013b1789,63f3cfca20052e4ae7554ebf,6453cd3f07663f6b4ecc61dd,2023-05-04_17h20.59.466,ga_syllabified_check,2022.2.5,Win32,59.70149254,,,,,,,,,,,,,,./stim/p06_syllable_1_lakafiaisto_hit.wav,p06,lakafiaisto,hit,la-ka-fia-is-to,la-ka-fiais-to,la-ka-fi-ais-to,la-ka-fia-is-to,0.053582339,-0.099796315,1,0,0,4.7002,text_option_3,,0,152,152,112,1
59402f40e9b44100013b1789,63f3cfca20052e4ae7554ebf,6453cd3f07663f6b4ecc61dd,2023-05-04_17h20.59.466,ga_syllabified_check,2022.2.5,Win32,59.70149254,,,,,,,,,,,,,,./stim/p08_syllable_1_lliape_hit.wav,p08,lliape,hit,li-a-pe,llia-pe,lli-a-pe, ,-0.377792877,-0.10740229,1,0,0,1.5168,text_option_1,,0,153,153,190,1
59402f40e9b44100013b1789,63f3cfca20052e4ae7554ebf,6453cd3f07663f6b4ecc61dd,2023-05-04_17h20.59.466,ga_syllabified_check,2022.2.5,Win32,59.70149254,,,,,,,,,,,,,,./stim/p05_syllable_1_lakabiaisto_hit.wav,p05,lakabiaisto,hit,la-ka-bi-ais-to,la-ka-biais-to,la-ka-bi-ais-to,la-ka-bia-is-to,-0.385398981,-0.095449917,1,0,0,2.5334,text_option_1,,0,154,154,74,1
59402f40e9b44100013b1789,63f3cfca20052e4ae7554ebf,6453cd3f07663f6b4ecc61dd,2023-05-04_17h20.59.466,ga_syllabified_check,2022.2.5,Win32,59.70149254,,,,,,,,,,,,,,./stim/p05_syllable_1_tuliafo_hit.wav,p05,tuliafo,hit,tu-lai-fo,tu-lia-fo,tu-li-a-fo, ,-0.027911719,-0.296468583,1,0,0,2.8334,text_option_other,tu-lai-fo,0,155,155,101,1
59402f40e9b44100013b1789,63f3cfca20052e4ae7554ebf,6453cd3f07663f6b4ecc61dd,2023-05-04_17h20.59.466,ga_syllabified_check,2022.2.5,Win32,59.70149254,,,,,,,,,,,,,,./stim/p05_syllable_1_lakakiaisto_hit.wav,p05,lakakiaisto,hit,la-ka-ki-ais-to,la-ka-kiais-to,la-ka-ki-ais-to,la-ka-kia-is-to,-0.327809837,-0.09762309,1,0,0,2.1502,text_option_1,,0,156,156,82,1
59402f40e9b44100013b1789,63f3cfca20052e4ae7554ebf,6453cd3f07663f6b4ecc61dd,2023-05-04_17h20.59.466,ga_syllabified_check,2022.2.5,Win32,59.70149254,,,,,,,,,,,,,,./stim/p07_syllable_1_lakakiaisto_hit.wav,p07,lakakiaisto,hit,la-ka-kais-to,la-ka-kiais-to,la-ka-ki-ais-to,la-ka-kia-is-to,0.088353052,-0.291035625,1,0,0,2.818,text_option_other,la-ka-kais-to,0,157,157,150,1
59402f40e9b44100013b1789,63f3cfca20052e4ae7554ebf,6453cd3f07663f6b4ecc61dd,2023-05-04_17h20.59.466,ga_syllabified_check,2022.2.5,Win32,59.70149254,,,,,,,,,,,,,,./stim/p05_syllable_1_lakagiaisto_hit.wav,p05,lakagiaisto,hit,la-ka-ki-ais-to,la-ka-giais-to,la-ka-gi-ais-to,la-ka-gia-is-to,-0.323463505,-0.115008472,1,0,0,8.3847,text_option_1,,0,158,158,80,1
59402f40e9b44100013b1789,63f3cfca20052e4ae7554ebf,6453cd3f07663f6b4ecc61dd,2023-05-04_17h20.59.466,ga_syllabified_check,2022.2.5,Win32,59.70149254,,,,,,,,,,,,,,./stim/p06_syllable_1_falutraigo_hit.wav,p06,falutraigo,hit,fa-lu-tra-i-go,fa-lu-trai-go,fa-lu-tra-i-go, ,0.374125612,-0.104142608,1,0,0,3.7008,text_option_2,,0,159,159,106,1
59402f40e9b44100013b1789,63f3cfca20052e4ae7554ebf,6453cd3f07663f6b4ecc61dd,2023-05-04_17h20.59.466,ga_syllabified_check,2022.2.5,Win32,59.70149254,,,,,,,,,,,,,,./stim/p08_syllable_1_lakaguaisto_hit.wav,p08,lakaguaisto,hit,la-ka-gu-ais-to,la-ka-guais-to,la-ka-gu-ais-to,la-ka-gua-is-to,-0.006179991,-0.101969436,1,0,0,4.2669,text_option_3,,0,160,160,183,1
59402f40e9b44100013b1789,63f3cfca20052e4ae7554ebf,6453cd3f07663f6b4ecc61dd,2023-05-04_17h20.59.466,ga_syllabified_check,2022.2.5,Win32,59.70149254,,,,,,,,,,,,,,./stim/p06_syllable_1_lakabuaisto_hit.wav,p06,lakabuaisto,hit,la-ka-bu-a-is,la-ka-buais-to,la-ka-bu-ais-to,la-ka-bua-is-to,0.373038999,-0.088930399,1,0,0,6.0011,text_option_2,,0,161,161,109,1
59402f40e9b44100013b1789,63f3cfca20052e4ae7554ebf,6453cd3f07663f6b4ecc61dd,2023-05-04_17h20.59.466,ga_syllabified_check,2022.2.5,Win32,59.70149254,,,,,,,,,,,,,,./stim/p06_syllable_1_flauro_hit.wav,p06,flauro,hit,fla-u-ro,flau-ro,fla-u-ro, ,0.41867568,-0.101969436,1,0,0,0.9832,text_option_2,,0,162,162,107,1
59402f40e9b44100013b1789,63f3cfca20052e4ae7554ebf,6453cd3f07663f6b4ecc61dd,2023-05-04_17h20.59.466,ga_syllabified_check,2022.2.5,Win32,59.70149254,,,,,,,,,,,,,,./stim/p06_syllable_1_lliape_hit.wav,p06,lliape,hit,lli-lla-pe,llia-pe,lli-a-pe, ,0.41541605,-0.109575514,1,0,0,2.5501,text_option_2,,0,163,163,122,1
59402f40e9b44100013b1789,63f3cfca20052e4ae7554ebf,6453cd3f07663f6b4ecc61dd,2023-05-04_17h20.59.466,ga_syllabified_check,2022.2.5,Win32,59.70149254,,,,,,,,,,,,,,./stim/p05_syllable_1_faluduako_hit.wav,p05,faluduako,hit,fa-lu-ba-ko,fa-lu-dua-ko,fa-lu-du-a-ko, ,0.088353052,-0.297555091,1,0,0,4.0341,text_option_other,fa-lu-fa-ko,0,164,164,70,1
59402f40e9b44100013b1789,63f3cfca20052e4ae7554ebf,6453cd3f07663f6b4ecc61dd,2023-05-04_17h20.59.466,ga_syllabified_check,2022.2.5,Win32,59.70149254,,,,,,,,,,,,,,./stim/p03_syllable_1_falutraigo_hit.wav,p03,falutraigo,hit,fa-lu-trai-go,fa-lu-trai-go,fa-lu-tra-i-go, ,-0.382139222,-0.091103572,1,0,0,1.2999,text_option_1,,0,165,165,4,1
59402f40e9b44100013b1789,63f3cfca20052e4ae7554ebf,6453cd3f07663f6b4ecc61dd,2023-05-04_17h20.59.466,ga_syllabified_check,2022.2.5,Win32,59.70149254,,,,,,,,,,,,,,./stim/p05_syllable_1_chiaba_hit.wav,p05,chiaba,hit,chia-ba,chia-ba,chi-a-ba, ,0.030763999,-0.293208746,1,0,0,1.9504,text_option_other,chai-ba,0,166,166,68,1
59402f40e9b44100013b1789,63f3cfca20052e4ae7554ebf,6453cd3f07663f6b4ecc61dd,2023-05-04_17h20.59.466,ga_syllabified_check,2022.2.5,Win32,59.70149254,,,,,,,,,,,,,,./stim/p05_syllable_1_payielo_hit.wav,p05,payielo,hit,pai-yu-we-lo,pa-yie-lo,pa-yi-e-lo, ,0.02315792,-0.282342933,1,0,0,1.4671,text_option_other,pa-yue-lo,0,167,167,98,1
59402f40e9b44100013b1789,63f3cfca20052e4ae7554ebf,6453cd3f07663f6b4ecc61dd,2023-05-04_17h20.59.466,ga_syllabified_check,2022.2.5,Win32,59.70149254,,,,,,,,,,,,,,./stim/p06_syllable_1_lakaguaisto_hit.wav,p06,lakaguaisto,hit,la-ka-gu-a-is,la-ka-guais-to,la-ka-gu-ais-to,la-ka-gua-is-to,0.051409166,-0.297555091,1,0,0,4.6501,text_option_other,la-ka-gu-a-is-to,0,168,168,115,1
59402f40e9b44100013b1789,63f3cfca20052e4ae7554ebf,6453cd3f07663f6b4ecc61dd,2023-05-04_17h20.59.466,ga_syllabified_check,2022.2.5,Win32,59.70149254,,,,,,,,,,,,,,./stim/p07_syllable_1_tuliafo_hit.wav,p07,tuliafo,hit,tu-lia-fo,tu-lia-fo,tu-li-a-fo, ,-0.374533104,-0.096536478,1,0,0,5.0002,text_option_1,,0,169,169,169,1
59402f40e9b44100013b1789,63f3cfca20052e4ae7554ebf,6453cd3f07663f6b4ecc61dd,2023-05-04_17h20.59.466,ga_syllabified_check,2022.2.5,Win32,59.70149254,,,,,,,,,,,,,,./stim/p07_syllable_1_lakagiaisto_hit.wav,p07,lakagiaisto,hit,la-ka-gais-to,la-ka-giais-to,la-ka-gi-ais-to,la-ka-gia-is-to,0.04706282,-0.283429546,1,0,0,2.201,text_option_other,la-ka-gais-to,0,170,170,148,1
59402f40e9b44100013b1789,63f3cfca20052e4ae7554ebf,6453cd3f07663f6b4ecc61dd,2023-05-04_17h20.59.466,ga_syllabified_check,2022.2.5,Win32,59.70149254,,,,,,,,,,,,,,./stim/p03_syllable_1_lakaguaisto_hit.wav,p03,lakaguaisto,hit,la-ka-guais-to,la-ka-guais-to,la-ka-gu-ais-to,la-ka-gua-is-to,-0.361494081,-0.085670614,1,0,0,2.0666,text_option_1,,0,171,171,13,1
59402f40e9b44100013b1789,63f3cfca20052e4ae7554ebf,6453cd3f07663f6b4ecc61dd,2023-05-04_17h20.59.466,ga_syllabified_check,2022.2.5,Win32,59.70149254,,,,,,,,,,,,,,./stim/p07_syllable_1_costonhialo_hit.wav,p07,costoñialo,hit,cos-to-nhia-lo,cos-to-ñia-lo,cos-to-ñi-a-lo, ,-0.379966049,-0.081324268,1,0,0,4.4169,text_option_1,,0,172,172,137,1
59402f40e9b44100013b1789,63f3cfca20052e4ae7554ebf,6453cd3f07663f6b4ecc61dd,2023-05-04_17h20.59.466,ga_syllabified_check,2022.2.5,Win32,59.70149254,,,,,,,,,,,,,,./stim/p07_syllable_1_rausto_hit.wav,p07,rausto,hit,raus-to,raus-to,ra-us-to, ,-0.366927,-0.086757226,1,0,0,1.1168,text_option_1,,0,173,173,167,1
59402f40e9b44100013b1789,63f3cfca20052e4ae7554ebf,6453cd3f07663f6b4ecc61dd,2023-05-04_17h20.59.466,ga_syllabified_check,2022.2.5,Win32,59.70149254,,,,,,,,,,,,,,./stim/p04_syllable_1_manhiala_hit.wav,p04,mañiala,hit,ma-nhia-la,ma-ñia-la,ma-ñi-a-la, ,-0.400611204,-0.088930399,1,0,0,1.2853,text_option_1,,0,174,174,55,1
59402f40e9b44100013b1789,63f3cfca20052e4ae7554ebf,6453cd3f07663f6b4ecc61dd,2023-05-04_17h20.59.466,ga_syllabified_check,2022.2.5,Win32,59.70149254,,,,,,,,,,,,,,./stim/p04_syllable_1_palufauro_hit.wav,p04,palufauro,hit,pa-lu-fau-ro,pa-lu-fau-ro,pa-lu-fa-u-ro, ,-0.382139222,-0.107402342,1,0,0,3.1514,text_option_1,,0,175,175,59,1
59402f40e9b44100013b1789,63f3cfca20052e4ae7554ebf,6453cd3f07663f6b4ecc61dd,2023-05-04_17h20.59.466,ga_syllabified_check,2022.2.5,Win32,59.70149254,,,,,,,,,,,,,,./stim/p07_syllable_1_palufauro_hit.wav,p07,palufauro,hit,pa-lu-fau-ro,pa-lu-fau-ro,pa-lu-fa-u-ro, ,-0.327809837,-0.093276744,1,0,0,3.2508,text_option_1,,0,176,176,161,1
59402f40e9b44100013b1789,63f3cfca20052e4ae7554ebf,6453cd3f07663f6b4ecc61dd,2023-05-04_17h20.59.466,ga_syllabified_check,2022.2.5,Win32,59.70149254,,,,,,,,,,,,,,./stim/p05_syllable_1_rausto_hit.wav,p05,rausto,hit,raus-to,raus-to,ra-us-to, ,-0.398438031,-0.101969436,1,0,0,1.0677,text_option_1,,0,177,177,99,1
59402f40e9b44100013b1789,63f3cfca20052e4ae7554ebf,6453cd3f07663f6b4ecc61dd,2023-05-04_17h20.59.466,ga_syllabified_check,2022.2.5,Win32,59.70149254,,,,,,,,,,,,,,./stim/p08_syllable_1_chiaba_hit.wav,p08,chiaba,hit,chi-a-ba,chia-ba,chi-a-ba, ,-0.402784377,-0.111748791,1,0,0,4.5501,text_option_1,,0,178,178,170,1
59402f40e9b44100013b1789,63f3cfca20052e4ae7554ebf,6453cd3f07663f6b4ecc61dd,2023-05-04_17h20.59.466,ga_syllabified_check,2022.2.5,Win32,59.70149254,,,,,,,,,,,,,,./stim/p08_syllable_1_tuliafo_hit.wav,p08,tuliafo,hit,tu-li-a-fo,tu-lia-fo,tu-li-a-fo, ,0.411069601,-0.088930399,1,0,0,1.1844,text_option_2,,0,179,179,203,1
59402f40e9b44100013b1789,63f3cfca20052e4ae7554ebf,6453cd3f07663f6b4ecc61dd,2023-05-04_17h20.59.466,ga_syllabified_check,2022.2.5,Win32,59.70149254,,,,,,,,,,,,,,./stim/p08_syllable_1_faluduako_hit.wav,p08,faluduako,hit,fa-lu-duai-ko,fa-lu-dua-ko,fa-lu-du-a-ko, ,0.054668899,-0.306247834,1,0,0,4.4834,text_option_other,fa-lu-duai-ko,0,180,180,172,1
59402f40e9b44100013b1789,63f3cfca20052e4ae7554ebf,6453cd3f07663f6b4ecc61dd,2023-05-04_17h20.59.466,ga_syllabified_check,2022.2.5,Win32,59.70149254,,,,,,,,,,,,,,./stim/p08_syllable_1_falutraigo_hit.wav,p08,falutraigo,hit,fa-lu-trai-go,fa-lu-trai-go,fa-lu-tra-i-go, ,-0.385398981,-0.115008472,1,0,0,2.8849,text_option_1,,0,181,181,174,1
59402f40e9b44100013b1789,63f3cfca20052e4ae7554ebf,6453cd3f07663f6b4ecc61dd,2023-05-04_17h20.59.466,ga_syllabified_check,2022.2.5,Win32,59.70149254,,,,,,,,,,,,,,./stim/p06_syllable_1_nhiape_hit.wav,p06,ñiape,hit,nhi-a-pe,ñia-pe,ñi-a-pe, ,0.394770727,-0.105229117,1,0,0,1.6855,text_option_2,,0,182,182,125,1
59402f40e9b44100013b1789,63f3cfca20052e4ae7554ebf,6453cd3f07663f6b4ecc61dd,2023-05-04_17h20.59.466,ga_syllabified_check,2022.2.5,Win32,59.70149254,,,,,,,,,,,,,,./stim/p03_syllable_1_faluduako_hit.wav,p03,faluduako,hit,fa-lu-dua-ko,fa-lu-dua-ko,fa-lu-du-a-ko, ,-0.343022073,-0.116095085,1,0,0,3.6673,text_option_1,,0,183,183,2,1
59402f40e9b44100013b1789,63f3cfca20052e4ae7554ebf,6453cd3f07663f6b4ecc61dd,2023-05-04_17h20.59.466,ga_syllabified_check,2022.2.5,Win32,59.70149254,,,,,,,,,,,,,,./stim/p03_syllable_1_lakatuaisto_hit.wav,p03,lakatuaisto,hit,la-ka-tuais-to,la-ka-tuais-to,la-ka-tu-ais-to,la-ka-tua-is-to,-0.322376892,-0.091103572,1,0,0,1.5358,text_option_1,,0,184,184,19,1
59402f40e9b44100013b1789,63f3cfca20052e4ae7554ebf,6453cd3f07663f6b4ecc61dd,2023-05-04_17h20.59.466,ga_syllabified_check,2022.2.5,Win32,59.70149254,,,,,,,,,,,,,,./stim/p07_syllable_1_payielo_hit.wav,p07,payielo,hit,pa-yie-lo,pa-yie-lo,pa-yi-e-lo, ,-0.427775903,-0.093276744,1,0,0,2.7176,text_option_1,,0,185,185,166,1
59402f40e9b44100013b1789,63f3cfca20052e4ae7554ebf,6453cd3f07663f6b4ecc61dd,2023-05-04_17h20.59.466,ga_syllabified_check,2022.2.5,Win32,59.70149254,,,,,,,,,,,,,,./stim/p08_syllable_1_rausto_hit.wav,p08,rausto,hit,raus-to,raus-to,ra-us-to, ,-0.387572154,-0.100882823,1,0,0,5.5337,text_option_1,,0,186,186,201,1
59402f40e9b44100013b1789,63f3cfca20052e4ae7554ebf,6453cd3f07663f6b4ecc61dd,2023-05-04_17h20.59.466,ga_syllabified_check,2022.2.5,Win32,59.70149254,,,,,,,,,,,,,,./stim/p08_syllable_1_lakapiaisto_hit.wav,p08,lakapiaisto,hit,la-ka-pi-as-to,la-ka-piais-to,la-ka-pi-ais-to,la-ka-pia-is-to,0.337181571,-0.101969436,1,0,0,4.3344,text_option_2,,0,187,187,186,1
59402f40e9b44100013b1789,63f3cfca20052e4ae7554ebf,6453cd3f07663f6b4ecc61dd,2023-05-04_17h20.59.466,ga_syllabified_check,2022.2.5,Win32,59.70149254,,,,,,,,,,,,,,./stim/p05_syllable_1_lakatiaisto_hit.wav,p05,lakatiaisto,hit,la-ka-ti-ais-to,la-ka-tiais-to,la-ka-ti-ais-to,la-ka-tia-is-to,-0.322376892,-0.1128353,1,0,0,2.0352,text_option_1,,0,188,188,86,1
59402f40e9b44100013b1789,63f3cfca20052e4ae7554ebf,6453cd3f07663f6b4ecc61dd,2023-05-04_17h20.59.466,ga_syllabified_check,2022.2.5,Win32,59.70149254,,,,,,,,,,,,,,./stim/p03_syllable_1_costonhialo_hit.wav,p03,costoñialo,hit,cos-to-nhia-lo,cos-to-ñia-lo,cos-to-ñi-a-lo, ,-0.402784377,-0.081324268,1,0,0,1.833,text_option_1,,0,189,189,1,1
59402f40e9b44100013b1789,63f3cfca20052e4ae7554ebf,6453cd3f07663f6b4ecc61dd,2023-05-04_17h20.59.466,ga_syllabified_check,2022.2.5,Win32,59.70149254,,,,,,,,,,,,,,./stim/p04_syllable_1_faluduako_hit.wav,p04,faluduako,hit,fa-lu-dua-ko,fa-lu-dua-ko,fa-lu-du-a-ko, ,-0.402784377,-0.084584053,1,0,0,1.285,text_option_1,,0,190,190,36,1
59402f40e9b44100013b1789,63f3cfca20052e4ae7554ebf,6453cd3f07663f6b4ecc61dd,2023-05-04_17h20.59.466,ga_syllabified_check,2022.2.5,Win32,59.70149254,,,,,,,,,,,,,,./stim/p08_syllable_1_lakakiaisto_hit.wav,p08,lakakiaisto,hit,la-ka-ki-jas-to,la-ka-kiais-to,la-ka-ki-ais-to,la-ka-kia-is-to,0.045976208,-0.289949064,1,0,0,4.5172,text_option_other,la-ka-kias-to,0,191,191,184,1
59402f40e9b44100013b1789,63f3cfca20052e4ae7554ebf,6453cd3f07663f6b4ecc61dd,2023-05-04_17h20.59.466,ga_syllabified_check,2022.2.5,Win32,59.70149254,,,,,,,,,,,,,,./stim/p03_syllable_1_falufaisto_hit.wav,p03,falufaisto,hit,fa-lu-fais-to,fa-lu-fais-to,fa-lu-fa-is-to, ,-0.33106961,-0.103055944,1,0,0,4.0837,text_option_1,,0,192,192,3,1
59402f40e9b44100013b1789,63f3cfca20052e4ae7554ebf,6453cd3f07663f6b4ecc61dd,2023-05-04_17h20.59.466,ga_syllabified_check,2022.2.5,Win32,59.70149254,,,,,,,,,,,,,,./stim/p03_syllable_1_lakakiaisto_hit.wav,p03,lakakiaisto,hit,la-ka-kiais-to,la-ka-kiais-to,la-ka-ki-ais-to,la-ka-kia-is-to,-0.336502554,-0.099796263,1,0,0,3.2685,text_option_1,,0,193,193,14,1
59402f40e9b44100013b1789,63f3cfca20052e4ae7554ebf,6453cd3f07663f6b4ecc61dd,2023-05-04_17h20.59.466,ga_syllabified_check,2022.2.5,Win32,59.70149254,,,,,,,,,,,,,,./stim/p05_syllable_1_lakaguaisto_hit.wav,p05,lakaguaisto,hit,la-ka-gais,la-ka-guais-to,la-ka-gu-ais-to,la-ka-gua-is-to,0.041629863,-0.312767456,1,0,0,1.6668,text_option_other,la-ka-gais-to,0,194,194,81,1
59402f40e9b44100013b1789,63f3cfca20052e4ae7554ebf,6453cd3f07663f6b4ecc61dd,2023-05-04_17h20.59.466,ga_syllabified_check,2022.2.5,Win32,59.70149254,,,,,,,,,,,,,,./stim/p06_syllable_1_falufaisto_hit.wav,p06,falufaisto,hit,fa-lu-fa-is-to,fa-lu-fais-to,fa-lu-fa-is-to, ,0.461052627,-0.094363305,1,0,0,3.3173,text_option_2,,0,195,195,105,1
59402f40e9b44100013b1789,63f3cfca20052e4ae7554ebf,6453cd3f07663f6b4ecc61dd,2023-05-04_17h20.59.466,ga_syllabified_check,2022.2.5,Win32,59.70149254,,,,,,,,,,,,,,./stim/p04_syllable_1_lakabiaisto_hit.wav,p04,lakabiaisto,hit,la-ka-biais-to,la-ka-biais-to,la-ka-bi-ais-to,la-ka-bia-is-to,-0.394091685,-0.108488954,1,0,0,5.4023,text_option_1,,0,196,196,40,1
59402f40e9b44100013b1789,63f3cfca20052e4ae7554ebf,6453cd3f07663f6b4ecc61dd,2023-05-04_17h20.59.466,ga_syllabified_check,2022.2.5,Win32,59.70149254,,,,,,,,,,,,,,./stim/p06_syllable_1_tuliafo_hit.wav,p06,tuliafo,hit,tu-li-a-fo,tu-lia-fo,tu-li-a-fo, ,0.437147778,-0.115008472,1,0,0,1.0002,text_option_2,,0,197,197,135,1
59402f40e9b44100013b1789,63f3cfca20052e4ae7554ebf,6453cd3f07663f6b4ecc61dd,2023-05-04_17h20.59.466,ga_syllabified_check,2022.2.5,Win32,59.70149254,,,,,,,,,,,,,,./stim/p03_syllable_1_rausto_hit.wav,p03,rausto,hit,raus-to,raus-to,ra-us-to, ,-0.416910019,-0.116095085,1,0,0,1.4667,text_option_1,,0,198,198,31,1
59402f40e9b44100013b1789,63f3cfca20052e4ae7554ebf,6453cd3f07663f6b4ecc61dd,2023-05-04_17h20.59.466,ga_syllabified_check,2022.2.5,Win32,59.70149254,,,,,,,,,,,,,,./stim/p05_syllable_1_palufauto_hit.wav,p05,palufauto,hit,pa-lu-fau-to,pa-lu-fau-to,pa-lu-fa-u-to, ,-0.382139222,-0.117181645,1,0,0,4.1671,text_option_1,,0,199,199,94,1
59402f40e9b44100013b1789,63f3cfca20052e4ae7554ebf,6453cd3f07663f6b4ecc61dd,2023-05-04_17h20.59.466,ga_syllabified_check,2022.2.5,Win32,59.70149254,,,,,,,,,,,,,,./stim/p05_syllable_1_pachialo_hit.wav,p05,pachialo,hit,pan-chia-lo,pa-chia-lo,pa-chi-a-lo, ,-0.373446518,-0.087843786,1,0,0,1.2854,text_option_1,,0,200,200,92,1
59402f40e9b44100013b1789,63f3cfca20052e4ae7554ebf,6453cd3f07663f6b4ecc61dd,2023-05-04_17h20.59.466,ga_syllabified_check,2022.2.5,Win32,59.70149254,,,,,,,,,,,,,,./stim/p04_syllable_1_flauro_hit.wav,p04,flauro,hit,flau-ro,flau-ro,fla-u-ro, ,-0.40169779,-0.087843786,1,0,0,4.8847,text_option_1,,0,201,201,39,1
59402f40e9b44100013b1789,63f3cfca20052e4ae7554ebf,6453cd3f07663f6b4ecc61dd,2023-05-04_17h20.59.466,ga_syllabified_check,2022.2.5,Win32,59.70149254,,,,,,,,,,,,,,./stim/p04_syllable_1_rausto_hit.wav,p04,rausto,hit,raus-to,raus-to,ra-us-to, ,-0.358234295,-0.101969436,1,0,0,4.7847,text_option_1,,0,202,202,65,1
59402f40e9b44100013b1789,63f3cfca20052e4ae7554ebf,6453cd3f07663f6b4ecc61dd,2023-05-04_17h20.59.466,ga_syllabified_check,2022.2.5,Win32,59.70149254,,,,,,,,,,,,,,./stim/p05_syllable_1_falufaisto_hit.wav,p05,falufaisto,hit,fa-lu-fais-to,fa-lu-fais-to,fa-lu-fa-is-to, ,-0.390831926,-0.092190132,1,0,0,0.6002,text_option_1,,0,203,203,71,1
59402f40e9b44100013b1789,63f3cfca20052e4ae7554ebf,6453cd3f07663f6b4ecc61dd,2023-05-04_17h20.59.466,ga_syllabified_check,2022.2.5,Win32,59.70149254,,,,,,,,,,,,,,,,,,,,,,,,,,,,,,,,,,
