participant,study,session,date,expName,psychopyVersion,OS,frameRate,mouse_practice.x,mouse_practice.y,mouse_practice.leftButton,mouse_practice.midButton,mouse_practice.rightButton,mouse_practice.time,mouse_practice.clicked_name,textbox_followup_practice.text,trials_practice.thisRepN,trials_practice.thisTrialN,trials_practice.thisN,trials_practice.thisIndex,trials_practice.ran,file_path,id,item,status,response,op1,op2,op3,mouse.x,mouse.y,mouse.leftButton,mouse.midButton,mouse.rightButton,mouse.time,mouse.clicked_name,textbox_followup.text,trials.thisRepN,trials.thisTrialN,trials.thisN,trials.thisIndex,trials.ran
5ab3e44cf5918d00012e947a,63f3cfca20052e4ae7554ebf,6453cc133884f0c200ba1892,2023-05-04_17h16.38.522,ga_syllabified_check,2022.2.5,Win32,30.00660145,,,,,,,,,,,,,,,,,,,,,,,,,,,,,,,,,,
5ab3e44cf5918d00012e947a,63f3cfca20052e4ae7554ebf,6453cc133884f0c200ba1892,2023-05-04_17h16.38.522,ga_syllabified_check,2022.2.5,Win32,30.00660145,0.373148148,-0.101851852,1,0,0,5.432,text_option_2_practice,,0,0,0,0,1,./stim/p03_syllable_1_liamo_hit.wav,p03,liamo,hit,lia-mo,lia-mo,li-a-mo, ,,,,,,,,,,,,,
5ab3e44cf5918d00012e947a,63f3cfca20052e4ae7554ebf,6453cc133884f0c200ba1892,2023-05-04_17h16.38.522,ga_syllabified_check,2022.2.5,Win32,30.00660145,-0.405555556,-0.1,1,0,0,1.7727,text_option_1_practice,,0,1,1,1,1,./stim/p05_syllable_1_matio_hit.wav,p05,matio,hit,ma-tio,ma-tio,ma-ti-o, ,,,,,,,,,,,,,
5ab3e44cf5918d00012e947a,63f3cfca20052e4ae7554ebf,6453cc133884f0c200ba1892,2023-05-04_17h16.38.522,ga_syllabified_check,2022.2.5,Win32,30.00660145,-0.385185185,-0.098148148,1,0,0,2.3149,text_option_1_practice,,0,2,2,2,1,./stim/p08_syllable_1_liamo_hit.wav,p08,liamo,hit,ja-mo,lia-mo,li-a-mo, ,,,,,,,,,,,,,
5ab3e44cf5918d00012e947a,63f3cfca20052e4ae7554ebf,6453cc133884f0c200ba1892,2023-05-04_17h16.38.522,ga_syllabified_check,2022.2.5,Win32,30.00660145,,,,,,,,,,,,,,,,,,,,,,,,,,,,,,,,,,
5ab3e44cf5918d00012e947a,63f3cfca20052e4ae7554ebf,6453cc133884f0c200ba1892,2023-05-04_17h16.38.522,ga_syllabified_check,2022.2.5,Win32,30.00660145,,,,,,,,,,,,,,./stim/p03_syllable_1_chiaba_hit.wav,p03,chiaba,hit,chia-ba,chia-ba,chi-a-ba, ,-0.348148148,-0.097222222,1,0,0,3.1681,text_option_1,,0,0,0,0,1
5ab3e44cf5918d00012e947a,63f3cfca20052e4ae7554ebf,6453cc133884f0c200ba1892,2023-05-04_17h16.38.522,ga_syllabified_check,2022.2.5,Win32,30.00660145,,,,,,,,,,,,,,./stim/p07_syllable_1_faluduako_hit.wav,p07,faluduako,hit,fa-lu-dua-ko,fa-lu-dua-ko,fa-lu-du-a-ko, ,-0.347222222,-0.094444444,1,0,0,2.4188,text_option_1,,0,1,1,138,1
5ab3e44cf5918d00012e947a,63f3cfca20052e4ae7554ebf,6453cc133884f0c200ba1892,2023-05-04_17h16.38.522,ga_syllabified_check,2022.2.5,Win32,30.00660145,,,,,,,,,,,,,,./stim/p03_syllable_1_flauro_hit.wav,p03,flauro,hit,flau-ro,flau-ro,fla-u-ro, ,-0.37037037,-0.122222222,1,0,0,2.9822,text_option_1,,0,2,2,5,1
5ab3e44cf5918d00012e947a,63f3cfca20052e4ae7554ebf,6453cc133884f0c200ba1892,2023-05-04_17h16.38.522,ga_syllabified_check,2022.2.5,Win32,30.00660145,,,,,,,,,,,,,,./stim/p06_syllable_1_pachialo_hit.wav,p06,pachialo,hit,pa-shi-a-lo,pa-chia-lo,pa-chi-a-lo, ,0.341666667,-0.088888889,1,0,0,1.6545,text_option_2,,0,3,3,126,1
5ab3e44cf5918d00012e947a,63f3cfca20052e4ae7554ebf,6453cc133884f0c200ba1892,2023-05-04_17h16.38.522,ga_syllabified_check,2022.2.5,Win32,30.00660145,,,,,,,,,,,,,,./stim/p06_syllable_1_lakakuaisto_hit.wav,p06,lakakuaisto,hit,la-ka-ku-a-is,la-ka-kuais-to,la-ka-ku-ais-to,la-ka-kua-is-to,0.035185185,-0.3,1,0,0,6.6093,text_option_other,la-ku-a-is-ko,0,4,4,117,1
5ab3e44cf5918d00012e947a,63f3cfca20052e4ae7554ebf,6453cc133884f0c200ba1892,2023-05-04_17h16.38.522,ga_syllabified_check,2022.2.5,Win32,30.00660145,,,,,,,,,,,,,,./stim/p07_syllable_1_lakafiaisto_hit.wav,p07,lakafiaisto,hit,la-ka-fiais-to,la-ka-fiais-to,la-ka-fi-ais-to,la-ka-fia-is-to,-0.330555556,-0.101851852,1,0,0,7.9653,text_option_1,,0,5,5,146,1
5ab3e44cf5918d00012e947a,63f3cfca20052e4ae7554ebf,6453cc133884f0c200ba1892,2023-05-04_17h16.38.522,ga_syllabified_check,2022.2.5,Win32,30.00660145,,,,,,,,,,,,,,./stim/p05_syllable_1_costonhialo_hit.wav,p05,costoñialo,hit,cos-to-nhia-lo,cos-to-ñia-lo,cos-to-ñi-a-lo, ,-0.397222222,-0.103703704,1,0,0,5.3959,text_option_1,,0,6,6,69,1
5ab3e44cf5918d00012e947a,63f3cfca20052e4ae7554ebf,6453cc133884f0c200ba1892,2023-05-04_17h16.38.522,ga_syllabified_check,2022.2.5,Win32,30.00660145,,,,,,,,,,,,,,./stim/p06_syllable_1_lakatiaisto_hit.wav,p06,lakatiaisto,hit,la-ka-pia-is-to,la-ka-tiais-to,la-ka-ti-ais-to,la-ka-tia-is-to,0.030555556,-0.09537037,1,0,0,3.7855,text_option_3,,0,7,7,120,1
5ab3e44cf5918d00012e947a,63f3cfca20052e4ae7554ebf,6453cc133884f0c200ba1892,2023-05-04_17h16.38.522,ga_syllabified_check,2022.2.5,Win32,30.00660145,,,,,,,,,,,,,,./stim/p05_syllable_1_palutrauco_hit.wav,p05,palutrauco,hit,pa-lu-trai-co,pa-lu-trau-co,pa-lu-tra-u-co, ,-0.373148148,-0.103703704,1,0,0,2.0144,text_option_1,,0,8,8,97,1
5ab3e44cf5918d00012e947a,63f3cfca20052e4ae7554ebf,6453cc133884f0c200ba1892,2023-05-04_17h16.38.522,ga_syllabified_check,2022.2.5,Win32,30.00660145,,,,,,,,,,,,,,./stim/p07_syllable_1_lakagiaisto_hit.wav,p07,lakagiaisto,hit,la-ka-gais-to,la-ka-giais-to,la-ka-gi-ais-to,la-ka-gia-is-to,-0.342592593,-0.10462963,1,0,0,5.6867,text_option_1,,0,9,9,148,1
5ab3e44cf5918d00012e947a,63f3cfca20052e4ae7554ebf,6453cc133884f0c200ba1892,2023-05-04_17h16.38.522,ga_syllabified_check,2022.2.5,Win32,30.00660145,,,,,,,,,,,,,,./stim/p04_syllable_1_lakafiaisto_hit.wav,p04,lakafiaisto,hit,la-ka-fiais-to,la-ka-fiais-to,la-ka-fi-ais-to,la-ka-fia-is-to,-0.333333333,-0.100925926,1,0,0,1.3995,text_option_1,,0,10,10,44,1
5ab3e44cf5918d00012e947a,63f3cfca20052e4ae7554ebf,6453cc133884f0c200ba1892,2023-05-04_17h16.38.522,ga_syllabified_check,2022.2.5,Win32,30.00660145,,,,,,,,,,,,,,./stim/p04_syllable_1_lakafuaisto_hit.wav,p04,lakafuaisto,hit,la-ka-fuais-to,la-ka-fuais-to,la-ka-fu-ais-to,la-ka-fua-is-to,-0.313888889,-0.106481481,1,0,0,1.4906,text_option_1,,0,11,11,45,1
5ab3e44cf5918d00012e947a,63f3cfca20052e4ae7554ebf,6453cc133884f0c200ba1892,2023-05-04_17h16.38.522,ga_syllabified_check,2022.2.5,Win32,30.00660145,,,,,,,,,,,,,,./stim/p07_syllable_1_lakafuaisto_hit.wav,p07,lakafuaisto,hit,la-ka-fuais-to,la-ka-fuais-to,la-ka-fu-ais-to,la-ka-fua-is-to,-0.32962963,-0.096296296,1,0,0,1.8387,text_option_1,,0,12,12,147,1
5ab3e44cf5918d00012e947a,63f3cfca20052e4ae7554ebf,6453cc133884f0c200ba1892,2023-05-04_17h16.38.522,ga_syllabified_check,2022.2.5,Win32,30.00660145,,,,,,,,,,,,,,./stim/p06_syllable_1_lakafuaisto_hit.wav,p06,lakafuaisto,hit,la-ka-fu-a-is,la-ka-fuais-to,la-ka-fu-ais-to,la-ka-fua-is-to,-0.028703704,-0.094444444,1,0,0,8.2725,text_option_3,,0,13,13,113,1
5ab3e44cf5918d00012e947a,63f3cfca20052e4ae7554ebf,6453cc133884f0c200ba1892,2023-05-04_17h16.38.522,ga_syllabified_check,2022.2.5,Win32,30.00660145,,,,,,,,,,,,,,./stim/p08_syllable_1_faluduako_hit.wav,p08,faluduako,hit,fa-lu-duai-ko,fa-lu-dua-ko,fa-lu-du-a-ko, ,-0.338888889,-0.091666667,1,0,0,3.1242,text_option_1,,0,14,14,172,1
5ab3e44cf5918d00012e947a,63f3cfca20052e4ae7554ebf,6453cc133884f0c200ba1892,2023-05-04_17h16.38.522,ga_syllabified_check,2022.2.5,Win32,30.00660145,,,,,,,,,,,,,,./stim/p03_syllable_1_paluguato_hit.wav,p03,paluguato,hit,pa-lu-gua,pa-lu-gua-to,pa-lu-gu-a-to, ,-0.330555556,-0.093518519,1,0,0,1.2981,text_option_1,,0,15,15,27,1
5ab3e44cf5918d00012e947a,63f3cfca20052e4ae7554ebf,6453cc133884f0c200ba1892,2023-05-04_17h16.38.522,ga_syllabified_check,2022.2.5,Win32,30.00660145,,,,,,,,,,,,,,./stim/p05_syllable_1_lakagiaisto_hit.wav,p05,lakagiaisto,hit,la-ka-ki-ais-to,la-ka-giais-to,la-ka-gi-ais-to,la-ka-gia-is-to,-0.334259259,-0.108333333,1,0,0,1.1681,text_option_1,,0,16,16,80,1
5ab3e44cf5918d00012e947a,63f3cfca20052e4ae7554ebf,6453cc133884f0c200ba1892,2023-05-04_17h16.38.522,ga_syllabified_check,2022.2.5,Win32,30.00660145,,,,,,,,,,,,,,./stim/p03_syllable_1_costonhialo_hit.wav,p03,costoñialo,hit,cos-to-nhia-lo,cos-to-ñia-lo,cos-to-ñi-a-lo, ,-0.324074074,-0.114814815,1,0,0,1.2071,text_option_1,,0,17,17,1,1
5ab3e44cf5918d00012e947a,63f3cfca20052e4ae7554ebf,6453cc133884f0c200ba1892,2023-05-04_17h16.38.522,ga_syllabified_check,2022.2.5,Win32,30.00660145,,,,,,,,,,,,,,./stim/p08_syllable_1_payielo_hit.wav,p08,payielo,hit,pa-yie-lo,pa-yie-lo,pa-yi-e-lo, ,-0.340740741,-0.093518519,1,0,0,1.0565,text_option_1,,0,18,18,200,1
5ab3e44cf5918d00012e947a,63f3cfca20052e4ae7554ebf,6453cc133884f0c200ba1892,2023-05-04_17h16.38.522,ga_syllabified_check,2022.2.5,Win32,30.00660145,,,,,,,,,,,,,,./stim/p07_syllable_1_lakaduaisto_hit.wav,p07,lakaduaisto,hit,la-ka-duais-to,la-ka-duais-to,la-ka-du-ais-to,la-ka-dua-is-to,-0.309259259,-0.110185185,1,0,0,1.7601,text_option_1,,0,19,19,145,1
5ab3e44cf5918d00012e947a,63f3cfca20052e4ae7554ebf,6453cc133884f0c200ba1892,2023-05-04_17h16.38.522,ga_syllabified_check,2022.2.5,Win32,30.00660145,,,,,,,,,,,,,,./stim/p03_syllable_1_palufauro_hit.wav,p03,palufauro,hit,pa-lu-fau-ro,pa-lu-fau-ro,pa-lu-fa-u-ro, ,-0.340740741,-0.099074074,1,0,0,1.4699,text_option_1,,0,20,20,25,1
5ab3e44cf5918d00012e947a,63f3cfca20052e4ae7554ebf,6453cc133884f0c200ba1892,2023-05-04_17h16.38.522,ga_syllabified_check,2022.2.5,Win32,30.00660145,,,,,,,,,,,,,,./stim/p05_syllable_1_lakadiaisto_hit.wav,p05,lakadiaisto,hit,la-ka-di-ais-to,la-ka-diais-to,la-ka-di-ais-to,la-ka-dia-is-to,-0.334259259,-0.106481481,1,0,0,1.4328,text_option_1,,0,21,21,76,1
5ab3e44cf5918d00012e947a,63f3cfca20052e4ae7554ebf,6453cc133884f0c200ba1892,2023-05-04_17h16.38.522,ga_syllabified_check,2022.2.5,Win32,30.00660145,,,,,,,,,,,,,,./stim/p06_syllable_1_costonhialo_hit.wav,p06,costoñialo,hit,cos-to-nhia-lo,cos-to-ñia-lo,cos-to-ñi-a-lo, ,-0.373148148,-0.094444444,1,0,0,2.2259,text_option_1,,0,22,22,103,1
5ab3e44cf5918d00012e947a,63f3cfca20052e4ae7554ebf,6453cc133884f0c200ba1892,2023-05-04_17h16.38.522,ga_syllabified_check,2022.2.5,Win32,30.00660145,,,,,,,,,,,,,,./stim/p04_syllable_1_flauro_hit.wav,p04,flauro,hit,flau-ro,flau-ro,fla-u-ro, ,-0.392592593,-0.088888889,1,0,0,0.3154,text_option_1,,0,23,23,39,1
5ab3e44cf5918d00012e947a,63f3cfca20052e4ae7554ebf,6453cc133884f0c200ba1892,2023-05-04_17h16.38.522,ga_syllabified_check,2022.2.5,Win32,30.00660145,,,,,,,,,,,,,,./stim/p08_syllable_1_lakakiaisto_hit.wav,p08,lakakiaisto,hit,la-ka-ki-jas-to,la-ka-kiais-to,la-ka-ki-ais-to,la-ka-kia-is-to,-0.073148148,-0.10462963,1,0,0,3.4422,text_option_3,,0,24,24,184,1
5ab3e44cf5918d00012e947a,63f3cfca20052e4ae7554ebf,6453cc133884f0c200ba1892,2023-05-04_17h16.38.522,ga_syllabified_check,2022.2.5,Win32,30.00660145,,,,,,,,,,,,,,./stim/p04_syllable_1_ruyiola_hit.wav,p04,ruyiola,hit,ru-yio-la,ru-yio-la,ru-yi-o-la, ,-0.419444444,-0.103703704,1,0,0,0.8781,text_option_1,,0,25,25,66,1
5ab3e44cf5918d00012e947a,63f3cfca20052e4ae7554ebf,6453cc133884f0c200ba1892,2023-05-04_17h16.38.522,ga_syllabified_check,2022.2.5,Win32,30.00660145,,,,,,,,,,,,,,./stim/p06_syllable_1_lakaguaisto_hit.wav,p06,lakaguaisto,hit,la-ka-gu-a-is,la-ka-guais-to,la-ka-gu-ais-to,la-ka-gua-is-to,0.325,-0.110185185,1,0,0,5.7825,text_option_2,,0,26,26,115,1
5ab3e44cf5918d00012e947a,63f3cfca20052e4ae7554ebf,6453cc133884f0c200ba1892,2023-05-04_17h16.38.522,ga_syllabified_check,2022.2.5,Win32,30.00660145,,,,,,,,,,,,,,./stim/p05_syllable_1_payielo_hit.wav,p05,payielo,hit,pai-yu-we-lo,pa-yie-lo,pa-yi-e-lo, ,-0.341666667,-0.101851852,1,0,0,1.38,text_option_1,,0,27,27,98,1
5ab3e44cf5918d00012e947a,63f3cfca20052e4ae7554ebf,6453cc133884f0c200ba1892,2023-05-04_17h16.38.522,ga_syllabified_check,2022.2.5,Win32,30.00660145,,,,,,,,,,,,,,./stim/p07_syllable_1_costonhialo_hit.wav,p07,costoñialo,hit,cos-to-nhia-lo,cos-to-ñia-lo,cos-to-ñi-a-lo, ,-0.323148148,-0.112962963,1,0,0,1.7197,text_option_1,,0,28,28,137,1
5ab3e44cf5918d00012e947a,63f3cfca20052e4ae7554ebf,6453cc133884f0c200ba1892,2023-05-04_17h16.38.522,ga_syllabified_check,2022.2.5,Win32,30.00660145,,,,,,,,,,,,,,./stim/p06_syllable_1_flauro_hit.wav,p06,flauro,hit,fla-u-ro,flau-ro,fla-u-ro, ,0.385185185,-0.099074074,1,0,0,0.9436,text_option_2,,0,29,29,107,1
5ab3e44cf5918d00012e947a,63f3cfca20052e4ae7554ebf,6453cc133884f0c200ba1892,2023-05-04_17h16.38.522,ga_syllabified_check,2022.2.5,Win32,30.00660145,,,,,,,,,,,,,,./stim/p04_syllable_1_mebochiana_hit.wav,p04,mebochiana,hit,me-bo-chia-na,me-bo-chia-na,me-bo-chi-a-na, ,-0.29537037,-0.108333333,1,0,0,1.732,text_option_1,,0,30,30,56,1
5ab3e44cf5918d00012e947a,63f3cfca20052e4ae7554ebf,6453cc133884f0c200ba1892,2023-05-04_17h16.38.522,ga_syllabified_check,2022.2.5,Win32,30.00660145,,,,,,,,,,,,,,./stim/p03_syllable_1_palufauto_hit.wav,p03,palufauto,hit,pa-lu-fau,pa-lu-fau-to,pa-lu-fa-u-to, ,-0.350925926,-0.103703704,1,0,0,0.9651,text_option_1,,0,31,31,26,1
5ab3e44cf5918d00012e947a,63f3cfca20052e4ae7554ebf,6453cc133884f0c200ba1892,2023-05-04_17h16.38.522,ga_syllabified_check,2022.2.5,Win32,30.00660145,,,,,,,,,,,,,,./stim/p04_syllable_1_falutraigo_hit.wav,p04,falutraigo,hit,fa-lu-trai-go,fa-lu-trai-go,fa-lu-tra-i-go, ,-0.314814815,-0.101851852,1,0,0,0.8632,text_option_1,,0,32,32,38,1
5ab3e44cf5918d00012e947a,63f3cfca20052e4ae7554ebf,6453cc133884f0c200ba1892,2023-05-04_17h16.38.522,ga_syllabified_check,2022.2.5,Win32,30.00660145,,,,,,,,,,,,,,./stim/p04_syllable_1_lakabuaisto_hit.wav,p04,lakabuaisto,hit,la-ka-buais-to,la-ka-buais-to,la-ka-bu-ais-to,la-ka-bua-is-to,-0.355555556,-0.099074074,1,0,0,1.0815,text_option_1,,0,33,33,41,1
5ab3e44cf5918d00012e947a,63f3cfca20052e4ae7554ebf,6453cc133884f0c200ba1892,2023-05-04_17h16.38.522,ga_syllabified_check,2022.2.5,Win32,30.00660145,,,,,,,,,,,,,,./stim/p06_syllable_1_ruyiola_hit.wav,p06,ruyiola,hit,ru-yi-o-la,ru-yio-la,ru-yi-o-la, ,0.34537037,-0.101851852,1,0,0,1.1637,text_option_2,,0,34,34,134,1
5ab3e44cf5918d00012e947a,63f3cfca20052e4ae7554ebf,6453cc133884f0c200ba1892,2023-05-04_17h16.38.522,ga_syllabified_check,2022.2.5,Win32,30.00660145,,,,,,,,,,,,,,./stim/p08_syllable_1_palufauro_hit.wav,p08,palufauro,hit,pa-lu-fau-ro,pa-lu-fau-ro,pa-lu-fa-u-ro, ,0.360185185,-0.100925926,1,0,0,3.2565,text_option_2,,0,35,35,195,1
5ab3e44cf5918d00012e947a,63f3cfca20052e4ae7554ebf,6453cc133884f0c200ba1892,2023-05-04_17h16.38.522,ga_syllabified_check,2022.2.5,Win32,30.00660145,,,,,,,,,,,,,,./stim/p04_syllable_1_rausto_hit.wav,p04,rausto,hit,raus-to,raus-to,ra-us-to, ,-0.367592593,-0.099074074,1,0,0,0.6777,text_option_1,,0,36,36,65,1
5ab3e44cf5918d00012e947a,63f3cfca20052e4ae7554ebf,6453cc133884f0c200ba1892,2023-05-04_17h16.38.522,ga_syllabified_check,2022.2.5,Win32,30.00660145,,,,,,,,,,,,,,./stim/p08_syllable_1_palutrauco_hit.wav,p08,palutrauco,hit,pa-lu-trau-ko,pa-lu-trau-co,pa-lu-tra-u-co, ,0.373148148,-0.10462963,1,0,0,2.8618,text_option_2,,0,37,37,199,1
5ab3e44cf5918d00012e947a,63f3cfca20052e4ae7554ebf,6453cc133884f0c200ba1892,2023-05-04_17h16.38.522,ga_syllabified_check,2022.2.5,Win32,30.00660145,,,,,,,,,,,,,,./stim/p05_syllable_1_lakafuaisto_hit.wav,p05,lakafuaisto,hit,la-ka-fais-to,la-ka-fuais-to,la-ka-fu-ais-to,la-ka-fua-is-to,0.025925926,-0.3,1,0,0,3.7294,text_option_other,la-ka-fais-to,0,38,38,79,1
5ab3e44cf5918d00012e947a,63f3cfca20052e4ae7554ebf,6453cc133884f0c200ba1892,2023-05-04_17h16.38.522,ga_syllabified_check,2022.2.5,Win32,30.00660145,,,,,,,,,,,,,,./stim/p07_syllable_1_lakabiaisto_hit.wav,p07,lakabiaisto,hit,la-ka-bais-to,la-ka-biais-to,la-ka-bi-ais-to,la-ka-bia-is-to,-0.009259259,-0.308333333,1,0,0,3.1233,text_option_other,la-ka-bais-to,0,39,39,142,1
5ab3e44cf5918d00012e947a,63f3cfca20052e4ae7554ebf,6453cc133884f0c200ba1892,2023-05-04_17h16.38.522,ga_syllabified_check,2022.2.5,Win32,30.00660145,,,,,,,,,,,,,,./stim/p04_syllable_1_lakabiaisto_hit.wav,p04,lakabiaisto,hit,la-ka-biais-to,la-ka-biais-to,la-ka-bi-ais-to,la-ka-bia-is-to,-0.362962963,-0.1,1,0,0,5.7907,text_option_1,,0,40,40,40,1
5ab3e44cf5918d00012e947a,63f3cfca20052e4ae7554ebf,6453cc133884f0c200ba1892,2023-05-04_17h16.38.522,ga_syllabified_check,2022.2.5,Win32,30.00660145,,,,,,,,,,,,,,./stim/p06_syllable_1_palufauto_hit.wav,p06,palufauto,hit,pa-lu-fau-to,pa-lu-fau-to,pa-lu-fa-u-to, ,-0.346296296,-0.097222222,1,0,0,2.695,text_option_1,,0,41,41,128,1
5ab3e44cf5918d00012e947a,63f3cfca20052e4ae7554ebf,6453cc133884f0c200ba1892,2023-05-04_17h16.38.522,ga_syllabified_check,2022.2.5,Win32,30.00660145,,,,,,,,,,,,,,./stim/p07_syllable_1_palumaisto_hit.wav,p07,palumaisto,hit,pa-lu-mais-to,pa-lu-mais-to,pa-lu-ma-is-to, ,-0.35462963,-0.108333333,1,0,0,2.0728,text_option_1,,0,42,42,164,1
5ab3e44cf5918d00012e947a,63f3cfca20052e4ae7554ebf,6453cc133884f0c200ba1892,2023-05-04_17h16.38.522,ga_syllabified_check,2022.2.5,Win32,30.00660145,,,,,,,,,,,,,,./stim/p08_syllable_1_lakadiaisto_hit.wav,p08,lakadiaisto,hit,la-ka-di-jas-to,la-ka-diais-to,la-ka-di-ais-to,la-ka-dia-is-to,-0.02037037,-0.30462963,1,0,0,6.2377,text_option_other,la-ka-di-as-to,0,43,43,178,1
5ab3e44cf5918d00012e947a,63f3cfca20052e4ae7554ebf,6453cc133884f0c200ba1892,2023-05-04_17h16.38.522,ga_syllabified_check,2022.2.5,Win32,30.00660145,,,,,,,,,,,,,,./stim/p04_syllable_1_falufaisto_hit.wav,p04,falufaisto,hit,fa-lu-fais-to,fa-lu-fais-to,fa-lu-fa-is-to, ,-0.4,-0.119444444,1,0,0,0.7159,text_option_1,,0,44,44,37,1
5ab3e44cf5918d00012e947a,63f3cfca20052e4ae7554ebf,6453cc133884f0c200ba1892,2023-05-04_17h16.38.522,ga_syllabified_check,2022.2.5,Win32,30.00660145,,,,,,,,,,,,,,./stim/p08_syllable_1_lliape_hit.wav,p08,lliape,hit,li-a-pe,llia-pe,lli-a-pe, ,-0.432407407,-0.099074074,1,0,0,1.3018,text_option_1,,0,45,45,190,1
5ab3e44cf5918d00012e947a,63f3cfca20052e4ae7554ebf,6453cc133884f0c200ba1892,2023-05-04_17h16.38.522,ga_syllabified_check,2022.2.5,Win32,30.00660145,,,,,,,,,,,,,,./stim/p08_syllable_1_palufauto_hit.wav,p08,palufauto,hit,pa-lu-fau-to,pa-lu-fau-to,pa-lu-fa-u-to, ,-0.34537037,-0.088888889,1,0,0,2.3606,text_option_1,,0,46,46,196,1
5ab3e44cf5918d00012e947a,63f3cfca20052e4ae7554ebf,6453cc133884f0c200ba1892,2023-05-04_17h16.38.522,ga_syllabified_check,2022.2.5,Win32,30.00660145,,,,,,,,,,,,,,./stim/p05_syllable_1_falutraigo_hit.wav,p05,falutraigo,hit,fa-lu-trai-go,fa-lu-trai-go,fa-lu-tra-i-go, ,-0.346296296,-0.12037037,1,0,0,0.8932,text_option_1,,0,47,47,72,1
5ab3e44cf5918d00012e947a,63f3cfca20052e4ae7554ebf,6453cc133884f0c200ba1892,2023-05-04_17h16.38.522,ga_syllabified_check,2022.2.5,Win32,30.00660145,,,,,,,,,,,,,,./stim/p05_syllable_1_lakakiaisto_hit.wav,p05,lakakiaisto,hit,la-ka-ki-ais-to,la-ka-kiais-to,la-ka-ki-ais-to,la-ka-kia-is-to,-0.336111111,-0.106481481,1,0,0,1.2303,text_option_1,,0,48,48,82,1
5ab3e44cf5918d00012e947a,63f3cfca20052e4ae7554ebf,6453cc133884f0c200ba1892,2023-05-04_17h16.38.522,ga_syllabified_check,2022.2.5,Win32,30.00660145,,,,,,,,,,,,,,./stim/p06_syllable_1_lakabiaisto_hit.wav,p06,lakabiaisto,hit,la-ka-bia-is-to,la-ka-biais-to,la-ka-bi-ais-to,la-ka-bia-is-to,-0.030555556,-0.099074074,1,0,0,4.8338,text_option_3,,0,49,49,108,1
5ab3e44cf5918d00012e947a,63f3cfca20052e4ae7554ebf,6453cc133884f0c200ba1892,2023-05-04_17h16.38.522,ga_syllabified_check,2022.2.5,Win32,30.00660145,,,,,,,,,,,,,,./stim/p06_syllable_1_mebochiana_hit.wav,p06,mebochiana,hit,me-bo-shi-a-na,me-bo-chia-na,me-bo-chi-a-na, ,0.380555556,-0.103703704,1,0,0,3.2018,text_option_2,,0,50,50,124,1
5ab3e44cf5918d00012e947a,63f3cfca20052e4ae7554ebf,6453cc133884f0c200ba1892,2023-05-04_17h16.38.522,ga_syllabified_check,2022.2.5,Win32,30.00660145,,,,,,,,,,,,,,./stim/p05_syllable_1_pachialo_hit.wav,p05,pachialo,hit,pan-chia-lo,pa-chia-lo,pa-chi-a-lo, ,0.35,-0.09537037,1,0,0,1.4995,text_option_2,,0,51,51,92,1
5ab3e44cf5918d00012e947a,63f3cfca20052e4ae7554ebf,6453cc133884f0c200ba1892,2023-05-04_17h16.38.522,ga_syllabified_check,2022.2.5,Win32,30.00660145,,,,,,,,,,,,,,./stim/p07_syllable_1_palufauto_hit.wav,p07,palufauto,hit,pa-lu-fau-to,pa-lu-fau-to,pa-lu-fa-u-to, ,0.343518519,-0.103703704,1,0,0,3.053,text_option_2,,0,52,52,162,1
5ab3e44cf5918d00012e947a,63f3cfca20052e4ae7554ebf,6453cc133884f0c200ba1892,2023-05-04_17h16.38.522,ga_syllabified_check,2022.2.5,Win32,30.00660145,,,,,,,,,,,,,,./stim/p07_syllable_1_lakadiaisto_hit.wav,p07,lakadiaisto,hit,la-ka-dia-is-to,la-ka-diais-to,la-ka-di-ais-to,la-ka-dia-is-to,0.07037037,-0.089814815,1,0,0,3.399,text_option_3,,0,53,53,144,1
5ab3e44cf5918d00012e947a,63f3cfca20052e4ae7554ebf,6453cc133884f0c200ba1892,2023-05-04_17h16.38.522,ga_syllabified_check,2022.2.5,Win32,30.00660145,,,,,,,,,,,,,,./stim/p05_syllable_1_palufauto_hit.wav,p05,palufauto,hit,pa-lu-fau-to,pa-lu-fau-to,pa-lu-fa-u-to, ,-0.348148148,-0.115740741,1,0,0,1.3048,text_option_1,,0,54,54,94,1
5ab3e44cf5918d00012e947a,63f3cfca20052e4ae7554ebf,6453cc133884f0c200ba1892,2023-05-04_17h16.38.522,ga_syllabified_check,2022.2.5,Win32,30.00660145,,,,,,,,,,,,,,./stim/p05_syllable_1_palumaisto_hit.wav,p05,palumaisto,hit,pa-lu-mais-to,pa-lu-mais-to,pa-lu-ma-is-to, ,0.310185185,-0.113888889,1,0,0,2.5323,text_option_2,,0,55,55,96,1
5ab3e44cf5918d00012e947a,63f3cfca20052e4ae7554ebf,6453cc133884f0c200ba1892,2023-05-04_17h16.38.522,ga_syllabified_check,2022.2.5,Win32,30.00660145,,,,,,,,,,,,,,./stim/p05_syllable_1_lakabuaisto_hit.wav,p05,lakabuaisto,hit,la-ka-buais-to,la-ka-buais-to,la-ka-bu-ais-to,la-ka-bua-is-to,0.024074074,-0.291666667,1,0,0,2.149,text_option_other,la-ka-ba-is-to,0,56,56,75,1
5ab3e44cf5918d00012e947a,63f3cfca20052e4ae7554ebf,6453cc133884f0c200ba1892,2023-05-04_17h16.38.522,ga_syllabified_check,2022.2.5,Win32,30.00660145,,,,,,,,,,,,,,./stim/p08_syllable_1_pachialo_hit.wav,p08,pachialo,hit,pa-chi-ja-lo,pa-chia-lo,pa-chi-a-lo, ,0.362962963,-0.114814815,1,0,0,1.5008,text_option_2,,0,57,57,194,1
5ab3e44cf5918d00012e947a,63f3cfca20052e4ae7554ebf,6453cc133884f0c200ba1892,2023-05-04_17h16.38.522,ga_syllabified_check,2022.2.5,Win32,30.00660145,,,,,,,,,,,,,,./stim/p03_syllable_1_lakabiaisto_hit.wav,p03,lakabiaisto,hit,la-ka-biais-to,la-ka-biais-to,la-ka-bi-ais-to,la-ka-bia-is-to,-0.340740741,-0.102777778,1,0,0,1.5634,text_option_1,,0,58,58,6,1
5ab3e44cf5918d00012e947a,63f3cfca20052e4ae7554ebf,6453cc133884f0c200ba1892,2023-05-04_17h16.38.522,ga_syllabified_check,2022.2.5,Win32,30.00660145,,,,,,,,,,,,,,./stim/p05_syllable_1_lliape_hit.wav,p05,lliape,hit,liai-pe,llia-pe,lli-a-pe, ,-0.389814815,-0.091666667,1,0,0,0.3911,text_option_1,,0,59,59,88,1
5ab3e44cf5918d00012e947a,63f3cfca20052e4ae7554ebf,6453cc133884f0c200ba1892,2023-05-04_17h16.38.522,ga_syllabified_check,2022.2.5,Win32,30.00660145,,,,,,,,,,,,,,./stim/p03_syllable_1_palutrauco_hit.wav,p03,palutrauco,hit,pa-lu-trau-co,pa-lu-trau-co,pa-lu-tra-u-co, ,-0.324074074,-0.108333333,1,0,0,0.7603,text_option_1,,0,60,60,29,1
5ab3e44cf5918d00012e947a,63f3cfca20052e4ae7554ebf,6453cc133884f0c200ba1892,2023-05-04_17h16.38.522,ga_syllabified_check,2022.2.5,Win32,30.00660145,,,,,,,,,,,,,,./stim/p07_syllable_1_palutrauco_hit.wav,p07,palutrauco,hit,pa-lu-trau-co,pa-lu-trau-co,pa-lu-tra-u-co, ,-0.324074074,-0.108333333,1,0,0,0.941,text_option_1,,0,61,61,165,1
5ab3e44cf5918d00012e947a,63f3cfca20052e4ae7554ebf,6453cc133884f0c200ba1892,2023-05-04_17h16.38.522,ga_syllabified_check,2022.2.5,Win32,30.00660145,,,,,,,,,,,,,,./stim/p03_syllable_1_ruyiola_hit.wav,p03,ruyiola,hit,ru-yio-la,ru-yio-la,ru-yi-o-la, ,0.394444444,-0.106481481,1,0,0,2.2553,text_option_2,,0,62,62,32,1
5ab3e44cf5918d00012e947a,63f3cfca20052e4ae7554ebf,6453cc133884f0c200ba1892,2023-05-04_17h16.38.522,ga_syllabified_check,2022.2.5,Win32,30.00660145,,,,,,,,,,,,,,./stim/p06_syllable_1_lakafiaisto_hit.wav,p06,lakafiaisto,hit,la-ka-fia-is-to,la-ka-fiais-to,la-ka-fi-ais-to,la-ka-fia-is-to,0.039814815,-0.10462963,1,0,0,3.3688,text_option_3,,0,63,63,112,1
5ab3e44cf5918d00012e947a,63f3cfca20052e4ae7554ebf,6453cc133884f0c200ba1892,2023-05-04_17h16.38.522,ga_syllabified_check,2022.2.5,Win32,30.00660145,,,,,,,,,,,,,,./stim/p08_syllable_1_falufaisto_hit.wav,p08,falufaisto,hit,fa-lu-fais-to,fa-lu-fais-to,fa-lu-fa-is-to, ,-0.387962963,-0.109259259,1,0,0,2.1066,text_option_1,,0,64,64,173,1
5ab3e44cf5918d00012e947a,63f3cfca20052e4ae7554ebf,6453cc133884f0c200ba1892,2023-05-04_17h16.38.522,ga_syllabified_check,2022.2.5,Win32,30.00660145,,,,,,,,,,,,,,./stim/p04_syllable_1_faluduako_hit.wav,p04,faluduako,hit,fa-lu-dua-ko,fa-lu-dua-ko,fa-lu-du-a-ko, ,-0.346296296,-0.092592593,1,0,0,0.8047,text_option_1,,0,65,65,36,1
5ab3e44cf5918d00012e947a,63f3cfca20052e4ae7554ebf,6453cc133884f0c200ba1892,2023-05-04_17h16.38.522,ga_syllabified_check,2022.2.5,Win32,30.00660145,,,,,,,,,,,,,,./stim/p06_syllable_1_rausto_hit.wav,p06,rausto,hit,ra-us-to,raus-to,ra-us-to, ,0.362962963,-0.112037037,1,0,0,1.2407,text_option_2,,0,66,66,133,1
5ab3e44cf5918d00012e947a,63f3cfca20052e4ae7554ebf,6453cc133884f0c200ba1892,2023-05-04_17h16.38.522,ga_syllabified_check,2022.2.5,Win32,30.00660145,,,,,,,,,,,,,,./stim/p08_syllable_1_lakakuaisto_hit.wav,p08,lakakuaisto,hit,la-ka-ku-ais-to,la-ka-kuais-to,la-ka-ku-ais-to,la-ka-kua-is-to,0.012962963,-0.109259259,1,0,0,2.4863,text_option_3,,0,67,67,185,1
5ab3e44cf5918d00012e947a,63f3cfca20052e4ae7554ebf,6453cc133884f0c200ba1892,2023-05-04_17h16.38.522,ga_syllabified_check,2022.2.5,Win32,30.00660145,,,,,,,,,,,,,,./stim/p07_syllable_1_palufauro_hit.wav,p07,palufauro,hit,pa-lu-fau-ro,pa-lu-fau-ro,pa-lu-fa-u-ro, ,-0.327777778,-0.098148148,1,0,0,1.8764,text_option_1,,0,68,68,161,1
5ab3e44cf5918d00012e947a,63f3cfca20052e4ae7554ebf,6453cc133884f0c200ba1892,2023-05-04_17h16.38.522,ga_syllabified_check,2022.2.5,Win32,30.00660145,,,,,,,,,,,,,,./stim/p03_syllable_1_mebochiana_hit.wav,p03,mebochiana,hit,me-bo-chia-na,me-bo-chia-na,me-bo-chi-a-na, ,-0.32037037,-0.122222222,1,0,0,1.3028,text_option_1,,0,69,69,22,1
5ab3e44cf5918d00012e947a,63f3cfca20052e4ae7554ebf,6453cc133884f0c200ba1892,2023-05-04_17h16.38.522,ga_syllabified_check,2022.2.5,Win32,30.00660145,,,,,,,,,,,,,,./stim/p04_syllable_1_costonhialo_hit.wav,p04,costoñialo,hit,cos-to-nhia-lo,cos-to-ñia-lo,cos-to-ñi-a-lo, ,-0.325,-0.106481481,1,0,0,0.9562,text_option_1,,0,70,70,35,1
5ab3e44cf5918d00012e947a,63f3cfca20052e4ae7554ebf,6453cc133884f0c200ba1892,2023-05-04_17h16.38.522,ga_syllabified_check,2022.2.5,Win32,30.00660145,,,,,,,,,,,,,,./stim/p05_syllable_1_lakatuaisto_hit.wav,p05,lakatuaisto,hit,la-ka-tais-to,la-ka-tuais-to,la-ka-tu-ais-to,la-ka-tua-is-to,-0.02962963,-0.30462963,1,0,0,2.454,text_option_other,la-ka-ta-is-to,0,71,71,87,1
5ab3e44cf5918d00012e947a,63f3cfca20052e4ae7554ebf,6453cc133884f0c200ba1892,2023-05-04_17h16.38.522,ga_syllabified_check,2022.2.5,Win32,30.00660145,,,,,,,,,,,,,,./stim/p04_syllable_1_nhiape_hit.wav,p04,ñiape,hit,nhia-pe,ñia-pe,ñi-a-pe, ,-0.394444444,-0.106481481,1,0,0,1.0921,text_option_1,,0,72,72,57,1
5ab3e44cf5918d00012e947a,63f3cfca20052e4ae7554ebf,6453cc133884f0c200ba1892,2023-05-04_17h16.38.522,ga_syllabified_check,2022.2.5,Win32,30.00660145,,,,,,,,,,,,,,./stim/p03_syllable_1_lakadiaisto_hit.wav,p03,lakadiaisto,hit,la-ka-diais-to,la-ka-diais-to,la-ka-di-ais-to,la-ka-dia-is-to,-0.374074074,-0.10462963,1,0,0,1.9053,text_option_1,,0,73,73,8,1
5ab3e44cf5918d00012e947a,63f3cfca20052e4ae7554ebf,6453cc133884f0c200ba1892,2023-05-04_17h16.38.522,ga_syllabified_check,2022.2.5,Win32,30.00660145,,,,,,,,,,,,,,./stim/p03_syllable_1_lakaguaisto_hit.wav,p03,lakaguaisto,hit,la-ka-guais-to,la-ka-guais-to,la-ka-gu-ais-to,la-ka-gua-is-to,-0.358333333,-0.1,1,0,0,1.9314,text_option_1,,0,74,74,13,1
5ab3e44cf5918d00012e947a,63f3cfca20052e4ae7554ebf,6453cc133884f0c200ba1892,2023-05-04_17h16.38.522,ga_syllabified_check,2022.2.5,Win32,30.00660145,,,,,,,,,,,,,,./stim/p03_syllable_1_pachialo_hit.wav,p03,pachialo,hit,pa-chia-lo,pa-chia-lo,pa-chi-a-lo, ,0.355555556,-0.118518519,1,0,0,1.8303,text_option_2,,0,75,75,24,1
5ab3e44cf5918d00012e947a,63f3cfca20052e4ae7554ebf,6453cc133884f0c200ba1892,2023-05-04_17h16.38.522,ga_syllabified_check,2022.2.5,Win32,30.00660145,,,,,,,,,,,,,,./stim/p07_syllable_1_falufaisto_hit.wav,p07,falufaisto,hit,fa-lu-fais-to,fa-lu-fais-to,fa-lu-fa-is-to, ,-0.353703704,-0.100925926,1,0,0,1.8031,text_option_1,,0,76,76,139,1
5ab3e44cf5918d00012e947a,63f3cfca20052e4ae7554ebf,6453cc133884f0c200ba1892,2023-05-04_17h16.38.522,ga_syllabified_check,2022.2.5,Win32,30.00660145,,,,,,,,,,,,,,./stim/p03_syllable_1_lakapuaisto_hit.wav,p03,lakapuaisto,hit,la-ka-puais-to,la-ka-puais-to,la-ka-pu-ais-to,la-ka-pua-is-to,-0.335185185,-0.096296296,1,0,0,1.2397,text_option_1,,0,77,77,17,1
5ab3e44cf5918d00012e947a,63f3cfca20052e4ae7554ebf,6453cc133884f0c200ba1892,2023-05-04_17h16.38.522,ga_syllabified_check,2022.2.5,Win32,30.00660145,,,,,,,,,,,,,,./stim/p04_syllable_1_palutrauco_hit.wav,p04,palutrauco,hit,pa-lu-trau-co,pa-lu-trau-co,pa-lu-tra-u-co, ,-0.312962963,-0.109259259,1,0,0,0.7225,text_option_1,,0,78,78,63,1
5ab3e44cf5918d00012e947a,63f3cfca20052e4ae7554ebf,6453cc133884f0c200ba1892,2023-05-04_17h16.38.522,ga_syllabified_check,2022.2.5,Win32,30.00660145,,,,,,,,,,,,,,./stim/p04_syllable_1_manhiala_hit.wav,p04,mañiala,hit,ma-nhia-la,ma-ñia-la,ma-ñi-a-la, ,-0.338888889,-0.10462963,1,0,0,0.7307,text_option_1,,0,79,79,55,1
5ab3e44cf5918d00012e947a,63f3cfca20052e4ae7554ebf,6453cc133884f0c200ba1892,2023-05-04_17h16.38.522,ga_syllabified_check,2022.2.5,Win32,30.00660145,,,,,,,,,,,,,,./stim/p07_syllable_1_flauro_hit.wav,p07,flauro,hit,flau-ro,flau-ro,fla-u-ro, ,-0.384259259,-0.108333333,1,0,0,0.7983,text_option_1,,0,80,80,141,1
5ab3e44cf5918d00012e947a,63f3cfca20052e4ae7554ebf,6453cc133884f0c200ba1892,2023-05-04_17h16.38.522,ga_syllabified_check,2022.2.5,Win32,30.00660145,,,,,,,,,,,,,,./stim/p06_syllable_1_paluguato_hit.wav,p06,paluguato,hit,pa-lu-gua-to,pa-lu-gua-to,pa-lu-gu-a-to, ,-0.34537037,-0.101851852,1,0,0,2.2885,text_option_1,,0,81,81,129,1
5ab3e44cf5918d00012e947a,63f3cfca20052e4ae7554ebf,6453cc133884f0c200ba1892,2023-05-04_17h16.38.522,ga_syllabified_check,2022.2.5,Win32,30.00660145,,,,,,,,,,,,,,./stim/p03_syllable_1_faluduako_hit.wav,p03,faluduako,hit,fa-lu-dua-ko,fa-lu-dua-ko,fa-lu-du-a-ko, ,-0.373148148,-0.103703704,1,0,0,1.1938,text_option_1,,0,82,82,2,1
5ab3e44cf5918d00012e947a,63f3cfca20052e4ae7554ebf,6453cc133884f0c200ba1892,2023-05-04_17h16.38.522,ga_syllabified_check,2022.2.5,Win32,30.00660145,,,,,,,,,,,,,,./stim/p08_syllable_1_manhiala_hit.wav,p08,mañiala,hit,ma-nhia-la,ma-ñia-la,ma-ñi-a-la, ,-0.363888889,-0.107407407,1,0,0,1.1019,text_option_1,,0,83,83,191,1
5ab3e44cf5918d00012e947a,63f3cfca20052e4ae7554ebf,6453cc133884f0c200ba1892,2023-05-04_17h16.38.522,ga_syllabified_check,2022.2.5,Win32,30.00660145,,,,,,,,,,,,,,./stim/p03_syllable_1_lakakiaisto_hit.wav,p03,lakakiaisto,hit,la-ka-kiais-to,la-ka-kiais-to,la-ka-ki-ais-to,la-ka-kia-is-to,-0.35,-0.109259259,1,0,0,1.5018,text_option_1,,0,84,84,14,1
5ab3e44cf5918d00012e947a,63f3cfca20052e4ae7554ebf,6453cc133884f0c200ba1892,2023-05-04_17h16.38.522,ga_syllabified_check,2022.2.5,Win32,30.00660145,,,,,,,,,,,,,,./stim/p06_syllable_1_nhiape_hit.wav,p06,ñiape,hit,nhi-a-pe,ñia-pe,ñi-a-pe, ,0.415740741,-0.118518519,1,0,0,1.3592,text_option_2,,0,85,85,125,1
5ab3e44cf5918d00012e947a,63f3cfca20052e4ae7554ebf,6453cc133884f0c200ba1892,2023-05-04_17h16.38.522,ga_syllabified_check,2022.2.5,Win32,30.00660145,,,,,,,,,,,,,,./stim/p07_syllable_1_falutraigo_hit.wav,p07,falutraigo,hit,fa-lu-trai-go,fa-lu-trai-go,fa-lu-tra-i-go, ,-0.387962963,-0.102777778,1,0,0,2.1683,text_option_1,,0,86,86,140,1
5ab3e44cf5918d00012e947a,63f3cfca20052e4ae7554ebf,6453cc133884f0c200ba1892,2023-05-04_17h16.38.522,ga_syllabified_check,2022.2.5,Win32,30.00660145,,,,,,,,,,,,,,./stim/p06_syllable_1_faluduako_hit.wav,p06,faluduako,hit,fa-lu-dua-ko,fa-lu-dua-ko,fa-lu-du-a-ko, ,0.464814815,-0.110185185,1,0,0,2.4421,text_option_2,,0,87,87,104,1
5ab3e44cf5918d00012e947a,63f3cfca20052e4ae7554ebf,6453cc133884f0c200ba1892,2023-05-04_17h16.38.522,ga_syllabified_check,2022.2.5,Win32,30.00660145,,,,,,,,,,,,,,./stim/p08_syllable_1_paluguato_hit.wav,p08,paluguato,hit,pa-lu-gua-to,pa-lu-gua-to,pa-lu-gu-a-to, ,-0.427777778,-0.107407407,1,0,0,2.2567,text_option_1,,0,88,88,197,1
5ab3e44cf5918d00012e947a,63f3cfca20052e4ae7554ebf,6453cc133884f0c200ba1892,2023-05-04_17h16.38.522,ga_syllabified_check,2022.2.5,Win32,30.00660145,,,,,,,,,,,,,,./stim/p07_syllable_1_paluguato_hit.wav,p07,paluguato,hit,pa-lu-gua-to,pa-lu-gua-to,pa-lu-gu-a-to, ,-0.427777778,-0.107407407,1,0,0,0.9818,text_option_1,,0,89,89,163,1
5ab3e44cf5918d00012e947a,63f3cfca20052e4ae7554ebf,6453cc133884f0c200ba1892,2023-05-04_17h16.38.522,ga_syllabified_check,2022.2.5,Win32,30.00660145,,,,,,,,,,,,,,./stim/p04_syllable_1_pachialo_hit.wav,p04,pachialo,hit,pa-chia-lo,pa-chia-lo,pa-chi-a-lo, ,-0.422222222,-0.103703704,1,0,0,0.4939,text_option_1,,0,90,90,58,1
5ab3e44cf5918d00012e947a,63f3cfca20052e4ae7554ebf,6453cc133884f0c200ba1892,2023-05-04_17h16.38.522,ga_syllabified_check,2022.2.5,Win32,30.00660145,,,,,,,,,,,,,,./stim/p06_syllable_1_manhiala_hit.wav,p06,mañiala,hit,ma-nhi-a-la,ma-ñia-la,ma-ñi-a-la, ,0.4,-0.093518519,1,0,0,1.531,text_option_2,,0,91,91,123,1
5ab3e44cf5918d00012e947a,63f3cfca20052e4ae7554ebf,6453cc133884f0c200ba1892,2023-05-04_17h16.38.522,ga_syllabified_check,2022.2.5,Win32,30.00660145,,,,,,,,,,,,,,./stim/p04_syllable_1_lakatiaisto_hit.wav,p04,lakatiaisto,hit,la-ka-kiais-to,la-ka-tiais-to,la-ka-ti-ais-to,la-ka-tia-is-to,-0.019444444,-0.09537037,1,0,0,2.4412,text_option_3,,0,92,92,52,1
5ab3e44cf5918d00012e947a,63f3cfca20052e4ae7554ebf,6453cc133884f0c200ba1892,2023-05-04_17h16.38.522,ga_syllabified_check,2022.2.5,Win32,30.00660145,,,,,,,,,,,,,,./stim/p05_syllable_1_palufauro_hit.wav,p05,palufauro,hit,pa-lu-fau-ro,pa-lu-fau-ro,pa-lu-fa-u-ro, ,-0.32962963,-0.103703704,1,0,0,1.0087,text_option_1,,0,93,93,93,1
5ab3e44cf5918d00012e947a,63f3cfca20052e4ae7554ebf,6453cc133884f0c200ba1892,2023-05-04_17h16.38.522,ga_syllabified_check,2022.2.5,Win32,30.00660145,,,,,,,,,,,,,,./stim/p04_syllable_1_palumaisto_hit.wav,p04,palumaisto,hit,pa-lu-mais-to,pa-lu-mais-to,pa-lu-ma-is-to, ,-0.32962963,-0.103703704,1,0,0,0.7338,text_option_1,,0,94,94,62,1
5ab3e44cf5918d00012e947a,63f3cfca20052e4ae7554ebf,6453cc133884f0c200ba1892,2023-05-04_17h16.38.522,ga_syllabified_check,2022.2.5,Win32,30.00660145,,,,,,,,,,,,,,./stim/p06_syllable_1_falutraigo_hit.wav,p06,falutraigo,hit,fa-lu-tra-i-go,fa-lu-trai-go,fa-lu-tra-i-go, ,0.333333333,-0.097222222,1,0,0,2.5774,text_option_2,,0,95,95,106,1
5ab3e44cf5918d00012e947a,63f3cfca20052e4ae7554ebf,6453cc133884f0c200ba1892,2023-05-04_17h16.38.522,ga_syllabified_check,2022.2.5,Win32,30.00660145,,,,,,,,,,,,,,./stim/p05_syllable_1_lakapuaisto_hit.wav,p05,lakapuaisto,hit,la-ka-pais-to,la-ka-puais-to,la-ka-pu-ais-to,la-ka-pua-is-to,-0.036111111,-0.29537037,1,0,0,2.3368,text_option_other,la-ka-pa-is-to,0,96,96,85,1
5ab3e44cf5918d00012e947a,63f3cfca20052e4ae7554ebf,6453cc133884f0c200ba1892,2023-05-04_17h16.38.522,ga_syllabified_check,2022.2.5,Win32,30.00660145,,,,,,,,,,,,,,./stim/p04_syllable_1_lakatuaisto_hit.wav,p04,lakatuaisto,hit,la-ka-kuais-to,la-ka-tuais-to,la-ka-tu-ais-to,la-ka-tua-is-to,-0.344444444,-0.110185185,1,0,0,1.1785,text_option_1,,0,97,97,53,1
5ab3e44cf5918d00012e947a,63f3cfca20052e4ae7554ebf,6453cc133884f0c200ba1892,2023-05-04_17h16.38.522,ga_syllabified_check,2022.2.5,Win32,30.00660145,,,,,,,,,,,,,,./stim/p05_syllable_1_lakafiaisto_hit.wav,p05,lakafiaisto,hit,la-ka-fi-ais-to,la-ka-fiais-to,la-ka-fi-ais-to,la-ka-fia-is-to,-0.348148148,-0.113888889,1,0,0,1.1531,text_option_1,,0,98,98,78,1
5ab3e44cf5918d00012e947a,63f3cfca20052e4ae7554ebf,6453cc133884f0c200ba1892,2023-05-04_17h16.38.522,ga_syllabified_check,2022.2.5,Win32,30.00660145,,,,,,,,,,,,,,./stim/p08_syllable_1_ruyiola_hit.wav,p08,ruyiola,hit,ru-yio-la,ru-yio-la,ru-yi-o-la, ,-0.361111111,-0.097222222,1,0,0,0.8813,text_option_1,,0,99,99,202,1
5ab3e44cf5918d00012e947a,63f3cfca20052e4ae7554ebf,6453cc133884f0c200ba1892,2023-05-04_17h16.38.522,ga_syllabified_check,2022.2.5,Win32,30.00660145,,,,,,,,,,,,,,./stim/p03_syllable_1_lakafiaisto_hit.wav,p03,lakafiaisto,hit,la-ka-fiais-to,la-ka-fiais-to,la-ka-fi-ais-to,la-ka-fia-is-to,-0.353703704,-0.110185185,1,0,0,0.9514,text_option_1,,0,100,100,10,1
5ab3e44cf5918d00012e947a,63f3cfca20052e4ae7554ebf,6453cc133884f0c200ba1892,2023-05-04_17h16.38.522,ga_syllabified_check,2022.2.5,Win32,30.00660145,,,,,,,,,,,,,,./stim/p08_syllable_1_lakaduaisto_hit.wav,p08,lakaduaisto,hit,la-ka-du-ais-to,la-ka-duais-to,la-ka-du-ais-to,la-ka-dua-is-to,0.00462963,-0.112962963,1,0,0,2.1239,text_option_3,,0,101,101,179,1
5ab3e44cf5918d00012e947a,63f3cfca20052e4ae7554ebf,6453cc133884f0c200ba1892,2023-05-04_17h16.38.522,ga_syllabified_check,2022.2.5,Win32,30.00660145,,,,,,,,,,,,,,./stim/p05_syllable_1_tuliafo_hit.wav,p05,tuliafo,hit,tu-lai-fo,tu-lia-fo,tu-li-a-fo, ,0.365740741,-0.108333333,1,0,0,1.6994,text_option_2,,0,102,102,101,1
5ab3e44cf5918d00012e947a,63f3cfca20052e4ae7554ebf,6453cc133884f0c200ba1892,2023-05-04_17h16.38.522,ga_syllabified_check,2022.2.5,Win32,30.00660145,,,,,,,,,,,,,,./stim/p04_syllable_1_lakadiaisto_hit.wav,p04,lakadiaisto,hit,la-ka-dias-to,la-ka-diais-to,la-ka-di-ais-to,la-ka-dia-is-to,-0.331481481,-0.091666667,1,0,0,1.8941,text_option_1,,0,103,103,42,1
5ab3e44cf5918d00012e947a,63f3cfca20052e4ae7554ebf,6453cc133884f0c200ba1892,2023-05-04_17h16.38.522,ga_syllabified_check,2022.2.5,Win32,30.00660145,,,,,,,,,,,,,,./stim/p04_syllable_1_lakapiaisto_hit.wav,p04,lakapiaisto,hit,la-ka-piais-to,la-ka-piais-to,la-ka-pi-ais-to,la-ka-pia-is-to,-0.334259259,-0.092592593,1,0,0,0.733,text_option_1,,0,104,104,50,1
5ab3e44cf5918d00012e947a,63f3cfca20052e4ae7554ebf,6453cc133884f0c200ba1892,2023-05-04_17h16.38.522,ga_syllabified_check,2022.2.5,Win32,30.00660145,,,,,,,,,,,,,,./stim/p04_syllable_1_tuliafo_hit.wav,p04,tuliafo,hit,tu-lia-fo,tu-lia-fo,tu-li-a-fo, ,-0.335185185,-0.092592593,1,0,0,0.1621,text_option_1,,0,105,105,67,1
5ab3e44cf5918d00012e947a,63f3cfca20052e4ae7554ebf,6453cc133884f0c200ba1892,2023-05-04_17h16.38.522,ga_syllabified_check,2022.2.5,Win32,30.00660145,,,,,,,,,,,,,,./stim/p07_syllable_1_lakapuaisto_hit.wav,p07,lakapuaisto,hit,la-ka-puais-to,la-ka-puais-to,la-ka-pu-ais-to,la-ka-pua-is-to,-0.339814815,-0.092592593,1,0,0,1.5931,text_option_1,,0,106,106,153,1
5ab3e44cf5918d00012e947a,63f3cfca20052e4ae7554ebf,6453cc133884f0c200ba1892,2023-05-04_17h16.38.522,ga_syllabified_check,2022.2.5,Win32,30.00660145,,,,,,,,,,,,,,./stim/p07_syllable_1_nhiape_hit.wav,p07,ñiape,hit,nhia-pe,ñia-pe,ñi-a-pe, ,-0.366666667,-0.099074074,1,0,0,0.3011,text_option_1,,0,107,107,159,1
5ab3e44cf5918d00012e947a,63f3cfca20052e4ae7554ebf,6453cc133884f0c200ba1892,2023-05-04_17h16.38.522,ga_syllabified_check,2022.2.5,Win32,30.00660145,,,,,,,,,,,,,,./stim/p07_syllable_1_ruyiola_hit.wav,p07,ruyiola,hit,ru-yio-la,ru-yio-la,ru-yi-o-la, ,-0.366666667,-0.099074074,1,0,0,0.6783,text_option_1,,0,108,108,168,1
5ab3e44cf5918d00012e947a,63f3cfca20052e4ae7554ebf,6453cc133884f0c200ba1892,2023-05-04_17h16.38.522,ga_syllabified_check,2022.2.5,Win32,30.00660145,,,,,,,,,,,,,,./stim/p04_syllable_1_palufauro_hit.wav,p04,palufauro,hit,pa-lu-fau-ro,pa-lu-fau-ro,pa-lu-fa-u-ro, ,-0.366666667,-0.099074074,1,0,0,0.7498,text_option_1,,0,109,109,59,1
5ab3e44cf5918d00012e947a,63f3cfca20052e4ae7554ebf,6453cc133884f0c200ba1892,2023-05-04_17h16.38.522,ga_syllabified_check,2022.2.5,Win32,30.00660145,,,,,,,,,,,,,,./stim/p04_syllable_1_lliape_hit.wav,p04,lliape,hit,lia-pe,llia-pe,lli-a-pe, ,-0.366666667,-0.099074074,1,0,0,0.1939,text_option_1,,0,110,110,54,1
5ab3e44cf5918d00012e947a,63f3cfca20052e4ae7554ebf,6453cc133884f0c200ba1892,2023-05-04_17h16.38.522,ga_syllabified_check,2022.2.5,Win32,30.00660145,,,,,,,,,,,,,,./stim/p04_syllable_1_lakaguaisto_hit.wav,p04,lakaguaisto,hit,la-ka-guais-to,la-ka-guais-to,la-ka-gu-ais-to,la-ka-gua-is-to,-0.366666667,-0.099074074,1,0,0,0.8052,text_option_1,,0,111,111,47,1
5ab3e44cf5918d00012e947a,63f3cfca20052e4ae7554ebf,6453cc133884f0c200ba1892,2023-05-04_17h16.38.522,ga_syllabified_check,2022.2.5,Win32,30.00660145,,,,,,,,,,,,,,./stim/p05_syllable_1_lakaguaisto_hit.wav,p05,lakaguaisto,hit,la-ka-gais,la-ka-guais-to,la-ka-gu-ais-to,la-ka-gua-is-to,0.060185185,-0.292592593,1,0,0,2.771,text_option_other,la-ka-gais-to,0,112,112,81,1
5ab3e44cf5918d00012e947a,63f3cfca20052e4ae7554ebf,6453cc133884f0c200ba1892,2023-05-04_17h16.38.522,ga_syllabified_check,2022.2.5,Win32,30.00660145,,,,,,,,,,,,,,./stim/p05_syllable_1_ruyiola_hit.wav,p05,ruyiola,hit,ru-yio-la,ru-yio-la,ru-yi-o-la, ,-0.347222222,-0.09537037,1,0,0,0.9167,text_option_1,,0,113,113,100,1
5ab3e44cf5918d00012e947a,63f3cfca20052e4ae7554ebf,6453cc133884f0c200ba1892,2023-05-04_17h16.38.522,ga_syllabified_check,2022.2.5,Win32,30.00660145,,,,,,,,,,,,,,./stim/p07_syllable_1_lakatuaisto_hit.wav,p07,lakatuaisto,hit,la-ka-tuais-to,la-ka-tuais-to,la-ka-tu-ais-to,la-ka-tua-is-to,-0.330555556,-0.111111111,1,0,0,2.1623,text_option_1,,0,114,114,155,1
5ab3e44cf5918d00012e947a,63f3cfca20052e4ae7554ebf,6453cc133884f0c200ba1892,2023-05-04_17h16.38.522,ga_syllabified_check,2022.2.5,Win32,30.00660145,,,,,,,,,,,,,,./stim/p07_syllable_1_lakakuaisto_hit.wav,p07,lakakuaisto,hit,la-ka-kuais-to,la-ka-kuais-to,la-ka-ku-ais-to,la-ka-kua-is-to,-0.330555556,-0.111111111,1,0,0,1.1712,text_option_1,,0,115,115,151,1
5ab3e44cf5918d00012e947a,63f3cfca20052e4ae7554ebf,6453cc133884f0c200ba1892,2023-05-04_17h16.38.522,ga_syllabified_check,2022.2.5,Win32,30.00660145,,,,,,,,,,,,,,./stim/p04_syllable_1_lakagiaisto_hit.wav,p04,lakagiaisto,hit,la-ka-giais-to,la-ka-giais-to,la-ka-gi-ais-to,la-ka-gia-is-to,-0.332407407,-0.106481481,1,0,0,1.0439,text_option_1,,0,116,116,46,1
5ab3e44cf5918d00012e947a,63f3cfca20052e4ae7554ebf,6453cc133884f0c200ba1892,2023-05-04_17h16.38.522,ga_syllabified_check,2022.2.5,Win32,30.00660145,,,,,,,,,,,,,,./stim/p03_syllable_1_lakatiaisto_hit.wav,p03,lakatiaisto,hit,la-ka-tiais-to,la-ka-tiais-to,la-ka-ti-ais-to,la-ka-tia-is-to,-0.332407407,-0.106481481,1,0,0,1.2618,text_option_1,,0,117,117,18,1
5ab3e44cf5918d00012e947a,63f3cfca20052e4ae7554ebf,6453cc133884f0c200ba1892,2023-05-04_17h16.38.522,ga_syllabified_check,2022.2.5,Win32,30.00660145,,,,,,,,,,,,,,./stim/p07_syllable_1_lakaguaisto_hit.wav,p07,lakaguaisto,hit,la-ka-guais-to,la-ka-guais-to,la-ka-gu-ais-to,la-ka-gua-is-to,-0.334259259,-0.1,1,0,0,1.1796,text_option_1,,0,118,118,149,1
5ab3e44cf5918d00012e947a,63f3cfca20052e4ae7554ebf,6453cc133884f0c200ba1892,2023-05-04_17h16.38.522,ga_syllabified_check,2022.2.5,Win32,30.00660145,,,,,,,,,,,,,,./stim/p06_syllable_1_lakaduaisto_hit.wav,p06,lakaduaisto,hit,la-ka-du-a-is,la-ka-duais-to,la-ka-du-ais-to,la-ka-dua-is-to,0.030555556,-0.106481481,1,0,0,2.6245,text_option_3,,0,119,119,111,1
5ab3e44cf5918d00012e947a,63f3cfca20052e4ae7554ebf,6453cc133884f0c200ba1892,2023-05-04_17h16.38.522,ga_syllabified_check,2022.2.5,Win32,30.00660145,,,,,,,,,,,,,,./stim/p04_syllable_1_payielo_hit.wav,p04,payielo,hit,pa-yie-lo,pa-yie-lo,pa-yi-e-lo, ,0.35,-0.09537037,1,0,0,1.4441,text_option_2,,0,120,120,64,1
5ab3e44cf5918d00012e947a,63f3cfca20052e4ae7554ebf,6453cc133884f0c200ba1892,2023-05-04_17h16.38.522,ga_syllabified_check,2022.2.5,Win32,30.00660145,,,,,,,,,,,,,,./stim/p08_syllable_1_rausto_hit.wav,p08,rausto,hit,raus-to,raus-to,ra-us-to, ,-0.431481481,-0.10462963,1,0,0,0.9527,text_option_1,,0,121,121,201,1
5ab3e44cf5918d00012e947a,63f3cfca20052e4ae7554ebf,6453cc133884f0c200ba1892,2023-05-04_17h16.38.522,ga_syllabified_check,2022.2.5,Win32,30.00660145,,,,,,,,,,,,,,./stim/p04_syllable_1_lakaduaisto_hit.wav,p04,lakaduaisto,hit,la-ka-duais-to,la-ka-duais-to,la-ka-du-ais-to,la-ka-dua-is-to,-0.312962963,-0.1,1,0,0,0.6449,text_option_1,,0,122,122,43,1
5ab3e44cf5918d00012e947a,63f3cfca20052e4ae7554ebf,6453cc133884f0c200ba1892,2023-05-04_17h16.38.522,ga_syllabified_check,2022.2.5,Win32,30.00660145,,,,,,,,,,,,,,./stim/p05_syllable_1_falufaisto_hit.wav,p05,falufaisto,hit,fa-lu-fais-to,fa-lu-fais-to,fa-lu-fa-is-to, ,-0.324074074,-0.096296296,1,0,0,0.4131,text_option_1,,0,123,123,71,1
5ab3e44cf5918d00012e947a,63f3cfca20052e4ae7554ebf,6453cc133884f0c200ba1892,2023-05-04_17h16.38.522,ga_syllabified_check,2022.2.5,Win32,30.00660145,,,,,,,,,,,,,,./stim/p05_syllable_1_lakabiaisto_hit.wav,p05,lakabiaisto,hit,la-ka-bi-ais-to,la-ka-biais-to,la-ka-bi-ais-to,la-ka-bia-is-to,-0.328703704,-0.101851852,1,0,0,1.2123,text_option_1,,0,124,124,74,1
5ab3e44cf5918d00012e947a,63f3cfca20052e4ae7554ebf,6453cc133884f0c200ba1892,2023-05-04_17h16.38.522,ga_syllabified_check,2022.2.5,Win32,30.00660145,,,,,,,,,,,,,,./stim/p06_syllable_1_palufauro_hit.wav,p06,palufauro,hit,pa-lu-fau-ro,pa-lu-fau-ro,pa-lu-fa-u-ro, ,0.339814815,-0.096296296,1,0,0,2.1331,text_option_2,,0,125,125,127,1
5ab3e44cf5918d00012e947a,63f3cfca20052e4ae7554ebf,6453cc133884f0c200ba1892,2023-05-04_17h16.38.522,ga_syllabified_check,2022.2.5,Win32,30.00660145,,,,,,,,,,,,,,./stim/p08_syllable_1_falutraigo_hit.wav,p08,falutraigo,hit,fa-lu-trai-go,fa-lu-trai-go,fa-lu-tra-i-go, ,0.343518519,-0.1,1,0,0,3.0674,text_option_2,,0,126,126,174,1
5ab3e44cf5918d00012e947a,63f3cfca20052e4ae7554ebf,6453cc133884f0c200ba1892,2023-05-04_17h16.38.522,ga_syllabified_check,2022.2.5,Win32,30.00660145,,,,,,,,,,,,,,./stim/p04_syllable_1_lakakiaisto_hit.wav,p04,lakakiaisto,hit,la-ka-kiais-to,la-ka-kiais-to,la-ka-ki-ais-to,la-ka-kia-is-to,-0.328703704,-0.101851852,1,0,0,1.3135,text_option_1,,0,127,127,48,1
5ab3e44cf5918d00012e947a,63f3cfca20052e4ae7554ebf,6453cc133884f0c200ba1892,2023-05-04_17h16.38.522,ga_syllabified_check,2022.2.5,Win32,30.00660145,,,,,,,,,,,,,,./stim/p08_syllable_1_tuliafo_hit.wav,p08,tuliafo,hit,tu-li-a-fo,tu-lia-fo,tu-li-a-fo, ,0.346296296,-0.100925926,1,0,0,1.1368,text_option_2,,0,128,128,203,1
5ab3e44cf5918d00012e947a,63f3cfca20052e4ae7554ebf,6453cc133884f0c200ba1892,2023-05-04_17h16.38.522,ga_syllabified_check,2022.2.5,Win32,30.00660145,,,,,,,,,,,,,,./stim/p04_syllable_1_palufauto_hit.wav,p04,palufauto,hit,pa-lu-fau-to,pa-lu-fau-to,pa-lu-fa-u-to, ,-0.348148148,-0.107407407,1,0,0,0.3102,text_option_1,,0,129,129,60,1
5ab3e44cf5918d00012e947a,63f3cfca20052e4ae7554ebf,6453cc133884f0c200ba1892,2023-05-04_17h16.38.522,ga_syllabified_check,2022.2.5,Win32,30.00660145,,,,,,,,,,,,,,./stim/p05_syllable_1_mebochiana_hit.wav,p05,mebochiana,hit,me-cho-chai-na,me-bo-chia-na,me-bo-chi-a-na, ,-0.014814815,-0.300925926,1,0,0,1.8286,text_option_other,me-cho-chai-na,0,130,130,90,1
5ab3e44cf5918d00012e947a,63f3cfca20052e4ae7554ebf,6453cc133884f0c200ba1892,2023-05-04_17h16.38.522,ga_syllabified_check,2022.2.5,Win32,30.00660145,,,,,,,,,,,,,,./stim/p07_syllable_1_lliape_hit.wav,p07,lliape,hit,lliai-pe,llia-pe,lli-a-pe, ,-0.375925926,-0.092592593,1,0,0,1.4117,text_option_1,,0,131,131,156,1
5ab3e44cf5918d00012e947a,63f3cfca20052e4ae7554ebf,6453cc133884f0c200ba1892,2023-05-04_17h16.38.522,ga_syllabified_check,2022.2.5,Win32,30.00660145,,,,,,,,,,,,,,./stim/p05_syllable_1_faluduako_hit.wav,p05,faluduako,hit,fa-lu-ba-ko,fa-lu-dua-ko,fa-lu-du-a-ko, ,-0.394444444,-0.110185185,1,0,0,1.4604,text_option_1,,0,132,132,70,1
5ab3e44cf5918d00012e947a,63f3cfca20052e4ae7554ebf,6453cc133884f0c200ba1892,2023-05-04_17h16.38.522,ga_syllabified_check,2022.2.5,Win32,30.00660145,,,,,,,,,,,,,,./stim/p08_syllable_1_lakatiaisto_hit.wav,p08,lakatiaisto,hit,la-ka-ti-as-to,la-ka-tiais-to,la-ka-ti-ais-to,la-ka-tia-is-to,-0.336111111,-0.117592593,1,0,0,2.6751,text_option_1,,0,133,133,188,1
5ab3e44cf5918d00012e947a,63f3cfca20052e4ae7554ebf,6453cc133884f0c200ba1892,2023-05-04_17h16.38.522,ga_syllabified_check,2022.2.5,Win32,30.00660145,,,,,,,,,,,,,,./stim/p06_syllable_1_palutrauco_hit.wav,p06,palutrauco,hit,pa-lu-tra-u-co,pa-lu-trau-co,pa-lu-tra-u-co, ,0.330555556,-0.112037037,1,0,0,1.8713,text_option_2,,0,134,134,131,1
5ab3e44cf5918d00012e947a,63f3cfca20052e4ae7554ebf,6453cc133884f0c200ba1892,2023-05-04_17h16.38.522,ga_syllabified_check,2022.2.5,Win32,30.00660145,,,,,,,,,,,,,,./stim/p03_syllable_1_nhiape_hit.wav,p03,ñiape,hit,nhia-pe,ñia-pe,ñi-a-pe, ,-0.371296296,-0.099074074,1,0,0,0.4917,text_option_1,,0,135,135,23,1
5ab3e44cf5918d00012e947a,63f3cfca20052e4ae7554ebf,6453cc133884f0c200ba1892,2023-05-04_17h16.38.522,ga_syllabified_check,2022.2.5,Win32,30.00660145,,,,,,,,,,,,,,./stim/p03_syllable_1_lakafuaisto_hit.wav,p03,lakafuaisto,hit,la-ka-fuais-to,la-ka-fuais-to,la-ka-fu-ais-to,la-ka-fua-is-to,-0.371296296,-0.099074074,1,0,0,1.0909,text_option_1,,0,136,136,11,1
5ab3e44cf5918d00012e947a,63f3cfca20052e4ae7554ebf,6453cc133884f0c200ba1892,2023-05-04_17h16.38.522,ga_syllabified_check,2022.2.5,Win32,30.00660145,,,,,,,,,,,,,,./stim/p08_syllable_1_lakagiaisto_hit.wav,p08,lakagiaisto,hit,la-ka-gi-jas-to,la-ka-giais-to,la-ka-gi-ais-to,la-ka-gia-is-to,-0.371296296,-0.099074074,1,0,0,2.089,text_option_1,,0,137,137,182,1
5ab3e44cf5918d00012e947a,63f3cfca20052e4ae7554ebf,6453cc133884f0c200ba1892,2023-05-04_17h16.38.522,ga_syllabified_check,2022.2.5,Win32,30.00660145,,,,,,,,,,,,,,./stim/p07_syllable_1_manhiala_hit.wav,p07,mañiala,hit,ma-nhia-la,ma-ñia-la,ma-ñi-a-la, ,-0.361111111,-0.098148148,1,0,0,1.826,text_option_1,,0,138,138,157,1
5ab3e44cf5918d00012e947a,63f3cfca20052e4ae7554ebf,6453cc133884f0c200ba1892,2023-05-04_17h16.38.522,ga_syllabified_check,2022.2.5,Win32,30.00660145,,,,,,,,,,,,,,./stim/p07_syllable_1_rausto_hit.wav,p07,rausto,hit,raus-to,raus-to,ra-us-to, ,-0.35462963,-0.1,1,0,0,0.3316,text_option_1,,0,139,139,167,1
5ab3e44cf5918d00012e947a,63f3cfca20052e4ae7554ebf,6453cc133884f0c200ba1892,2023-05-04_17h16.38.522,ga_syllabified_check,2022.2.5,Win32,30.00660145,,,,,,,,,,,,,,./stim/p07_syllable_1_tuliafo_hit.wav,p07,tuliafo,hit,tu-lia-fo,tu-lia-fo,tu-li-a-fo, ,-0.35462963,-0.1,1,0,0,0.6305,text_option_1,,0,140,140,169,1
5ab3e44cf5918d00012e947a,63f3cfca20052e4ae7554ebf,6453cc133884f0c200ba1892,2023-05-04_17h16.38.522,ga_syllabified_check,2022.2.5,Win32,30.00660145,,,,,,,,,,,,,,./stim/p06_syllable_1_lakapiaisto_hit.wav,p06,lakapiaisto,hit,la-ka-pia-is-to,la-ka-piais-to,la-ka-pi-ais-to,la-ka-pia-is-to,0.076851852,-0.096296296,1,0,0,5.162,text_option_3,,0,141,141,118,1
5ab3e44cf5918d00012e947a,63f3cfca20052e4ae7554ebf,6453cc133884f0c200ba1892,2023-05-04_17h16.38.522,ga_syllabified_check,2022.2.5,Win32,30.00660145,,,,,,,,,,,,,,./stim/p07_syllable_1_chiaba_hit.wav,p07,chiaba,hit,chia-ba,chia-ba,chi-a-ba, ,-0.362962963,-0.112037037,1,0,0,0.5207,text_option_1,,0,142,142,136,1
5ab3e44cf5918d00012e947a,63f3cfca20052e4ae7554ebf,6453cc133884f0c200ba1892,2023-05-04_17h16.38.522,ga_syllabified_check,2022.2.5,Win32,30.00660145,,,,,,,,,,,,,,./stim/p03_syllable_1_rausto_hit.wav,p03,rausto,hit,raus-to,raus-to,ra-us-to, ,-0.362037037,-0.112962963,1,0,0,0.5252,text_option_1,,0,143,143,31,1
5ab3e44cf5918d00012e947a,63f3cfca20052e4ae7554ebf,6453cc133884f0c200ba1892,2023-05-04_17h16.38.522,ga_syllabified_check,2022.2.5,Win32,30.00660145,,,,,,,,,,,,,,./stim/p08_syllable_1_mebochiana_hit.wav,p08,mebochiana,hit,me-bo-chi-a-na,me-bo-chia-na,me-bo-chi-a-na, ,-0.362037037,-0.112962963,1,0,0,2.0378,text_option_1,,0,144,144,192,1
5ab3e44cf5918d00012e947a,63f3cfca20052e4ae7554ebf,6453cc133884f0c200ba1892,2023-05-04_17h16.38.522,ga_syllabified_check,2022.2.5,Win32,30.00660145,,,,,,,,,,,,,,./stim/p07_syllable_1_payielo_hit.wav,p07,payielo,hit,pa-yie-lo,pa-yie-lo,pa-yi-e-lo, ,-0.362037037,-0.112962963,1,0,0,0.4884,text_option_1,,0,145,145,166,1
5ab3e44cf5918d00012e947a,63f3cfca20052e4ae7554ebf,6453cc133884f0c200ba1892,2023-05-04_17h16.38.522,ga_syllabified_check,2022.2.5,Win32,30.00660145,,,,,,,,,,,,,,./stim/p03_syllable_1_palumaisto_hit.wav,p03,palumaisto,hit,pa-lu-mais-to,pa-lu-mais-to,pa-lu-ma-is-to, ,-0.362037037,-0.112962963,1,0,0,0.7553,text_option_1,,0,146,146,28,1
5ab3e44cf5918d00012e947a,63f3cfca20052e4ae7554ebf,6453cc133884f0c200ba1892,2023-05-04_17h16.38.522,ga_syllabified_check,2022.2.5,Win32,30.00660145,,,,,,,,,,,,,,./stim/p03_syllable_1_lakagiaisto_hit.wav,p03,lakagiaisto,hit,la-ka-giais-to,la-ka-giais-to,la-ka-gi-ais-to,la-ka-gia-is-to,-0.362037037,-0.112962963,1,0,0,1.1119,text_option_1,,0,147,147,12,1
5ab3e44cf5918d00012e947a,63f3cfca20052e4ae7554ebf,6453cc133884f0c200ba1892,2023-05-04_17h16.38.522,ga_syllabified_check,2022.2.5,Win32,30.00660145,,,,,,,,,,,,,,./stim/p05_syllable_1_paluguato_hit.wav,p05,paluguato,hit,pa-lu-gau-to,pa-lu-gua-to,pa-lu-gu-a-to, ,-0.039814815,-0.293518519,1,0,0,2.2415,text_option_other,pa-lu-kau-to,0,148,148,95,1
5ab3e44cf5918d00012e947a,63f3cfca20052e4ae7554ebf,6453cc133884f0c200ba1892,2023-05-04_17h16.38.522,ga_syllabified_check,2022.2.5,Win32,30.00660145,,,,,,,,,,,,,,./stim/p03_syllable_1_tuliafo_hit.wav,p03,tuliafo,hit,tu-lia-fo,tu-lia-fo,tu-li-a-fo, ,-0.351851852,-0.107407407,1,0,0,0.4507,text_option_1,,0,149,149,33,1
5ab3e44cf5918d00012e947a,63f3cfca20052e4ae7554ebf,6453cc133884f0c200ba1892,2023-05-04_17h16.38.522,ga_syllabified_check,2022.2.5,Win32,30.00660145,,,,,,,,,,,,,,./stim/p05_syllable_1_lakapiaisto_hit.wav,p05,lakapiaisto,hit,la-ka-pais-to,la-ka-piais-to,la-ka-pi-ais-to,la-ka-pia-is-to,0.015740741,-0.32037037,1,0,0,1.9968,text_option_other,la-ka-pais-to,0,150,150,84,1
5ab3e44cf5918d00012e947a,63f3cfca20052e4ae7554ebf,6453cc133884f0c200ba1892,2023-05-04_17h16.38.522,ga_syllabified_check,2022.2.5,Win32,30.00660145,,,,,,,,,,,,,,./stim/p03_syllable_1_lakapiaisto_hit.wav,p03,lakapiaisto,hit,la-ka-piais-to,la-ka-piais-to,la-ka-pi-ais-to,la-ka-pia-is-to,-0.408333333,-0.101851852,1,0,0,1.0326,text_option_1,,0,151,151,16,1
5ab3e44cf5918d00012e947a,63f3cfca20052e4ae7554ebf,6453cc133884f0c200ba1892,2023-05-04_17h16.38.522,ga_syllabified_check,2022.2.5,Win32,30.00660145,,,,,,,,,,,,,,./stim/p03_syllable_1_payielo_hit.wav,p03,payielo,hit,pa-yie-lo,pa-yie-lo,pa-yi-e-lo, ,-0.408333333,-0.101851852,1,0,0,0.0696,text_option_1,,0,152,152,30,1
5ab3e44cf5918d00012e947a,63f3cfca20052e4ae7554ebf,6453cc133884f0c200ba1892,2023-05-04_17h16.38.522,ga_syllabified_check,2022.2.5,Win32,30.00660145,,,,,,,,,,,,,,./stim/p06_syllable_1_payielo_hit.wav,p06,payielo,hit,pa-yi-e-lo,pa-yie-lo,pa-yi-e-lo, ,0.472222222,-0.106481481,1,0,0,1.1953,text_option_2,,0,153,153,132,1
5ab3e44cf5918d00012e947a,63f3cfca20052e4ae7554ebf,6453cc133884f0c200ba1892,2023-05-04_17h16.38.522,ga_syllabified_check,2022.2.5,Win32,30.00660145,,,,,,,,,,,,,,./stim/p08_syllable_1_lakabuaisto_hit.wav,p08,lakabuaisto,hit,la-ka-bu-ais-to,la-ka-buais-to,la-ka-bu-ais-to,la-ka-bua-is-to,0.026851852,-0.1,1,0,0,3.9688,text_option_3,,0,154,154,177,1
5ab3e44cf5918d00012e947a,63f3cfca20052e4ae7554ebf,6453cc133884f0c200ba1892,2023-05-04_17h16.38.522,ga_syllabified_check,2022.2.5,Win32,30.00660145,,,,,,,,,,,,,,./stim/p03_syllable_1_lakaduaisto_hit.wav,p03,lakaduaisto,hit,la-ka-duais-to,la-ka-duais-to,la-ka-du-ais-to,la-ka-dua-is-to,-0.325925926,-0.098148148,1,0,0,1.2091,text_option_1,,0,155,155,9,1
5ab3e44cf5918d00012e947a,63f3cfca20052e4ae7554ebf,6453cc133884f0c200ba1892,2023-05-04_17h16.38.522,ga_syllabified_check,2022.2.5,Win32,30.00660145,,,,,,,,,,,,,,./stim/p08_syllable_1_lakatuaisto_hit.wav,p08,lakatuaisto,hit,la-ka-tu-i-jis,la-ka-tuais-to,la-ka-tu-ais-to,la-ka-tua-is-to,-0.012037037,-0.10462963,1,0,0,2.7104,text_option_3,,0,156,156,189,1
5ab3e44cf5918d00012e947a,63f3cfca20052e4ae7554ebf,6453cc133884f0c200ba1892,2023-05-04_17h16.38.522,ga_syllabified_check,2022.2.5,Win32,30.00660145,,,,,,,,,,,,,,./stim/p05_syllable_1_chiaba_hit.wav,p05,chiaba,hit,chia-ba,chia-ba,chi-a-ba, ,-0.399074074,-0.110185185,1,0,0,0.4289,text_option_1,,0,157,157,68,1
5ab3e44cf5918d00012e947a,63f3cfca20052e4ae7554ebf,6453cc133884f0c200ba1892,2023-05-04_17h16.38.522,ga_syllabified_check,2022.2.5,Win32,30.00660145,,,,,,,,,,,,,,./stim/p06_syllable_1_lliape_hit.wav,p06,lliape,hit,lli-lla-pe,llia-pe,lli-a-pe, ,0.418518519,-0.105555556,1,0,0,0.8095,text_option_2,,0,158,158,122,1
5ab3e44cf5918d00012e947a,63f3cfca20052e4ae7554ebf,6453cc133884f0c200ba1892,2023-05-04_17h16.38.522,ga_syllabified_check,2022.2.5,Win32,30.00660145,,,,,,,,,,,,,,./stim/p03_syllable_1_falufaisto_hit.wav,p03,falufaisto,hit,fa-lu-fais-to,fa-lu-fais-to,fa-lu-fa-is-to, ,-0.333333333,-0.103703704,1,0,0,1.2176,text_option_1,,0,159,159,3,1
5ab3e44cf5918d00012e947a,63f3cfca20052e4ae7554ebf,6453cc133884f0c200ba1892,2023-05-04_17h16.38.522,ga_syllabified_check,2022.2.5,Win32,30.00660145,,,,,,,,,,,,,,./stim/p08_syllable_1_lakafuaisto_hit.wav,p08,lakafuaisto,hit,la-ka-fju-ais-to,la-ka-fuais-to,la-ka-fu-ais-to,la-ka-fua-is-to,-0.333333333,-0.103703704,1,0,0,2.0108,text_option_1,,0,160,160,181,1
5ab3e44cf5918d00012e947a,63f3cfca20052e4ae7554ebf,6453cc133884f0c200ba1892,2023-05-04_17h16.38.522,ga_syllabified_check,2022.2.5,Win32,30.00660145,,,,,,,,,,,,,,./stim/p06_syllable_1_lakabuaisto_hit.wav,p06,lakabuaisto,hit,la-ka-bu-a-is,la-ka-buais-to,la-ka-bu-ais-to,la-ka-bua-is-to,0.373148148,-0.108333333,1,0,0,4.325,text_option_2,,0,161,161,109,1
5ab3e44cf5918d00012e947a,63f3cfca20052e4ae7554ebf,6453cc133884f0c200ba1892,2023-05-04_17h16.38.522,ga_syllabified_check,2022.2.5,Win32,30.00660145,,,,,,,,,,,,,,./stim/p08_syllable_1_lakapuaisto_hit.wav,p08,lakapuaisto,hit,la-ka-pu-as-to,la-ka-puais-to,la-ka-pu-ais-to,la-ka-pua-is-to,-0.32962963,-0.118518519,1,0,0,3.8631,text_option_1,,0,162,162,187,1
5ab3e44cf5918d00012e947a,63f3cfca20052e4ae7554ebf,6453cc133884f0c200ba1892,2023-05-04_17h16.38.522,ga_syllabified_check,2022.2.5,Win32,30.00660145,,,,,,,,,,,,,,./stim/p06_syllable_1_lakadiaisto_hit.wav,p06,lakadiaisto,hit,la-ka-dia-is-to,la-ka-diais-to,la-ka-di-ais-to,la-ka-dia-is-to,-0.010185185,-0.097222222,1,0,0,1.9194,text_option_3,,0,163,163,110,1
5ab3e44cf5918d00012e947a,63f3cfca20052e4ae7554ebf,6453cc133884f0c200ba1892,2023-05-04_17h16.38.522,ga_syllabified_check,2022.2.5,Win32,30.00660145,,,,,,,,,,,,,,./stim/p06_syllable_1_palumaisto_hit.wav,p06,palumaisto,hit,pa-lu-ma-is-to,pa-lu-mais-to,pa-lu-ma-is-to, ,0.423148148,-0.100925926,1,0,0,2.0834,text_option_2,,0,164,164,130,1
5ab3e44cf5918d00012e947a,63f3cfca20052e4ae7554ebf,6453cc133884f0c200ba1892,2023-05-04_17h16.38.522,ga_syllabified_check,2022.2.5,Win32,30.00660145,,,,,,,,,,,,,,./stim/p06_syllable_1_lakatuaisto_hit.wav,p06,lakatuaisto,hit,la-ka-tu-a-is,la-ka-tuais-to,la-ka-tu-ais-to,la-ka-tua-is-to,-0.027777778,-0.096296296,1,0,0,2.8837,text_option_3,,0,165,165,121,1
5ab3e44cf5918d00012e947a,63f3cfca20052e4ae7554ebf,6453cc133884f0c200ba1892,2023-05-04_17h16.38.522,ga_syllabified_check,2022.2.5,Win32,30.00660145,,,,,,,,,,,,,,./stim/p08_syllable_1_nhiape_hit.wav,p08,ñiape,hit,ni-a-pe,ñia-pe,ñi-a-pe, ,0.371296296,-0.09537037,1,0,0,0.5681,text_option_2,,0,166,166,193,1
5ab3e44cf5918d00012e947a,63f3cfca20052e4ae7554ebf,6453cc133884f0c200ba1892,2023-05-04_17h16.38.522,ga_syllabified_check,2022.2.5,Win32,30.00660145,,,,,,,,,,,,,,./stim/p03_syllable_1_manhiala_hit.wav,p03,mañiala,hit,ma-nhia-la,ma-ñia-la,ma-ñi-a-la, ,-0.356481481,-0.118518519,1,0,0,0.7395,text_option_1,,0,167,167,21,1
5ab3e44cf5918d00012e947a,63f3cfca20052e4ae7554ebf,6453cc133884f0c200ba1892,2023-05-04_17h16.38.522,ga_syllabified_check,2022.2.5,Win32,30.00660145,,,,,,,,,,,,,,./stim/p08_syllable_1_flauro_hit.wav,p08,flauro,hit,flau-ro,flau-ro,fla-u-ro, ,-0.415740741,-0.110185185,1,0,0,0.6476,text_option_1,,0,168,168,175,1
5ab3e44cf5918d00012e947a,63f3cfca20052e4ae7554ebf,6453cc133884f0c200ba1892,2023-05-04_17h16.38.522,ga_syllabified_check,2022.2.5,Win32,30.00660145,,,,,,,,,,,,,,./stim/p07_syllable_1_mebochiana_hit.wav,p07,mebochiana,hit,me-bo-chia-na,me-bo-chia-na,me-bo-chi-a-na, ,-0.397222222,-0.112037037,1,0,0,1.3297,text_option_1,,0,169,169,158,1
5ab3e44cf5918d00012e947a,63f3cfca20052e4ae7554ebf,6453cc133884f0c200ba1892,2023-05-04_17h16.38.522,ga_syllabified_check,2022.2.5,Win32,30.00660145,,,,,,,,,,,,,,./stim/p08_syllable_1_lakabiaisto_hit.wav,p08,lakabiaisto,hit,la-ka-bi-as-to,la-ka-biais-to,la-ka-bi-ais-to,la-ka-bia-is-to,-0.035185185,-0.100925926,1,0,0,3.5315,text_option_3,,0,170,170,176,1
5ab3e44cf5918d00012e947a,63f3cfca20052e4ae7554ebf,6453cc133884f0c200ba1892,2023-05-04_17h16.38.522,ga_syllabified_check,2022.2.5,Win32,30.00660145,,,,,,,,,,,,,,./stim/p03_syllable_1_lliape_hit.wav,p03,lliape,hit,llia,llia-pe,lli-a-pe, ,-0.374074074,-0.105555556,1,0,0,0.3571,text_option_1,,0,171,171,20,1
5ab3e44cf5918d00012e947a,63f3cfca20052e4ae7554ebf,6453cc133884f0c200ba1892,2023-05-04_17h16.38.522,ga_syllabified_check,2022.2.5,Win32,30.00660145,,,,,,,,,,,,,,./stim/p07_syllable_1_pachialo_hit.wav,p07,pachialo,hit,pa-cha-lo,pa-chia-lo,pa-chi-a-lo, ,-0.374074074,-0.105555556,1,0,0,1.6222,text_option_1,,0,172,172,160,1
5ab3e44cf5918d00012e947a,63f3cfca20052e4ae7554ebf,6453cc133884f0c200ba1892,2023-05-04_17h16.38.522,ga_syllabified_check,2022.2.5,Win32,30.00660145,,,,,,,,,,,,,,./stim/p06_syllable_1_tuliafo_hit.wav,p06,tuliafo,hit,tu-li-a-fo,tu-lia-fo,tu-li-a-fo, ,0.380555556,-0.1,1,0,0,1.057,text_option_2,,0,173,173,135,1
5ab3e44cf5918d00012e947a,63f3cfca20052e4ae7554ebf,6453cc133884f0c200ba1892,2023-05-04_17h16.38.522,ga_syllabified_check,2022.2.5,Win32,30.00660145,,,,,,,,,,,,,,./stim/p07_syllable_1_lakapiaisto_hit.wav,p07,lakapiaisto,hit,la-ka-pia-sto,la-ka-piais-to,la-ka-pi-ais-to,la-ka-pia-is-to,-0.325925926,-0.117592593,1,0,0,2.194,text_option_1,,0,174,174,152,1
5ab3e44cf5918d00012e947a,63f3cfca20052e4ae7554ebf,6453cc133884f0c200ba1892,2023-05-04_17h16.38.522,ga_syllabified_check,2022.2.5,Win32,30.00660145,,,,,,,,,,,,,,./stim/p08_syllable_1_chiaba_hit.wav,p08,chiaba,hit,chi-a-ba,chia-ba,chi-a-ba, ,0.363888889,-0.10462963,1,0,0,0.2848,text_option_2,,0,175,175,170,1
5ab3e44cf5918d00012e947a,63f3cfca20052e4ae7554ebf,6453cc133884f0c200ba1892,2023-05-04_17h16.38.522,ga_syllabified_check,2022.2.5,Win32,30.00660145,,,,,,,,,,,,,,./stim/p06_syllable_1_lakagiaisto_hit.wav,p06,lakagiaisto,hit,la-ka-gia-is-to,la-ka-giais-to,la-ka-gi-ais-to,la-ka-gia-is-to,0.048148148,-0.087962963,1,0,0,3.2939,text_option_3,,0,176,176,114,1
5ab3e44cf5918d00012e947a,63f3cfca20052e4ae7554ebf,6453cc133884f0c200ba1892,2023-05-04_17h16.38.522,ga_syllabified_check,2022.2.5,Win32,30.00660145,,,,,,,,,,,,,,./stim/p06_syllable_1_falufaisto_hit.wav,p06,falufaisto,hit,fa-lu-fa-is-to,fa-lu-fais-to,fa-lu-fa-is-to, ,0.386111111,-0.103703704,1,0,0,1.812,text_option_2,,0,177,177,105,1
5ab3e44cf5918d00012e947a,63f3cfca20052e4ae7554ebf,6453cc133884f0c200ba1892,2023-05-04_17h16.38.522,ga_syllabified_check,2022.2.5,Win32,30.00660145,,,,,,,,,,,,,,./stim/p06_syllable_1_lakapuaisto_hit.wav,p06,lakapuaisto,hit,la-ka-pu-a-is,la-ka-puais-to,la-ka-pu-ais-to,la-ka-pua-is-to,0.360185185,-0.1,1,0,0,4.3427,text_option_2,,0,178,178,119,1
5ab3e44cf5918d00012e947a,63f3cfca20052e4ae7554ebf,6453cc133884f0c200ba1892,2023-05-04_17h16.38.522,ga_syllabified_check,2022.2.5,Win32,30.00660145,,,,,,,,,,,,,,./stim/p05_syllable_1_lakakuaisto_hit.wav,p05,lakakuaisto,hit,la-ka-kais-to,la-ka-kuais-to,la-ka-ku-ais-to,la-ka-kua-is-to,-0.000925926,-0.313888889,1,0,0,2.5929,text_option_other,la-ka-kais-to,0,179,179,83,1
5ab3e44cf5918d00012e947a,63f3cfca20052e4ae7554ebf,6453cc133884f0c200ba1892,2023-05-04_17h16.38.522,ga_syllabified_check,2022.2.5,Win32,30.00660145,,,,,,,,,,,,,,./stim/p08_syllable_1_lakaguaisto_hit.wav,p08,lakaguaisto,hit,la-ka-gu-ais-to,la-ka-guais-to,la-ka-gu-ais-to,la-ka-gua-is-to,0.405555556,-0.1,1,0,0,3.7605,text_option_2,,0,180,180,183,1
5ab3e44cf5918d00012e947a,63f3cfca20052e4ae7554ebf,6453cc133884f0c200ba1892,2023-05-04_17h16.38.522,ga_syllabified_check,2022.2.5,Win32,30.00660145,,,,,,,,,,,,,,./stim/p04_syllable_1_lakapuaisto_hit.wav,p04,lakapuaisto,hit,la-ka-puais-to,la-ka-puais-to,la-ka-pu-ais-to,la-ka-pua-is-to,-0.364814815,-0.100925926,1,0,0,0.5448,text_option_1,,0,181,181,51,1
5ab3e44cf5918d00012e947a,63f3cfca20052e4ae7554ebf,6453cc133884f0c200ba1892,2023-05-04_17h16.38.522,ga_syllabified_check,2022.2.5,Win32,30.00660145,,,,,,,,,,,,,,./stim/p05_syllable_1_lakatiaisto_hit.wav,p05,lakatiaisto,hit,la-ka-ti-ais-to,la-ka-tiais-to,la-ka-ti-ais-to,la-ka-tia-is-to,-0.02962963,-0.105555556,1,0,0,2.0811,text_option_3,,0,182,182,86,1
5ab3e44cf5918d00012e947a,63f3cfca20052e4ae7554ebf,6453cc133884f0c200ba1892,2023-05-04_17h16.38.522,ga_syllabified_check,2022.2.5,Win32,30.00660145,,,,,,,,,,,,,,./stim/p03_syllable_1_lakakuaisto_hit.wav,p03,lakakuaisto,hit,la-ka-kuais-to,la-ka-kuais-to,la-ka-ku-ais-to,la-ka-kua-is-to,-0.35,-0.097222222,1,0,0,0.8291,text_option_1,,0,183,183,15,1
5ab3e44cf5918d00012e947a,63f3cfca20052e4ae7554ebf,6453cc133884f0c200ba1892,2023-05-04_17h16.38.522,ga_syllabified_check,2022.2.5,Win32,30.00660145,,,,,,,,,,,,,,./stim/p04_syllable_1_lakakuaisto_hit.wav,p04,lakakuaisto,hit,la-ka-kuais-to,la-ka-kuais-to,la-ka-ku-ais-to,la-ka-kua-is-to,-0.350925926,-0.097222222,1,0,0,0.3217,text_option_1,,0,184,184,49,1
5ab3e44cf5918d00012e947a,63f3cfca20052e4ae7554ebf,6453cc133884f0c200ba1892,2023-05-04_17h16.38.522,ga_syllabified_check,2022.2.5,Win32,30.00660145,,,,,,,,,,,,,,./stim/p08_syllable_1_costonhialo_hit.wav,p08,costoñialo,hit,cos-to-nhia-lo,cos-to-ñia-lo,cos-to-ñi-a-lo, ,-0.346296296,-0.097222222,1,0,0,1.0971,text_option_1,,0,185,185,171,1
5ab3e44cf5918d00012e947a,63f3cfca20052e4ae7554ebf,6453cc133884f0c200ba1892,2023-05-04_17h16.38.522,ga_syllabified_check,2022.2.5,Win32,30.00660145,,,,,,,,,,,,,,./stim/p05_syllable_1_flauro_hit.wav,p05,flauro,hit,fa-lu-ro,flau-ro,fla-u-ro, ,0.373148148,-0.102777778,1,0,0,0.3891,text_option_2,,0,186,186,73,1
5ab3e44cf5918d00012e947a,63f3cfca20052e4ae7554ebf,6453cc133884f0c200ba1892,2023-05-04_17h16.38.522,ga_syllabified_check,2022.2.5,Win32,30.00660145,,,,,,,,,,,,,,./stim/p07_syllable_1_lakatiaisto_hit.wav,p07,lakatiaisto,hit,la-ka-tiai-sto,la-ka-tiais-to,la-ka-ti-ais-to,la-ka-tia-is-to,-0.336111111,-0.103703704,1,0,0,1.8375,text_option_1,,0,187,187,154,1
5ab3e44cf5918d00012e947a,63f3cfca20052e4ae7554ebf,6453cc133884f0c200ba1892,2023-05-04_17h16.38.522,ga_syllabified_check,2022.2.5,Win32,30.00660145,,,,,,,,,,,,,,./stim/p08_syllable_1_lakapiaisto_hit.wav,p08,lakapiaisto,hit,la-ka-pi-as-to,la-ka-piais-to,la-ka-pi-ais-to,la-ka-pia-is-to,0.37962963,-0.097222222,1,0,0,3.981,text_option_2,,0,188,188,186,1
5ab3e44cf5918d00012e947a,63f3cfca20052e4ae7554ebf,6453cc133884f0c200ba1892,2023-05-04_17h16.38.522,ga_syllabified_check,2022.2.5,Win32,30.00660145,,,,,,,,,,,,,,./stim/p05_syllable_1_manhiala_hit.wav,p05,mañiala,hit,ma-nhia-la,ma-ñia-la,ma-ñi-a-la, ,0.368518519,-0.105555556,1,0,0,1.6012,text_option_2,,0,189,189,89,1
5ab3e44cf5918d00012e947a,63f3cfca20052e4ae7554ebf,6453cc133884f0c200ba1892,2023-05-04_17h16.38.522,ga_syllabified_check,2022.2.5,Win32,30.00660145,,,,,,,,,,,,,,./stim/p07_syllable_1_lakakiaisto_hit.wav,p07,lakakiaisto,hit,la-ka-kais-to,la-ka-kiais-to,la-ka-ki-ais-to,la-ka-kia-is-to,0.371296296,-0.092592593,1,0,0,2.0258,text_option_2,,0,190,190,150,1
5ab3e44cf5918d00012e947a,63f3cfca20052e4ae7554ebf,6453cc133884f0c200ba1892,2023-05-04_17h16.38.522,ga_syllabified_check,2022.2.5,Win32,30.00660145,,,,,,,,,,,,,,./stim/p05_syllable_1_rausto_hit.wav,p05,rausto,hit,raus-to,raus-to,ra-us-to, ,-0.359259259,-0.112962963,1,0,0,0.3779,text_option_1,,0,191,191,99,1
5ab3e44cf5918d00012e947a,63f3cfca20052e4ae7554ebf,6453cc133884f0c200ba1892,2023-05-04_17h16.38.522,ga_syllabified_check,2022.2.5,Win32,30.00660145,,,,,,,,,,,,,,./stim/p04_syllable_1_chiaba_hit.wav,p04,chiaba,hit,chia-ba,chia-ba,chi-a-ba, ,-0.360185185,-0.111111111,1,0,0,0.6124,text_option_1,,0,192,192,34,1
5ab3e44cf5918d00012e947a,63f3cfca20052e4ae7554ebf,6453cc133884f0c200ba1892,2023-05-04_17h16.38.522,ga_syllabified_check,2022.2.5,Win32,30.00660145,,,,,,,,,,,,,,./stim/p04_syllable_1_paluguato_hit.wav,p04,paluguato,hit,pa-lu-gua,pa-lu-gua-to,pa-lu-gu-a-to, ,-0.359259259,-0.111111111,1,0,0,0.2316,text_option_1,,0,193,193,61,1
5ab3e44cf5918d00012e947a,63f3cfca20052e4ae7554ebf,6453cc133884f0c200ba1892,2023-05-04_17h16.38.522,ga_syllabified_check,2022.2.5,Win32,30.00660145,,,,,,,,,,,,,,./stim/p08_syllable_1_lakafiaisto_hit.wav,p08,lakafiaisto,hit,la-ka-fi-as-to,la-ka-fiais-to,la-ka-fi-ais-to,la-ka-fia-is-to,-0.013888889,-0.105555556,1,0,0,2.4707,text_option_3,,0,194,194,180,1
5ab3e44cf5918d00012e947a,63f3cfca20052e4ae7554ebf,6453cc133884f0c200ba1892,2023-05-04_17h16.38.522,ga_syllabified_check,2022.2.5,Win32,30.00660145,,,,,,,,,,,,,,./stim/p03_syllable_1_falutraigo_hit.wav,p03,falutraigo,hit,fa-lu-trai-go,fa-lu-trai-go,fa-lu-tra-i-go, ,-0.391666667,-0.110185185,1,0,0,1.1112,text_option_1,,0,195,195,4,1
5ab3e44cf5918d00012e947a,63f3cfca20052e4ae7554ebf,6453cc133884f0c200ba1892,2023-05-04_17h16.38.522,ga_syllabified_check,2022.2.5,Win32,30.00660145,,,,,,,,,,,,,,./stim/p06_syllable_1_lakakiaisto_hit.wav,p06,lakakiaisto,hit,la-ka-kia-is-to,la-ka-kiais-to,la-ka-ki-ais-to,la-ka-kia-is-to,0.026851852,-0.097222222,1,0,0,3.8147,text_option_3,,0,196,196,116,1
5ab3e44cf5918d00012e947a,63f3cfca20052e4ae7554ebf,6453cc133884f0c200ba1892,2023-05-04_17h16.38.522,ga_syllabified_check,2022.2.5,Win32,30.00660145,,,,,,,,,,,,,,./stim/p08_syllable_1_palumaisto_hit.wav,p08,palumaisto,hit,pa-lu-mais-to,pa-lu-mais-to,pa-lu-ma-is-to, ,-0.359259259,-0.098148148,1,0,0,1.7734,text_option_1,,0,197,197,198,1
5ab3e44cf5918d00012e947a,63f3cfca20052e4ae7554ebf,6453cc133884f0c200ba1892,2023-05-04_17h16.38.522,ga_syllabified_check,2022.2.5,Win32,30.00660145,,,,,,,,,,,,,,./stim/p07_syllable_1_lakabuaisto_hit.wav,p07,lakabuaisto,hit,la-ka-buais-to,la-ka-buais-to,la-ka-bu-ais-to,la-ka-bua-is-to,-0.327777778,-0.109259259,1,0,0,1.2962,text_option_1,,0,198,198,143,1
5ab3e44cf5918d00012e947a,63f3cfca20052e4ae7554ebf,6453cc133884f0c200ba1892,2023-05-04_17h16.38.522,ga_syllabified_check,2022.2.5,Win32,30.00660145,,,,,,,,,,,,,,./stim/p05_syllable_1_nhiape_hit.wav,p05,ñiape,hit,nhia-pe,ñia-pe,ñi-a-pe, ,-0.373148148,-0.106481481,1,0,0,0.6216,text_option_1,,0,199,199,91,1
5ab3e44cf5918d00012e947a,63f3cfca20052e4ae7554ebf,6453cc133884f0c200ba1892,2023-05-04_17h16.38.522,ga_syllabified_check,2022.2.5,Win32,30.00660145,,,,,,,,,,,,,,./stim/p06_syllable_1_chiaba_hit.wav,p06,chiaba,hit,chi-a-ba,chia-ba,chi-a-ba, ,0.359259259,-0.110185185,1,0,0,1.0866,text_option_2,,0,200,200,102,1
5ab3e44cf5918d00012e947a,63f3cfca20052e4ae7554ebf,6453cc133884f0c200ba1892,2023-05-04_17h16.38.522,ga_syllabified_check,2022.2.5,Win32,30.00660145,,,,,,,,,,,,,,./stim/p03_syllable_1_lakatuaisto_hit.wav,p03,lakatuaisto,hit,la-ka-tuais-to,la-ka-tuais-to,la-ka-tu-ais-to,la-ka-tua-is-to,-0.372222222,-0.099074074,1,0,0,1.0881,text_option_1,,0,201,201,19,1
5ab3e44cf5918d00012e947a,63f3cfca20052e4ae7554ebf,6453cc133884f0c200ba1892,2023-05-04_17h16.38.522,ga_syllabified_check,2022.2.5,Win32,30.00660145,,,,,,,,,,,,,,./stim/p03_syllable_1_lakabuaisto_hit.wav,p03,lakabuaisto,hit,la-ka-buais-to,la-ka-buais-to,la-ka-bu-ais-to,la-ka-bua-is-to,-0.372222222,-0.099074074,1,0,0,0.8105,text_option_1,,0,202,202,7,1
5ab3e44cf5918d00012e947a,63f3cfca20052e4ae7554ebf,6453cc133884f0c200ba1892,2023-05-04_17h16.38.522,ga_syllabified_check,2022.2.5,Win32,30.00660145,,,,,,,,,,,,,,./stim/p05_syllable_1_lakaduaisto_hit.wav,p05,lakaduaisto,hit,la-ka-dais-to,la-ka-duais-to,la-ka-du-ais-to,la-ka-dua-is-to,-0.372222222,-0.099074074,1,0,0,1.0504,text_option_1,,0,203,203,77,1
5ab3e44cf5918d00012e947a,63f3cfca20052e4ae7554ebf,6453cc133884f0c200ba1892,2023-05-04_17h16.38.522,ga_syllabified_check,2022.2.5,Win32,30.00660145,,,,,,,,,,,,,,,,,,,,,,,,,,,,,,,,,,
