participant,study,session,date,expName,psychopyVersion,OS,frameRate,mouse_practice.x,mouse_practice.y,mouse_practice.leftButton,mouse_practice.midButton,mouse_practice.rightButton,mouse_practice.time,mouse_practice.clicked_name,textbox_followup_practice.text,trials_practice.thisRepN,trials_practice.thisTrialN,trials_practice.thisN,trials_practice.thisIndex,trials_practice.ran,file_path,id,item,status,response,op1,op2,op3,mouse.x,mouse.y,mouse.leftButton,mouse.midButton,mouse.rightButton,mouse.time,mouse.clicked_name,textbox_followup.text,trials.thisRepN,trials.thisTrialN,trials.thisN,trials.thisIndex,trials.ran
5ac2a8065cd10500016219df,63f3cfca20052e4ae7554ebf,6453ca5b220da426d7e073eb,2023-05-04_17h10.25.493,ga_syllabified_check,2022.2.5,Win32,29.89089822,,,,,,,,,,,,,,,,,,,,,,,,,,,,,,,,,,
5ac2a8065cd10500016219df,63f3cfca20052e4ae7554ebf,6453ca5b220da426d7e073eb,2023-05-04_17h10.25.493,ga_syllabified_check,2022.2.5,Win32,29.89089822,-0.416666667,-0.102864583,1,0,0,4.9287,text_option_1_practice,,0,0,0,0,1,./stim/p03_syllable_1_liamo_hit.wav,p03,liamo,hit,lia-mo,lia-mo,li-a-mo, ,,,,,,,,,,,,,
5ac2a8065cd10500016219df,63f3cfca20052e4ae7554ebf,6453ca5b220da426d7e073eb,2023-05-04_17h10.25.493,ga_syllabified_check,2022.2.5,Win32,29.89089822,-0.388020833,-0.104166667,1,0,0,2.822,text_option_1_practice,,0,1,1,1,1,./stim/p05_syllable_1_matio_hit.wav,p05,matio,hit,ma-tio,ma-tio,ma-ti-o, ,,,,,,,,,,,,,
5ac2a8065cd10500016219df,63f3cfca20052e4ae7554ebf,6453ca5b220da426d7e073eb,2023-05-04_17h10.25.493,ga_syllabified_check,2022.2.5,Win32,29.89089822,0.407552083,-0.096354167,1,0,0,3.5614,text_option_2_practice,,0,2,2,2,1,./stim/p08_syllable_1_liamo_hit.wav,p08,liamo,hit,ja-mo,lia-mo,li-a-mo, ,,,,,,,,,,,,,
5ac2a8065cd10500016219df,63f3cfca20052e4ae7554ebf,6453ca5b220da426d7e073eb,2023-05-04_17h10.25.493,ga_syllabified_check,2022.2.5,Win32,29.89089822,,,,,,,,,,,,,,,,,,,,,,,,,,,,,,,,,,
5ac2a8065cd10500016219df,63f3cfca20052e4ae7554ebf,6453ca5b220da426d7e073eb,2023-05-04_17h10.25.493,ga_syllabified_check,2022.2.5,Win32,29.89089822,,,,,,,,,,,,,,./stim/p05_syllable_1_flauro_hit.wav,p05,flauro,hit,fa-lu-ro,flau-ro,fla-u-ro, ,0.404947917,-0.104166667,1,0,0,7.621,text_option_2,,0,0,0,73,1
5ac2a8065cd10500016219df,63f3cfca20052e4ae7554ebf,6453ca5b220da426d7e073eb,2023-05-04_17h10.25.493,ga_syllabified_check,2022.2.5,Win32,29.89089822,,,,,,,,,,,,,,./stim/p04_syllable_1_lakafuaisto_hit.wav,p04,lakafuaisto,hit,la-ka-fuais-to,la-ka-fuais-to,la-ka-fu-ais-to,la-ka-fua-is-to,0.0546875,-0.108072917,1,0,0,6.9174,text_option_3,,0,1,1,45,1
5ac2a8065cd10500016219df,63f3cfca20052e4ae7554ebf,6453ca5b220da426d7e073eb,2023-05-04_17h10.25.493,ga_syllabified_check,2022.2.5,Win32,29.89089822,,,,,,,,,,,,,,./stim/p05_syllable_1_palumaisto_hit.wav,p05,palumaisto,hit,pa-lu-mais-to,pa-lu-mais-to,pa-lu-ma-is-to, ,-0.364583333,-0.088541667,1,0,0,3.6947,text_option_1,,0,2,2,96,1
5ac2a8065cd10500016219df,63f3cfca20052e4ae7554ebf,6453ca5b220da426d7e073eb,2023-05-04_17h10.25.493,ga_syllabified_check,2022.2.5,Win32,29.89089822,,,,,,,,,,,,,,./stim/p05_syllable_1_rausto_hit.wav,p05,rausto,hit,raus-to,raus-to,ra-us-to, ,-0.408854167,-0.098958333,1,0,0,2.2281,text_option_1,,0,3,3,99,1
5ac2a8065cd10500016219df,63f3cfca20052e4ae7554ebf,6453ca5b220da426d7e073eb,2023-05-04_17h10.25.493,ga_syllabified_check,2022.2.5,Win32,29.89089822,,,,,,,,,,,,,,./stim/p04_syllable_1_lliape_hit.wav,p04,lliape,hit,lia-pe,llia-pe,lli-a-pe, ,-0.399739583,-0.095052083,1,0,0,2.3659,text_option_1,,0,4,4,54,1
5ac2a8065cd10500016219df,63f3cfca20052e4ae7554ebf,6453ca5b220da426d7e073eb,2023-05-04_17h10.25.493,ga_syllabified_check,2022.2.5,Win32,29.89089822,,,,,,,,,,,,,,./stim/p04_syllable_1_lakakuaisto_hit.wav,p04,lakakuaisto,hit,la-ka-kuais-to,la-ka-kuais-to,la-ka-ku-ais-to,la-ka-kua-is-to,-0.356770833,-0.110677083,1,0,0,3.0896,text_option_1,,0,5,5,49,1
5ac2a8065cd10500016219df,63f3cfca20052e4ae7554ebf,6453ca5b220da426d7e073eb,2023-05-04_17h10.25.493,ga_syllabified_check,2022.2.5,Win32,29.89089822,,,,,,,,,,,,,,./stim/p05_syllable_1_lakakiaisto_hit.wav,p05,lakakiaisto,hit,la-ka-ki-ais-to,la-ka-kiais-to,la-ka-ki-ais-to,la-ka-kia-is-to,-0.37109375,-0.087239583,1,0,0,6.8215,text_option_1,,0,6,6,82,1
5ac2a8065cd10500016219df,63f3cfca20052e4ae7554ebf,6453ca5b220da426d7e073eb,2023-05-04_17h10.25.493,ga_syllabified_check,2022.2.5,Win32,29.89089822,,,,,,,,,,,,,,./stim/p06_syllable_1_lakafuaisto_hit.wav,p06,lakafuaisto,hit,la-ka-fu-a-is,la-ka-fuais-to,la-ka-fu-ais-to,la-ka-fua-is-to,0.045572917,-0.106770833,1,0,0,7.3644,text_option_3,,0,7,7,113,1
5ac2a8065cd10500016219df,63f3cfca20052e4ae7554ebf,6453ca5b220da426d7e073eb,2023-05-04_17h10.25.493,ga_syllabified_check,2022.2.5,Win32,29.89089822,,,,,,,,,,,,,,./stim/p06_syllable_1_lakapuaisto_hit.wav,p06,lakapuaisto,hit,la-ka-pu-a-is,la-ka-puais-to,la-ka-pu-ais-to,la-ka-pua-is-to,0.033854167,-0.10546875,1,0,0,9.5279,text_option_3,,0,8,8,119,1
5ac2a8065cd10500016219df,63f3cfca20052e4ae7554ebf,6453ca5b220da426d7e073eb,2023-05-04_17h10.25.493,ga_syllabified_check,2022.2.5,Win32,29.89089822,,,,,,,,,,,,,,./stim/p08_syllable_1_paluguato_hit.wav,p08,paluguato,hit,pa-lu-gua-to,pa-lu-gua-to,pa-lu-gu-a-to, ,-0.419270833,-0.087239583,1,0,0,4.4204,text_option_1,,0,9,9,197,1
5ac2a8065cd10500016219df,63f3cfca20052e4ae7554ebf,6453ca5b220da426d7e073eb,2023-05-04_17h10.25.493,ga_syllabified_check,2022.2.5,Win32,29.89089822,,,,,,,,,,,,,,./stim/p03_syllable_1_rausto_hit.wav,p03,rausto,hit,raus-to,raus-to,ra-us-to, ,-0.381510417,-0.091145833,1,0,0,11.1955,text_option_1,,0,10,10,31,1
5ac2a8065cd10500016219df,63f3cfca20052e4ae7554ebf,6453ca5b220da426d7e073eb,2023-05-04_17h10.25.493,ga_syllabified_check,2022.2.5,Win32,29.89089822,,,,,,,,,,,,,,./stim/p03_syllable_1_nhiape_hit.wav,p03,ñiape,hit,nhia-pe,ñia-pe,ñi-a-pe, ,-0.403645833,-0.1015625,1,0,0,2.9373,text_option_1,,0,11,11,23,1
5ac2a8065cd10500016219df,63f3cfca20052e4ae7554ebf,6453ca5b220da426d7e073eb,2023-05-04_17h10.25.493,ga_syllabified_check,2022.2.5,Win32,29.89089822,,,,,,,,,,,,,,./stim/p05_syllable_1_palufauto_hit.wav,p05,palufauto,hit,pa-lu-fau-to,pa-lu-fau-to,pa-lu-fa-u-to, ,-0.34765625,-0.110677083,1,0,0,5.349,text_option_1,,0,12,12,94,1
5ac2a8065cd10500016219df,63f3cfca20052e4ae7554ebf,6453ca5b220da426d7e073eb,2023-05-04_17h10.25.493,ga_syllabified_check,2022.2.5,Win32,29.89089822,,,,,,,,,,,,,,./stim/p04_syllable_1_mebochiana_hit.wav,p04,mebochiana,hit,me-bo-chia-na,me-bo-chia-na,me-bo-chi-a-na, ,-0.407552083,-0.080729167,1,0,0,2.8001,text_option_1,,0,13,13,56,1
5ac2a8065cd10500016219df,63f3cfca20052e4ae7554ebf,6453ca5b220da426d7e073eb,2023-05-04_17h10.25.493,ga_syllabified_check,2022.2.5,Win32,29.89089822,,,,,,,,,,,,,,./stim/p07_syllable_1_lakadiaisto_hit.wav,p07,lakadiaisto,hit,la-ka-dia-is-to,la-ka-diais-to,la-ka-di-ais-to,la-ka-dia-is-to,0.01953125,-0.096354167,1,0,0,3.5441,text_option_3,,0,14,14,144,1
5ac2a8065cd10500016219df,63f3cfca20052e4ae7554ebf,6453ca5b220da426d7e073eb,2023-05-04_17h10.25.493,ga_syllabified_check,2022.2.5,Win32,29.89089822,,,,,,,,,,,,,,./stim/p03_syllable_1_lakafiaisto_hit.wav,p03,lakafiaisto,hit,la-ka-fiais-to,la-ka-fiais-to,la-ka-fi-ais-to,la-ka-fia-is-to,-0.3984375,-0.104166667,1,0,0,4.0362,text_option_1,,0,15,15,10,1
5ac2a8065cd10500016219df,63f3cfca20052e4ae7554ebf,6453ca5b220da426d7e073eb,2023-05-04_17h10.25.493,ga_syllabified_check,2022.2.5,Win32,29.89089822,,,,,,,,,,,,,,./stim/p03_syllable_1_palufauto_hit.wav,p03,palufauto,hit,pa-lu-fau,pa-lu-fau-to,pa-lu-fa-u-to, ,-0.360677083,-0.100260417,1,0,0,2.5744,text_option_1,,0,16,16,26,1
5ac2a8065cd10500016219df,63f3cfca20052e4ae7554ebf,6453ca5b220da426d7e073eb,2023-05-04_17h10.25.493,ga_syllabified_check,2022.2.5,Win32,29.89089822,,,,,,,,,,,,,,./stim/p08_syllable_1_chiaba_hit.wav,p08,chiaba,hit,chi-a-ba,chia-ba,chi-a-ba, ,0.403645833,-0.100260417,1,0,0,1.7602,text_option_2,,0,17,17,170,1
5ac2a8065cd10500016219df,63f3cfca20052e4ae7554ebf,6453ca5b220da426d7e073eb,2023-05-04_17h10.25.493,ga_syllabified_check,2022.2.5,Win32,29.89089822,,,,,,,,,,,,,,./stim/p05_syllable_1_lakafiaisto_hit.wav,p05,lakafiaisto,hit,la-ka-fi-ais-to,la-ka-fiais-to,la-ka-fi-ais-to,la-ka-fia-is-to,0.442708333,-0.098958333,1,0,0,2.3762,text_option_2,,0,18,18,78,1
5ac2a8065cd10500016219df,63f3cfca20052e4ae7554ebf,6453ca5b220da426d7e073eb,2023-05-04_17h10.25.493,ga_syllabified_check,2022.2.5,Win32,29.89089822,,,,,,,,,,,,,,./stim/p06_syllable_1_mebochiana_hit.wav,p06,mebochiana,hit,me-bo-shi-a-na,me-bo-chia-na,me-bo-chi-a-na, ,0.44140625,-0.106770833,1,0,0,5.5137,text_option_2,,0,19,19,124,1
5ac2a8065cd10500016219df,63f3cfca20052e4ae7554ebf,6453ca5b220da426d7e073eb,2023-05-04_17h10.25.493,ga_syllabified_check,2022.2.5,Win32,29.89089822,,,,,,,,,,,,,,./stim/p04_syllable_1_lakatiaisto_hit.wav,p04,lakatiaisto,hit,la-ka-kiais-to,la-ka-tiais-to,la-ka-ti-ais-to,la-ka-tia-is-to,-0.36328125,-0.096354167,1,0,0,3.6637,text_option_1,,0,20,20,52,1
5ac2a8065cd10500016219df,63f3cfca20052e4ae7554ebf,6453ca5b220da426d7e073eb,2023-05-04_17h10.25.493,ga_syllabified_check,2022.2.5,Win32,29.89089822,,,,,,,,,,,,,,./stim/p03_syllable_1_lakafuaisto_hit.wav,p03,lakafuaisto,hit,la-ka-fuais-to,la-ka-fuais-to,la-ka-fu-ais-to,la-ka-fua-is-to,-0.330729167,-0.100260417,1,0,0,4.5315,text_option_1,,0,21,21,11,1
5ac2a8065cd10500016219df,63f3cfca20052e4ae7554ebf,6453ca5b220da426d7e073eb,2023-05-04_17h10.25.493,ga_syllabified_check,2022.2.5,Win32,29.89089822,,,,,,,,,,,,,,./stim/p05_syllable_1_ruyiola_hit.wav,p05,ruyiola,hit,ru-yio-la,ru-yio-la,ru-yi-o-la, ,-0.408854167,-0.106770833,1,0,0,4.1628,text_option_1,,0,22,22,100,1
5ac2a8065cd10500016219df,63f3cfca20052e4ae7554ebf,6453ca5b220da426d7e073eb,2023-05-04_17h10.25.493,ga_syllabified_check,2022.2.5,Win32,29.89089822,,,,,,,,,,,,,,./stim/p08_syllable_1_lakakuaisto_hit.wav,p08,lakakuaisto,hit,la-ka-ku-ais-to,la-ka-kuais-to,la-ka-ku-ais-to,la-ka-kua-is-to,0.002604167,-0.088541667,1,0,0,6.1863,text_option_3,,0,23,23,185,1
5ac2a8065cd10500016219df,63f3cfca20052e4ae7554ebf,6453ca5b220da426d7e073eb,2023-05-04_17h10.25.493,ga_syllabified_check,2022.2.5,Win32,29.89089822,,,,,,,,,,,,,,./stim/p08_syllable_1_palufauto_hit.wav,p08,palufauto,hit,pa-lu-fau-to,pa-lu-fau-to,pa-lu-fa-u-to, ,-0.338541667,-0.1015625,1,0,0,5.0845,text_option_1,,0,24,24,196,1
5ac2a8065cd10500016219df,63f3cfca20052e4ae7554ebf,6453ca5b220da426d7e073eb,2023-05-04_17h10.25.493,ga_syllabified_check,2022.2.5,Win32,29.89089822,,,,,,,,,,,,,,./stim/p05_syllable_1_lakatuaisto_hit.wav,p05,lakatuaisto,hit,la-ka-tais-to,la-ka-tuais-to,la-ka-tu-ais-to,la-ka-tua-is-to,-0.384114583,-0.09765625,1,0,0,8.6535,text_option_1,,0,25,25,87,1
5ac2a8065cd10500016219df,63f3cfca20052e4ae7554ebf,6453ca5b220da426d7e073eb,2023-05-04_17h10.25.493,ga_syllabified_check,2022.2.5,Win32,29.89089822,,,,,,,,,,,,,,./stim/p05_syllable_1_mebochiana_hit.wav,p05,mebochiana,hit,me-cho-chai-na,me-bo-chia-na,me-bo-chi-a-na, ,-0.319010417,-0.11328125,1,0,0,4.4474,text_option_1,,0,26,26,90,1
5ac2a8065cd10500016219df,63f3cfca20052e4ae7554ebf,6453ca5b220da426d7e073eb,2023-05-04_17h10.25.493,ga_syllabified_check,2022.2.5,Win32,29.89089822,,,,,,,,,,,,,,./stim/p06_syllable_1_lliape_hit.wav,p06,lliape,hit,lli-lla-pe,llia-pe,lli-a-pe, ,0.356770833,-0.091145833,1,0,0,2.1044,text_option_2,,0,27,27,122,1
5ac2a8065cd10500016219df,63f3cfca20052e4ae7554ebf,6453ca5b220da426d7e073eb,2023-05-04_17h10.25.493,ga_syllabified_check,2022.2.5,Win32,29.89089822,,,,,,,,,,,,,,./stim/p07_syllable_1_lakapiaisto_hit.wav,p07,lakapiaisto,hit,la-ka-pia-sto,la-ka-piais-to,la-ka-pi-ais-to,la-ka-pia-is-to,-0.38671875,-0.100260417,1,0,0,5.9236,text_option_1,,0,28,28,152,1
5ac2a8065cd10500016219df,63f3cfca20052e4ae7554ebf,6453ca5b220da426d7e073eb,2023-05-04_17h10.25.493,ga_syllabified_check,2022.2.5,Win32,29.89089822,,,,,,,,,,,,,,./stim/p07_syllable_1_palumaisto_hit.wav,p07,palumaisto,hit,pa-lu-mais-to,pa-lu-mais-to,pa-lu-ma-is-to, ,-0.34375,-0.102864583,1,0,0,3.4489,text_option_1,,0,29,29,164,1
5ac2a8065cd10500016219df,63f3cfca20052e4ae7554ebf,6453ca5b220da426d7e073eb,2023-05-04_17h10.25.493,ga_syllabified_check,2022.2.5,Win32,29.89089822,,,,,,,,,,,,,,./stim/p08_syllable_1_rausto_hit.wav,p08,rausto,hit,raus-to,raus-to,ra-us-to, ,-0.408854167,-0.08984375,1,0,0,2.2867,text_option_1,,0,30,30,201,1
5ac2a8065cd10500016219df,63f3cfca20052e4ae7554ebf,6453ca5b220da426d7e073eb,2023-05-04_17h10.25.493,ga_syllabified_check,2022.2.5,Win32,29.89089822,,,,,,,,,,,,,,./stim/p06_syllable_1_chiaba_hit.wav,p06,chiaba,hit,chi-a-ba,chia-ba,chi-a-ba, ,0.38671875,-0.100260417,1,0,0,1.2896,text_option_2,,0,31,31,102,1
5ac2a8065cd10500016219df,63f3cfca20052e4ae7554ebf,6453ca5b220da426d7e073eb,2023-05-04_17h10.25.493,ga_syllabified_check,2022.2.5,Win32,29.89089822,,,,,,,,,,,,,,./stim/p04_syllable_1_lakakiaisto_hit.wav,p04,lakakiaisto,hit,la-ka-kiais-to,la-ka-kiais-to,la-ka-ki-ais-to,la-ka-kia-is-to,-0.377604167,-0.102864583,1,0,0,2.9937,text_option_1,,0,32,32,48,1
5ac2a8065cd10500016219df,63f3cfca20052e4ae7554ebf,6453ca5b220da426d7e073eb,2023-05-04_17h10.25.493,ga_syllabified_check,2022.2.5,Win32,29.89089822,,,,,,,,,,,,,,./stim/p07_syllable_1_lakabuaisto_hit.wav,p07,lakabuaisto,hit,la-ka-buais-to,la-ka-buais-to,la-ka-bu-ais-to,la-ka-bua-is-to,-0.37890625,-0.09765625,1,0,0,2.7897,text_option_1,,0,33,33,143,1
5ac2a8065cd10500016219df,63f3cfca20052e4ae7554ebf,6453ca5b220da426d7e073eb,2023-05-04_17h10.25.493,ga_syllabified_check,2022.2.5,Win32,29.89089822,,,,,,,,,,,,,,./stim/p07_syllable_1_palutrauco_hit.wav,p07,palutrauco,hit,pa-lu-trau-co,pa-lu-trau-co,pa-lu-tra-u-co, ,-0.364583333,-0.109375,1,0,0,1.755,text_option_1,,0,34,34,165,1
5ac2a8065cd10500016219df,63f3cfca20052e4ae7554ebf,6453ca5b220da426d7e073eb,2023-05-04_17h10.25.493,ga_syllabified_check,2022.2.5,Win32,29.89089822,,,,,,,,,,,,,,./stim/p05_syllable_1_lakabiaisto_hit.wav,p05,lakabiaisto,hit,la-ka-bi-ais-to,la-ka-biais-to,la-ka-bi-ais-to,la-ka-bia-is-to,0.0390625,-0.098958333,1,0,0,3.7059,text_option_3,,0,35,35,74,1
5ac2a8065cd10500016219df,63f3cfca20052e4ae7554ebf,6453ca5b220da426d7e073eb,2023-05-04_17h10.25.493,ga_syllabified_check,2022.2.5,Win32,29.89089822,,,,,,,,,,,,,,./stim/p03_syllable_1_lakakiaisto_hit.wav,p03,lakakiaisto,hit,la-ka-kiais-to,la-ka-kiais-to,la-ka-ki-ais-to,la-ka-kia-is-to,-0.364583333,-0.102864583,1,0,0,4.0947,text_option_1,,0,36,36,14,1
5ac2a8065cd10500016219df,63f3cfca20052e4ae7554ebf,6453ca5b220da426d7e073eb,2023-05-04_17h10.25.493,ga_syllabified_check,2022.2.5,Win32,29.89089822,,,,,,,,,,,,,,./stim/p07_syllable_1_lakatiaisto_hit.wav,p07,lakatiaisto,hit,la-ka-tiai-sto,la-ka-tiais-to,la-ka-ti-ais-to,la-ka-tia-is-to,-0.403645833,-0.1015625,1,0,0,3.0277,text_option_1,,0,37,37,154,1
5ac2a8065cd10500016219df,63f3cfca20052e4ae7554ebf,6453ca5b220da426d7e073eb,2023-05-04_17h10.25.493,ga_syllabified_check,2022.2.5,Win32,29.89089822,,,,,,,,,,,,,,./stim/p04_syllable_1_tuliafo_hit.wav,p04,tuliafo,hit,tu-lia-fo,tu-lia-fo,tu-li-a-fo, ,-0.39453125,-0.102864583,1,0,0,2.8155,text_option_1,,0,38,38,67,1
5ac2a8065cd10500016219df,63f3cfca20052e4ae7554ebf,6453ca5b220da426d7e073eb,2023-05-04_17h10.25.493,ga_syllabified_check,2022.2.5,Win32,29.89089822,,,,,,,,,,,,,,./stim/p06_syllable_1_falufaisto_hit.wav,p06,falufaisto,hit,fa-lu-fa-is-to,fa-lu-fais-to,fa-lu-fa-is-to, ,0.411458333,-0.09765625,1,0,0,3.3282,text_option_2,,0,39,39,105,1
5ac2a8065cd10500016219df,63f3cfca20052e4ae7554ebf,6453ca5b220da426d7e073eb,2023-05-04_17h10.25.493,ga_syllabified_check,2022.2.5,Win32,29.89089822,,,,,,,,,,,,,,./stim/p07_syllable_1_lliape_hit.wav,p07,lliape,hit,lliai-pe,llia-pe,lli-a-pe, ,-0.388020833,-0.108072917,1,0,0,3.2129,text_option_1,,0,40,40,156,1
5ac2a8065cd10500016219df,63f3cfca20052e4ae7554ebf,6453ca5b220da426d7e073eb,2023-05-04_17h10.25.493,ga_syllabified_check,2022.2.5,Win32,29.89089822,,,,,,,,,,,,,,./stim/p04_syllable_1_lakafiaisto_hit.wav,p04,lakafiaisto,hit,la-ka-fiais-to,la-ka-fiais-to,la-ka-fi-ais-to,la-ka-fia-is-to,-0.3984375,-0.09375,1,0,0,2.1109,text_option_1,,0,41,41,44,1
5ac2a8065cd10500016219df,63f3cfca20052e4ae7554ebf,6453ca5b220da426d7e073eb,2023-05-04_17h10.25.493,ga_syllabified_check,2022.2.5,Win32,29.89089822,,,,,,,,,,,,,,./stim/p05_syllable_1_costonhialo_hit.wav,p05,costoñialo,hit,cos-to-nhia-lo,cos-to-ñia-lo,cos-to-ñi-a-lo, ,-0.3671875,-0.10546875,1,0,0,1.9283,text_option_1,,0,42,42,69,1
5ac2a8065cd10500016219df,63f3cfca20052e4ae7554ebf,6453ca5b220da426d7e073eb,2023-05-04_17h10.25.493,ga_syllabified_check,2022.2.5,Win32,29.89089822,,,,,,,,,,,,,,./stim/p03_syllable_1_lakatiaisto_hit.wav,p03,lakatiaisto,hit,la-ka-tiais-to,la-ka-tiais-to,la-ka-ti-ais-to,la-ka-tia-is-to,-0.345052083,-0.09765625,1,0,0,7.5081,text_option_1,,0,43,43,18,1
5ac2a8065cd10500016219df,63f3cfca20052e4ae7554ebf,6453ca5b220da426d7e073eb,2023-05-04_17h10.25.493,ga_syllabified_check,2022.2.5,Win32,29.89089822,,,,,,,,,,,,,,./stim/p05_syllable_1_pachialo_hit.wav,p05,pachialo,hit,pan-chia-lo,pa-chia-lo,pa-chi-a-lo, ,0.428385417,-0.0859375,1,0,0,3.4149,text_option_2,,0,44,44,92,1
5ac2a8065cd10500016219df,63f3cfca20052e4ae7554ebf,6453ca5b220da426d7e073eb,2023-05-04_17h10.25.493,ga_syllabified_check,2022.2.5,Win32,29.89089822,,,,,,,,,,,,,,./stim/p04_syllable_1_manhiala_hit.wav,p04,mañiala,hit,ma-nhia-la,ma-ñia-la,ma-ñi-a-la, ,-0.3828125,-0.098958333,1,0,0,1.562,text_option_1,,0,45,45,55,1
5ac2a8065cd10500016219df,63f3cfca20052e4ae7554ebf,6453ca5b220da426d7e073eb,2023-05-04_17h10.25.493,ga_syllabified_check,2022.2.5,Win32,29.89089822,,,,,,,,,,,,,,./stim/p04_syllable_1_lakagiaisto_hit.wav,p04,lakagiaisto,hit,la-ka-giais-to,la-ka-giais-to,la-ka-gi-ais-to,la-ka-gia-is-to,-0.330729167,-0.098958333,1,0,0,2.9699,text_option_1,,0,46,46,46,1
5ac2a8065cd10500016219df,63f3cfca20052e4ae7554ebf,6453ca5b220da426d7e073eb,2023-05-04_17h10.25.493,ga_syllabified_check,2022.2.5,Win32,29.89089822,,,,,,,,,,,,,,./stim/p08_syllable_1_manhiala_hit.wav,p08,mañiala,hit,ma-nhia-la,ma-ñia-la,ma-ñi-a-la, ,-0.346354167,-0.102864583,1,0,0,3.2108,text_option_1,,0,47,47,191,1
5ac2a8065cd10500016219df,63f3cfca20052e4ae7554ebf,6453ca5b220da426d7e073eb,2023-05-04_17h10.25.493,ga_syllabified_check,2022.2.5,Win32,29.89089822,,,,,,,,,,,,,,./stim/p07_syllable_1_falufaisto_hit.wav,p07,falufaisto,hit,fa-lu-fais-to,fa-lu-fais-to,fa-lu-fa-is-to, ,-0.36328125,-0.092447917,1,0,0,3.0679,text_option_1,,0,48,48,139,1
5ac2a8065cd10500016219df,63f3cfca20052e4ae7554ebf,6453ca5b220da426d7e073eb,2023-05-04_17h10.25.493,ga_syllabified_check,2022.2.5,Win32,29.89089822,,,,,,,,,,,,,,./stim/p03_syllable_1_lakapuaisto_hit.wav,p03,lakapuaisto,hit,la-ka-puais-to,la-ka-puais-to,la-ka-pu-ais-to,la-ka-pua-is-to,-0.352864583,-0.10546875,1,0,0,2.2417,text_option_1,,0,49,49,17,1
5ac2a8065cd10500016219df,63f3cfca20052e4ae7554ebf,6453ca5b220da426d7e073eb,2023-05-04_17h10.25.493,ga_syllabified_check,2022.2.5,Win32,29.89089822,,,,,,,,,,,,,,./stim/p05_syllable_1_lakadiaisto_hit.wav,p05,lakadiaisto,hit,la-ka-di-ais-to,la-ka-diais-to,la-ka-di-ais-to,la-ka-dia-is-to,0.471354167,-0.098958333,1,0,0,4.974,text_option_2,,0,50,50,76,1
5ac2a8065cd10500016219df,63f3cfca20052e4ae7554ebf,6453ca5b220da426d7e073eb,2023-05-04_17h10.25.493,ga_syllabified_check,2022.2.5,Win32,29.89089822,,,,,,,,,,,,,,./stim/p06_syllable_1_palufauto_hit.wav,p06,palufauto,hit,pa-lu-fau-to,pa-lu-fau-to,pa-lu-fa-u-to, ,0.404947917,-0.095052083,1,0,0,3.5248,text_option_2,,0,51,51,128,1
5ac2a8065cd10500016219df,63f3cfca20052e4ae7554ebf,6453ca5b220da426d7e073eb,2023-05-04_17h10.25.493,ga_syllabified_check,2022.2.5,Win32,29.89089822,,,,,,,,,,,,,,./stim/p08_syllable_1_palumaisto_hit.wav,p08,palumaisto,hit,pa-lu-mais-to,pa-lu-mais-to,pa-lu-ma-is-to, ,-0.341145833,-0.087239583,1,0,0,3.2012,text_option_1,,0,52,52,198,1
5ac2a8065cd10500016219df,63f3cfca20052e4ae7554ebf,6453ca5b220da426d7e073eb,2023-05-04_17h10.25.493,ga_syllabified_check,2022.2.5,Win32,29.89089822,,,,,,,,,,,,,,./stim/p08_syllable_1_lakagiaisto_hit.wav,p08,lakagiaisto,hit,la-ka-gi-jas-to,la-ka-giais-to,la-ka-gi-ais-to,la-ka-gia-is-to,0.412760417,-0.104166667,1,0,0,2.9518,text_option_2,,0,53,53,182,1
5ac2a8065cd10500016219df,63f3cfca20052e4ae7554ebf,6453ca5b220da426d7e073eb,2023-05-04_17h10.25.493,ga_syllabified_check,2022.2.5,Win32,29.89089822,,,,,,,,,,,,,,./stim/p03_syllable_1_lakaduaisto_hit.wav,p03,lakaduaisto,hit,la-ka-duais-to,la-ka-duais-to,la-ka-du-ais-to,la-ka-dua-is-to,-0.34765625,-0.096354167,1,0,0,4.7118,text_option_1,,0,54,54,9,1
5ac2a8065cd10500016219df,63f3cfca20052e4ae7554ebf,6453ca5b220da426d7e073eb,2023-05-04_17h10.25.493,ga_syllabified_check,2022.2.5,Win32,29.89089822,,,,,,,,,,,,,,./stim/p08_syllable_1_pachialo_hit.wav,p08,pachialo,hit,pa-chi-ja-lo,pa-chia-lo,pa-chi-a-lo, ,0.350260417,-0.108072917,1,0,0,1.6225,text_option_2,,0,55,55,194,1
5ac2a8065cd10500016219df,63f3cfca20052e4ae7554ebf,6453ca5b220da426d7e073eb,2023-05-04_17h10.25.493,ga_syllabified_check,2022.2.5,Win32,29.89089822,,,,,,,,,,,,,,./stim/p04_syllable_1_falufaisto_hit.wav,p04,falufaisto,hit,fa-lu-fais-to,fa-lu-fais-to,fa-lu-fa-is-to, ,-0.3828125,-0.098958333,1,0,0,2.4583,text_option_1,,0,56,56,37,1
5ac2a8065cd10500016219df,63f3cfca20052e4ae7554ebf,6453ca5b220da426d7e073eb,2023-05-04_17h10.25.493,ga_syllabified_check,2022.2.5,Win32,29.89089822,,,,,,,,,,,,,,./stim/p06_syllable_1_lakabuaisto_hit.wav,p06,lakabuaisto,hit,la-ka-bu-a-is,la-ka-buais-to,la-ka-bu-ais-to,la-ka-bua-is-to,0.4140625,-0.102864583,1,0,0,10.041,text_option_2,,0,57,57,109,1
5ac2a8065cd10500016219df,63f3cfca20052e4ae7554ebf,6453ca5b220da426d7e073eb,2023-05-04_17h10.25.493,ga_syllabified_check,2022.2.5,Win32,29.89089822,,,,,,,,,,,,,,./stim/p06_syllable_1_falutraigo_hit.wav,p06,falutraigo,hit,fa-lu-tra-i-go,fa-lu-trai-go,fa-lu-tra-i-go, ,0.455729167,-0.1015625,1,0,0,5.0488,text_option_2,,0,58,58,106,1
5ac2a8065cd10500016219df,63f3cfca20052e4ae7554ebf,6453ca5b220da426d7e073eb,2023-05-04_17h10.25.493,ga_syllabified_check,2022.2.5,Win32,29.89089822,,,,,,,,,,,,,,./stim/p08_syllable_1_lakadiaisto_hit.wav,p08,lakadiaisto,hit,la-ka-di-jas-to,la-ka-diais-to,la-ka-di-ais-to,la-ka-dia-is-to,0.040364583,-0.092447917,1,0,0,8.6416,text_option_3,,0,59,59,178,1
5ac2a8065cd10500016219df,63f3cfca20052e4ae7554ebf,6453ca5b220da426d7e073eb,2023-05-04_17h10.25.493,ga_syllabified_check,2022.2.5,Win32,29.89089822,,,,,,,,,,,,,,./stim/p06_syllable_1_manhiala_hit.wav,p06,mañiala,hit,ma-nhi-a-la,ma-ñia-la,ma-ñi-a-la, ,0.438802083,-0.09375,1,0,0,2.5181,text_option_2,,0,60,60,123,1
5ac2a8065cd10500016219df,63f3cfca20052e4ae7554ebf,6453ca5b220da426d7e073eb,2023-05-04_17h10.25.493,ga_syllabified_check,2022.2.5,Win32,29.89089822,,,,,,,,,,,,,,./stim/p04_syllable_1_nhiape_hit.wav,p04,ñiape,hit,nhia-pe,ñia-pe,ñi-a-pe, ,-0.423177083,-0.102864583,1,0,0,1.1561,text_option_1,,0,61,61,57,1
5ac2a8065cd10500016219df,63f3cfca20052e4ae7554ebf,6453ca5b220da426d7e073eb,2023-05-04_17h10.25.493,ga_syllabified_check,2022.2.5,Win32,29.89089822,,,,,,,,,,,,,,./stim/p04_syllable_1_pachialo_hit.wav,p04,pachialo,hit,pa-chia-lo,pa-chia-lo,pa-chi-a-lo, ,-0.403645833,-0.102864583,1,0,0,2.5339,text_option_1,,0,62,62,58,1
5ac2a8065cd10500016219df,63f3cfca20052e4ae7554ebf,6453ca5b220da426d7e073eb,2023-05-04_17h10.25.493,ga_syllabified_check,2022.2.5,Win32,29.89089822,,,,,,,,,,,,,,./stim/p03_syllable_1_lakatuaisto_hit.wav,p03,lakatuaisto,hit,la-ka-tuais-to,la-ka-tuais-to,la-ka-tu-ais-to,la-ka-tua-is-to,-0.3984375,-0.1015625,1,0,0,3.5309,text_option_1,,0,63,63,19,1
5ac2a8065cd10500016219df,63f3cfca20052e4ae7554ebf,6453ca5b220da426d7e073eb,2023-05-04_17h10.25.493,ga_syllabified_check,2022.2.5,Win32,29.89089822,,,,,,,,,,,,,,./stim/p03_syllable_1_manhiala_hit.wav,p03,mañiala,hit,ma-nhia-la,ma-ñia-la,ma-ñi-a-la, ,-0.337239583,-0.104166667,1,0,0,2.3372,text_option_1,,0,64,64,21,1
5ac2a8065cd10500016219df,63f3cfca20052e4ae7554ebf,6453ca5b220da426d7e073eb,2023-05-04_17h10.25.493,ga_syllabified_check,2022.2.5,Win32,29.89089822,,,,,,,,,,,,,,./stim/p07_syllable_1_manhiala_hit.wav,p07,mañiala,hit,ma-nhia-la,ma-ñia-la,ma-ñi-a-la, ,-0.397135417,-0.1015625,1,0,0,2.974,text_option_1,,0,65,65,157,1
5ac2a8065cd10500016219df,63f3cfca20052e4ae7554ebf,6453ca5b220da426d7e073eb,2023-05-04_17h10.25.493,ga_syllabified_check,2022.2.5,Win32,29.89089822,,,,,,,,,,,,,,./stim/p06_syllable_1_payielo_hit.wav,p06,payielo,hit,pa-yi-e-lo,pa-yie-lo,pa-yi-e-lo, ,0.393229167,-0.1015625,1,0,0,2.0699,text_option_2,,0,66,66,132,1
5ac2a8065cd10500016219df,63f3cfca20052e4ae7554ebf,6453ca5b220da426d7e073eb,2023-05-04_17h10.25.493,ga_syllabified_check,2022.2.5,Win32,29.89089822,,,,,,,,,,,,,,./stim/p03_syllable_1_tuliafo_hit.wav,p03,tuliafo,hit,tu-lia-fo,tu-lia-fo,tu-li-a-fo, ,-0.3984375,-0.098958333,1,0,0,1.5266,text_option_1,,0,67,67,33,1
5ac2a8065cd10500016219df,63f3cfca20052e4ae7554ebf,6453ca5b220da426d7e073eb,2023-05-04_17h10.25.493,ga_syllabified_check,2022.2.5,Win32,29.89089822,,,,,,,,,,,,,,./stim/p08_syllable_1_palutrauco_hit.wav,p08,palutrauco,hit,pa-lu-trau-ko,pa-lu-trau-co,pa-lu-tra-u-co, ,0.41796875,-0.091145833,1,0,0,2.7074,text_option_2,,0,68,68,199,1
5ac2a8065cd10500016219df,63f3cfca20052e4ae7554ebf,6453ca5b220da426d7e073eb,2023-05-04_17h10.25.493,ga_syllabified_check,2022.2.5,Win32,29.89089822,,,,,,,,,,,,,,./stim/p06_syllable_1_lakaduaisto_hit.wav,p06,lakaduaisto,hit,la-ka-du-a-is,la-ka-duais-to,la-ka-du-ais-to,la-ka-dua-is-to,0.44140625,-0.098958333,1,0,0,7.5633,text_option_2,,0,69,69,111,1
5ac2a8065cd10500016219df,63f3cfca20052e4ae7554ebf,6453ca5b220da426d7e073eb,2023-05-04_17h10.25.493,ga_syllabified_check,2022.2.5,Win32,29.89089822,,,,,,,,,,,,,,./stim/p08_syllable_1_lakafuaisto_hit.wav,p08,lakafuaisto,hit,la-ka-fju-ais-to,la-ka-fuais-to,la-ka-fu-ais-to,la-ka-fua-is-to,0.376302083,-0.09765625,1,0,0,7.2589,text_option_2,,0,70,70,181,1
5ac2a8065cd10500016219df,63f3cfca20052e4ae7554ebf,6453ca5b220da426d7e073eb,2023-05-04_17h10.25.493,ga_syllabified_check,2022.2.5,Win32,29.89089822,,,,,,,,,,,,,,./stim/p07_syllable_1_falutraigo_hit.wav,p07,falutraigo,hit,fa-lu-trai-go,fa-lu-trai-go,fa-lu-tra-i-go, ,-0.403645833,-0.09375,1,0,0,2.6867,text_option_1,,0,71,71,140,1
5ac2a8065cd10500016219df,63f3cfca20052e4ae7554ebf,6453ca5b220da426d7e073eb,2023-05-04_17h10.25.493,ga_syllabified_check,2022.2.5,Win32,29.89089822,,,,,,,,,,,,,,./stim/p08_syllable_1_falufaisto_hit.wav,p08,falufaisto,hit,fa-lu-fais-to,fa-lu-fais-to,fa-lu-fa-is-to, ,0.436197917,-0.087239583,1,0,0,2.5619,text_option_2,,0,72,72,173,1
5ac2a8065cd10500016219df,63f3cfca20052e4ae7554ebf,6453ca5b220da426d7e073eb,2023-05-04_17h10.25.493,ga_syllabified_check,2022.2.5,Win32,29.89089822,,,,,,,,,,,,,,./stim/p03_syllable_1_mebochiana_hit.wav,p03,mebochiana,hit,me-bo-chia-na,me-bo-chia-na,me-bo-chi-a-na, ,-0.37109375,-0.1015625,1,0,0,1.706,text_option_1,,0,73,73,22,1
5ac2a8065cd10500016219df,63f3cfca20052e4ae7554ebf,6453ca5b220da426d7e073eb,2023-05-04_17h10.25.493,ga_syllabified_check,2022.2.5,Win32,29.89089822,,,,,,,,,,,,,,./stim/p04_syllable_1_costonhialo_hit.wav,p04,costoñialo,hit,cos-to-nhia-lo,cos-to-ñia-lo,cos-to-ñi-a-lo, ,-0.372395833,-0.100260417,1,0,0,2.9515,text_option_1,,0,74,74,35,1
5ac2a8065cd10500016219df,63f3cfca20052e4ae7554ebf,6453ca5b220da426d7e073eb,2023-05-04_17h10.25.493,ga_syllabified_check,2022.2.5,Win32,29.89089822,,,,,,,,,,,,,,./stim/p05_syllable_1_lakakuaisto_hit.wav,p05,lakakuaisto,hit,la-ka-kais-to,la-ka-kuais-to,la-ka-ku-ais-to,la-ka-kua-is-to,-0.350260417,-0.104166667,1,0,0,3.3838,text_option_1,,0,75,75,83,1
5ac2a8065cd10500016219df,63f3cfca20052e4ae7554ebf,6453ca5b220da426d7e073eb,2023-05-04_17h10.25.493,ga_syllabified_check,2022.2.5,Win32,29.89089822,,,,,,,,,,,,,,./stim/p08_syllable_1_flauro_hit.wav,p08,flauro,hit,flau-ro,flau-ro,fla-u-ro, ,-0.3828125,-0.1015625,1,0,0,1.4707,text_option_1,,0,76,76,175,1
5ac2a8065cd10500016219df,63f3cfca20052e4ae7554ebf,6453ca5b220da426d7e073eb,2023-05-04_17h10.25.493,ga_syllabified_check,2022.2.5,Win32,29.89089822,,,,,,,,,,,,,,./stim/p07_syllable_1_lakaduaisto_hit.wav,p07,lakaduaisto,hit,la-ka-duais-to,la-ka-duais-to,la-ka-du-ais-to,la-ka-dua-is-to,-0.368489583,-0.088541667,1,0,0,2.2302,text_option_1,,0,77,77,145,1
5ac2a8065cd10500016219df,63f3cfca20052e4ae7554ebf,6453ca5b220da426d7e073eb,2023-05-04_17h10.25.493,ga_syllabified_check,2022.2.5,Win32,29.89089822,,,,,,,,,,,,,,./stim/p07_syllable_1_nhiape_hit.wav,p07,ñiape,hit,nhia-pe,ñia-pe,ñi-a-pe, ,-0.415364583,-0.098958333,1,0,0,1.1837,text_option_1,,0,78,78,159,1
5ac2a8065cd10500016219df,63f3cfca20052e4ae7554ebf,6453ca5b220da426d7e073eb,2023-05-04_17h10.25.493,ga_syllabified_check,2022.2.5,Win32,29.89089822,,,,,,,,,,,,,,./stim/p03_syllable_1_palutrauco_hit.wav,p03,palutrauco,hit,pa-lu-trau-co,pa-lu-trau-co,pa-lu-tra-u-co, ,0.48046875,-0.102864583,1,0,0,2.9677,text_option_2,,0,79,79,29,1
5ac2a8065cd10500016219df,63f3cfca20052e4ae7554ebf,6453ca5b220da426d7e073eb,2023-05-04_17h10.25.493,ga_syllabified_check,2022.2.5,Win32,29.89089822,,,,,,,,,,,,,,./stim/p03_syllable_1_pachialo_hit.wav,p03,pachialo,hit,pa-chia-lo,pa-chia-lo,pa-chi-a-lo, ,0.40234375,-0.102864583,1,0,0,2.8473,text_option_2,,0,80,80,24,1
5ac2a8065cd10500016219df,63f3cfca20052e4ae7554ebf,6453ca5b220da426d7e073eb,2023-05-04_17h10.25.493,ga_syllabified_check,2022.2.5,Win32,29.89089822,,,,,,,,,,,,,,./stim/p03_syllable_1_lakadiaisto_hit.wav,p03,lakadiaisto,hit,la-ka-diais-to,la-ka-diais-to,la-ka-di-ais-to,la-ka-dia-is-to,0.044270833,-0.10546875,1,0,0,4.7674,text_option_3,,0,81,81,8,1
5ac2a8065cd10500016219df,63f3cfca20052e4ae7554ebf,6453ca5b220da426d7e073eb,2023-05-04_17h10.25.493,ga_syllabified_check,2022.2.5,Win32,29.89089822,,,,,,,,,,,,,,./stim/p06_syllable_1_lakagiaisto_hit.wav,p06,lakagiaisto,hit,la-ka-gia-is-to,la-ka-giais-to,la-ka-gi-ais-to,la-ka-gia-is-to,0.0078125,-0.102864583,1,0,0,6.015,text_option_3,,0,82,82,114,1
5ac2a8065cd10500016219df,63f3cfca20052e4ae7554ebf,6453ca5b220da426d7e073eb,2023-05-04_17h10.25.493,ga_syllabified_check,2022.2.5,Win32,29.89089822,,,,,,,,,,,,,,./stim/p06_syllable_1_palutrauco_hit.wav,p06,palutrauco,hit,pa-lu-tra-u-co,pa-lu-trau-co,pa-lu-tra-u-co, ,0.407552083,-0.110677083,1,0,0,2.6017,text_option_2,,0,83,83,131,1
5ac2a8065cd10500016219df,63f3cfca20052e4ae7554ebf,6453ca5b220da426d7e073eb,2023-05-04_17h10.25.493,ga_syllabified_check,2022.2.5,Win32,29.89089822,,,,,,,,,,,,,,./stim/p08_syllable_1_nhiape_hit.wav,p08,ñiape,hit,ni-a-pe,ñia-pe,ñi-a-pe, ,0.411458333,-0.1171875,1,0,0,1.6991,text_option_2,,0,84,84,193,1
5ac2a8065cd10500016219df,63f3cfca20052e4ae7554ebf,6453ca5b220da426d7e073eb,2023-05-04_17h10.25.493,ga_syllabified_check,2022.2.5,Win32,29.89089822,,,,,,,,,,,,,,./stim/p07_syllable_1_tuliafo_hit.wav,p07,tuliafo,hit,tu-lia-fo,tu-lia-fo,tu-li-a-fo, ,-0.38671875,-0.1015625,1,0,0,1.287,text_option_1,,0,85,85,169,1
5ac2a8065cd10500016219df,63f3cfca20052e4ae7554ebf,6453ca5b220da426d7e073eb,2023-05-04_17h10.25.493,ga_syllabified_check,2022.2.5,Win32,29.89089822,,,,,,,,,,,,,,./stim/p06_syllable_1_ruyiola_hit.wav,p06,ruyiola,hit,ru-yi-o-la,ru-yio-la,ru-yi-o-la, ,0.436197917,-0.092447917,1,0,0,1.1844,text_option_2,,0,86,86,134,1
5ac2a8065cd10500016219df,63f3cfca20052e4ae7554ebf,6453ca5b220da426d7e073eb,2023-05-04_17h10.25.493,ga_syllabified_check,2022.2.5,Win32,29.89089822,,,,,,,,,,,,,,./stim/p06_syllable_1_costonhialo_hit.wav,p06,costoñialo,hit,cos-to-nhia-lo,cos-to-ñia-lo,cos-to-ñi-a-lo, ,-0.3515625,-0.100260417,1,0,0,3.3914,text_option_1,,0,87,87,103,1
5ac2a8065cd10500016219df,63f3cfca20052e4ae7554ebf,6453ca5b220da426d7e073eb,2023-05-04_17h10.25.493,ga_syllabified_check,2022.2.5,Win32,29.89089822,,,,,,,,,,,,,,./stim/p05_syllable_1_tuliafo_hit.wav,p05,tuliafo,hit,tu-lai-fo,tu-lia-fo,tu-li-a-fo, ,-0.41015625,-0.096354167,1,0,0,3.4267,text_option_1,,0,88,88,101,1
5ac2a8065cd10500016219df,63f3cfca20052e4ae7554ebf,6453ca5b220da426d7e073eb,2023-05-04_17h10.25.493,ga_syllabified_check,2022.2.5,Win32,29.89089822,,,,,,,,,,,,,,./stim/p03_syllable_1_paluguato_hit.wav,p03,paluguato,hit,pa-lu-gua,pa-lu-gua-to,pa-lu-gu-a-to, ,-0.34375,-0.09765625,1,0,0,3.2167,text_option_1,,0,89,89,27,1
5ac2a8065cd10500016219df,63f3cfca20052e4ae7554ebf,6453ca5b220da426d7e073eb,2023-05-04_17h10.25.493,ga_syllabified_check,2022.2.5,Win32,29.89089822,,,,,,,,,,,,,,./stim/p08_syllable_1_lakaduaisto_hit.wav,p08,lakaduaisto,hit,la-ka-du-ais-to,la-ka-duais-to,la-ka-du-ais-to,la-ka-dua-is-to,0.430989583,-0.102864583,1,0,0,5.0127,text_option_2,,0,90,90,179,1
5ac2a8065cd10500016219df,63f3cfca20052e4ae7554ebf,6453ca5b220da426d7e073eb,2023-05-04_17h10.25.493,ga_syllabified_check,2022.2.5,Win32,29.89089822,,,,,,,,,,,,,,./stim/p05_syllable_1_chiaba_hit.wav,p05,chiaba,hit,chia-ba,chia-ba,chi-a-ba, ,-0.384114583,-0.100260417,1,0,0,2.4804,text_option_1,,0,91,91,68,1
5ac2a8065cd10500016219df,63f3cfca20052e4ae7554ebf,6453ca5b220da426d7e073eb,2023-05-04_17h10.25.493,ga_syllabified_check,2022.2.5,Win32,29.89089822,,,,,,,,,,,,,,./stim/p07_syllable_1_lakabiaisto_hit.wav,p07,lakabiaisto,hit,la-ka-bais-to,la-ka-biais-to,la-ka-bi-ais-to,la-ka-bia-is-to,-0.364583333,-0.1015625,1,0,0,5.6632,text_option_1,,0,92,92,142,1
5ac2a8065cd10500016219df,63f3cfca20052e4ae7554ebf,6453ca5b220da426d7e073eb,2023-05-04_17h10.25.493,ga_syllabified_check,2022.2.5,Win32,29.89089822,,,,,,,,,,,,,,./stim/p07_syllable_1_palufauto_hit.wav,p07,palufauto,hit,pa-lu-fau-to,pa-lu-fau-to,pa-lu-fa-u-to, ,0.40234375,-0.1171875,1,0,0,1.8945,text_option_2,,0,93,93,162,1
5ac2a8065cd10500016219df,63f3cfca20052e4ae7554ebf,6453ca5b220da426d7e073eb,2023-05-04_17h10.25.493,ga_syllabified_check,2022.2.5,Win32,29.89089822,,,,,,,,,,,,,,./stim/p03_syllable_1_flauro_hit.wav,p03,flauro,hit,flau-ro,flau-ro,fla-u-ro, ,-0.4453125,-0.111979167,1,0,0,0.9773,text_option_1,,0,94,94,5,1
5ac2a8065cd10500016219df,63f3cfca20052e4ae7554ebf,6453ca5b220da426d7e073eb,2023-05-04_17h10.25.493,ga_syllabified_check,2022.2.5,Win32,29.89089822,,,,,,,,,,,,,,./stim/p04_syllable_1_rausto_hit.wav,p04,rausto,hit,raus-to,raus-to,ra-us-to, ,-0.388020833,-0.10546875,1,0,0,0.6422,text_option_1,,0,95,95,65,1
5ac2a8065cd10500016219df,63f3cfca20052e4ae7554ebf,6453ca5b220da426d7e073eb,2023-05-04_17h10.25.493,ga_syllabified_check,2022.2.5,Win32,29.89089822,,,,,,,,,,,,,,./stim/p03_syllable_1_lakaguaisto_hit.wav,p03,lakaguaisto,hit,la-ka-guais-to,la-ka-guais-to,la-ka-gu-ais-to,la-ka-gua-is-to,-0.356770833,-0.10546875,1,0,0,3.4904,text_option_1,,0,96,96,13,1
5ac2a8065cd10500016219df,63f3cfca20052e4ae7554ebf,6453ca5b220da426d7e073eb,2023-05-04_17h10.25.493,ga_syllabified_check,2022.2.5,Win32,29.89089822,,,,,,,,,,,,,,./stim/p06_syllable_1_lakakuaisto_hit.wav,p06,lakakuaisto,hit,la-ka-ku-a-is,la-ka-kuais-to,la-ka-ku-ais-to,la-ka-kua-is-to,0.411458333,-0.106770833,1,0,0,5.6512,text_option_2,,0,97,97,117,1
5ac2a8065cd10500016219df,63f3cfca20052e4ae7554ebf,6453ca5b220da426d7e073eb,2023-05-04_17h10.25.493,ga_syllabified_check,2022.2.5,Win32,29.89089822,,,,,,,,,,,,,,./stim/p08_syllable_1_payielo_hit.wav,p08,payielo,hit,pa-yie-lo,pa-yie-lo,pa-yi-e-lo, ,0.365885417,-0.109375,1,0,0,4.1286,text_option_2,,0,98,98,200,1
5ac2a8065cd10500016219df,63f3cfca20052e4ae7554ebf,6453ca5b220da426d7e073eb,2023-05-04_17h10.25.493,ga_syllabified_check,2022.2.5,Win32,29.89089822,,,,,,,,,,,,,,./stim/p06_syllable_1_pachialo_hit.wav,p06,pachialo,hit,pa-shi-a-lo,pa-chia-lo,pa-chi-a-lo, ,0.393229167,-0.092447917,1,0,0,1.2487,text_option_2,,0,99,99,126,1
5ac2a8065cd10500016219df,63f3cfca20052e4ae7554ebf,6453ca5b220da426d7e073eb,2023-05-04_17h10.25.493,ga_syllabified_check,2022.2.5,Win32,29.89089822,,,,,,,,,,,,,,./stim/p08_syllable_1_palufauro_hit.wav,p08,palufauro,hit,pa-lu-fau-ro,pa-lu-fau-ro,pa-lu-fa-u-ro, ,0.4140625,-0.111979167,1,0,0,2.786,text_option_2,,0,100,100,195,1
5ac2a8065cd10500016219df,63f3cfca20052e4ae7554ebf,6453ca5b220da426d7e073eb,2023-05-04_17h10.25.493,ga_syllabified_check,2022.2.5,Win32,29.89089822,,,,,,,,,,,,,,./stim/p07_syllable_1_lakakuaisto_hit.wav,p07,lakakuaisto,hit,la-ka-kuais-to,la-ka-kuais-to,la-ka-ku-ais-to,la-ka-kua-is-to,-0.377604167,-0.104166667,1,0,0,3.8163,text_option_1,,0,101,101,151,1
5ac2a8065cd10500016219df,63f3cfca20052e4ae7554ebf,6453ca5b220da426d7e073eb,2023-05-04_17h10.25.493,ga_syllabified_check,2022.2.5,Win32,29.89089822,,,,,,,,,,,,,,./stim/p04_syllable_1_chiaba_hit.wav,p04,chiaba,hit,chia-ba,chia-ba,chi-a-ba, ,-0.37109375,-0.100260417,1,0,0,0.889,text_option_1,,0,102,102,34,1
5ac2a8065cd10500016219df,63f3cfca20052e4ae7554ebf,6453ca5b220da426d7e073eb,2023-05-04_17h10.25.493,ga_syllabified_check,2022.2.5,Win32,29.89089822,,,,,,,,,,,,,,./stim/p05_syllable_1_faluduako_hit.wav,p05,faluduako,hit,fa-lu-ba-ko,fa-lu-dua-ko,fa-lu-du-a-ko, ,-0.373697917,-0.1015625,1,0,0,2.7183,text_option_1,,0,103,103,70,1
5ac2a8065cd10500016219df,63f3cfca20052e4ae7554ebf,6453ca5b220da426d7e073eb,2023-05-04_17h10.25.493,ga_syllabified_check,2022.2.5,Win32,29.89089822,,,,,,,,,,,,,,./stim/p07_syllable_1_costonhialo_hit.wav,p07,costoñialo,hit,cos-to-nhia-lo,cos-to-ñia-lo,cos-to-ñi-a-lo, ,-0.359375,-0.104166667,1,0,0,3.7621,text_option_1,,0,104,104,137,1
5ac2a8065cd10500016219df,63f3cfca20052e4ae7554ebf,6453ca5b220da426d7e073eb,2023-05-04_17h10.25.493,ga_syllabified_check,2022.2.5,Win32,29.89089822,,,,,,,,,,,,,,./stim/p06_syllable_1_lakaguaisto_hit.wav,p06,lakaguaisto,hit,la-ka-gu-a-is,la-ka-guais-to,la-ka-gu-ais-to,la-ka-gua-is-to,0.447916667,-0.100260417,1,0,0,6.2915,text_option_2,,0,105,105,115,1
5ac2a8065cd10500016219df,63f3cfca20052e4ae7554ebf,6453ca5b220da426d7e073eb,2023-05-04_17h10.25.493,ga_syllabified_check,2022.2.5,Win32,29.89089822,,,,,,,,,,,,,,./stim/p06_syllable_1_rausto_hit.wav,p06,rausto,hit,ra-us-to,raus-to,ra-us-to, ,0.393229167,-0.1015625,1,0,0,1.617,text_option_2,,0,106,106,133,1
5ac2a8065cd10500016219df,63f3cfca20052e4ae7554ebf,6453ca5b220da426d7e073eb,2023-05-04_17h10.25.493,ga_syllabified_check,2022.2.5,Win32,29.89089822,,,,,,,,,,,,,,./stim/p06_syllable_1_lakadiaisto_hit.wav,p06,lakadiaisto,hit,la-ka-dia-is-to,la-ka-diais-to,la-ka-di-ais-to,la-ka-dia-is-to,-0.01953125,-0.09375,1,0,0,6.2389,text_option_3,,0,107,107,110,1
5ac2a8065cd10500016219df,63f3cfca20052e4ae7554ebf,6453ca5b220da426d7e073eb,2023-05-04_17h10.25.493,ga_syllabified_check,2022.2.5,Win32,29.89089822,,,,,,,,,,,,,,./stim/p07_syllable_1_flauro_hit.wav,p07,flauro,hit,flau-ro,flau-ro,fla-u-ro, ,-0.403645833,-0.108072917,1,0,0,0.9786,text_option_1,,0,108,108,141,1
5ac2a8065cd10500016219df,63f3cfca20052e4ae7554ebf,6453ca5b220da426d7e073eb,2023-05-04_17h10.25.493,ga_syllabified_check,2022.2.5,Win32,29.89089822,,,,,,,,,,,,,,./stim/p07_syllable_1_payielo_hit.wav,p07,payielo,hit,pa-yie-lo,pa-yie-lo,pa-yi-e-lo, ,-0.411458333,-0.1015625,1,0,0,2.2285,text_option_1,,0,109,109,166,1
5ac2a8065cd10500016219df,63f3cfca20052e4ae7554ebf,6453ca5b220da426d7e073eb,2023-05-04_17h10.25.493,ga_syllabified_check,2022.2.5,Win32,29.89089822,,,,,,,,,,,,,,./stim/p05_syllable_1_palufauro_hit.wav,p05,palufauro,hit,pa-lu-fau-ro,pa-lu-fau-ro,pa-lu-fa-u-ro, ,-0.404947917,-0.111979167,1,0,0,2.1298,text_option_1,,0,110,110,93,1
5ac2a8065cd10500016219df,63f3cfca20052e4ae7554ebf,6453ca5b220da426d7e073eb,2023-05-04_17h10.25.493,ga_syllabified_check,2022.2.5,Win32,29.89089822,,,,,,,,,,,,,,./stim/p06_syllable_1_palumaisto_hit.wav,p06,palumaisto,hit,pa-lu-ma-is-to,pa-lu-mais-to,pa-lu-ma-is-to, ,0.44140625,-0.100260417,1,0,0,3.0003,text_option_2,,0,111,111,130,1
5ac2a8065cd10500016219df,63f3cfca20052e4ae7554ebf,6453ca5b220da426d7e073eb,2023-05-04_17h10.25.493,ga_syllabified_check,2022.2.5,Win32,29.89089822,,,,,,,,,,,,,,./stim/p06_syllable_1_lakabiaisto_hit.wav,p06,lakabiaisto,hit,la-ka-bia-is-to,la-ka-biais-to,la-ka-bi-ais-to,la-ka-bia-is-to,0.026041667,-0.104166667,1,0,0,3.9166,text_option_3,,0,112,112,108,1
5ac2a8065cd10500016219df,63f3cfca20052e4ae7554ebf,6453ca5b220da426d7e073eb,2023-05-04_17h10.25.493,ga_syllabified_check,2022.2.5,Win32,29.89089822,,,,,,,,,,,,,,./stim/p06_syllable_1_lakatuaisto_hit.wav,p06,lakatuaisto,hit,la-ka-tu-a-is,la-ka-tuais-to,la-ka-tu-ais-to,la-ka-tua-is-to,0.4140625,-0.1015625,1,0,0,3.6965,text_option_2,,0,113,113,121,1
5ac2a8065cd10500016219df,63f3cfca20052e4ae7554ebf,6453ca5b220da426d7e073eb,2023-05-04_17h10.25.493,ga_syllabified_check,2022.2.5,Win32,29.89089822,,,,,,,,,,,,,,./stim/p04_syllable_1_palumaisto_hit.wav,p04,palumaisto,hit,pa-lu-mais-to,pa-lu-mais-to,pa-lu-ma-is-to, ,0.412760417,-0.098958333,1,0,0,2.6447,text_option_2,,0,114,114,62,1
5ac2a8065cd10500016219df,63f3cfca20052e4ae7554ebf,6453ca5b220da426d7e073eb,2023-05-04_17h10.25.493,ga_syllabified_check,2022.2.5,Win32,29.89089822,,,,,,,,,,,,,,./stim/p08_syllable_1_costonhialo_hit.wav,p08,costoñialo,hit,cos-to-nhia-lo,cos-to-ñia-lo,cos-to-ñi-a-lo, ,-0.37890625,-0.104166667,1,0,0,2.1082,text_option_1,,0,115,115,171,1
5ac2a8065cd10500016219df,63f3cfca20052e4ae7554ebf,6453ca5b220da426d7e073eb,2023-05-04_17h10.25.493,ga_syllabified_check,2022.2.5,Win32,29.89089822,,,,,,,,,,,,,,./stim/p04_syllable_1_paluguato_hit.wav,p04,paluguato,hit,pa-lu-gua,pa-lu-gua-to,pa-lu-gu-a-to, ,-0.350260417,-0.109375,1,0,0,1.3542,text_option_1,,0,116,116,61,1
5ac2a8065cd10500016219df,63f3cfca20052e4ae7554ebf,6453ca5b220da426d7e073eb,2023-05-04_17h10.25.493,ga_syllabified_check,2022.2.5,Win32,29.89089822,,,,,,,,,,,,,,./stim/p03_syllable_1_palumaisto_hit.wav,p03,palumaisto,hit,pa-lu-mais-to,pa-lu-mais-to,pa-lu-ma-is-to, ,-0.359375,-0.102864583,1,0,0,2.2111,text_option_1,,0,117,117,28,1
5ac2a8065cd10500016219df,63f3cfca20052e4ae7554ebf,6453ca5b220da426d7e073eb,2023-05-04_17h10.25.493,ga_syllabified_check,2022.2.5,Win32,29.89089822,,,,,,,,,,,,,,./stim/p07_syllable_1_chiaba_hit.wav,p07,chiaba,hit,chia-ba,chia-ba,chi-a-ba, ,-0.42578125,-0.098958333,1,0,0,0.678,text_option_1,,0,118,118,136,1
5ac2a8065cd10500016219df,63f3cfca20052e4ae7554ebf,6453ca5b220da426d7e073eb,2023-05-04_17h10.25.493,ga_syllabified_check,2022.2.5,Win32,29.89089822,,,,,,,,,,,,,,./stim/p08_syllable_1_lakatuaisto_hit.wav,p08,lakatuaisto,hit,la-ka-tu-i-jis,la-ka-tuais-to,la-ka-tu-ais-to,la-ka-tua-is-to,0.083333333,-0.104166667,1,0,0,6.9292,text_option_3,,0,119,119,189,1
5ac2a8065cd10500016219df,63f3cfca20052e4ae7554ebf,6453ca5b220da426d7e073eb,2023-05-04_17h10.25.493,ga_syllabified_check,2022.2.5,Win32,29.89089822,,,,,,,,,,,,,,./stim/p04_syllable_1_lakabiaisto_hit.wav,p04,lakabiaisto,hit,la-ka-biais-to,la-ka-biais-to,la-ka-bi-ais-to,la-ka-bia-is-to,0.063802083,-0.096354167,1,0,0,5.4992,text_option_3,,0,120,120,40,1
5ac2a8065cd10500016219df,63f3cfca20052e4ae7554ebf,6453ca5b220da426d7e073eb,2023-05-04_17h10.25.493,ga_syllabified_check,2022.2.5,Win32,29.89089822,,,,,,,,,,,,,,./stim/p03_syllable_1_chiaba_hit.wav,p03,chiaba,hit,chia-ba,chia-ba,chi-a-ba, ,-0.373697917,-0.1015625,1,0,0,1.153,text_option_1,,0,121,121,0,1
5ac2a8065cd10500016219df,63f3cfca20052e4ae7554ebf,6453ca5b220da426d7e073eb,2023-05-04_17h10.25.493,ga_syllabified_check,2022.2.5,Win32,29.89089822,,,,,,,,,,,,,,./stim/p03_syllable_1_lakagiaisto_hit.wav,p03,lakagiaisto,hit,la-ka-giais-to,la-ka-giais-to,la-ka-gi-ais-to,la-ka-gia-is-to,0.0234375,-0.104166667,1,0,0,4.1145,text_option_3,,0,122,122,12,1
5ac2a8065cd10500016219df,63f3cfca20052e4ae7554ebf,6453ca5b220da426d7e073eb,2023-05-04_17h10.25.493,ga_syllabified_check,2022.2.5,Win32,29.89089822,,,,,,,,,,,,,,./stim/p04_syllable_1_flauro_hit.wav,p04,flauro,hit,flau-ro,flau-ro,fla-u-ro, ,-0.372395833,-0.098958333,1,0,0,1.1195,text_option_1,,0,123,123,39,1
5ac2a8065cd10500016219df,63f3cfca20052e4ae7554ebf,6453ca5b220da426d7e073eb,2023-05-04_17h10.25.493,ga_syllabified_check,2022.2.5,Win32,29.89089822,,,,,,,,,,,,,,./stim/p08_syllable_1_mebochiana_hit.wav,p08,mebochiana,hit,me-bo-chi-a-na,me-bo-chia-na,me-bo-chi-a-na, ,0.419270833,-0.087239583,1,0,0,4.6357,text_option_2,,0,124,124,192,1
5ac2a8065cd10500016219df,63f3cfca20052e4ae7554ebf,6453ca5b220da426d7e073eb,2023-05-04_17h10.25.493,ga_syllabified_check,2022.2.5,Win32,29.89089822,,,,,,,,,,,,,,./stim/p06_syllable_1_paluguato_hit.wav,p06,paluguato,hit,pa-lu-gua-to,pa-lu-gua-to,pa-lu-gu-a-to, ,-0.34375,-0.106770833,1,0,0,2.7998,text_option_1,,0,125,125,129,1
5ac2a8065cd10500016219df,63f3cfca20052e4ae7554ebf,6453ca5b220da426d7e073eb,2023-05-04_17h10.25.493,ga_syllabified_check,2022.2.5,Win32,29.89089822,,,,,,,,,,,,,,./stim/p08_syllable_1_lakakiaisto_hit.wav,p08,lakakiaisto,hit,la-ka-ki-jas-to,la-ka-kiais-to,la-ka-ki-ais-to,la-ka-kia-is-to,0.434895833,-0.100260417,1,0,0,2.9104,text_option_2,,0,126,126,184,1
5ac2a8065cd10500016219df,63f3cfca20052e4ae7554ebf,6453ca5b220da426d7e073eb,2023-05-04_17h10.25.493,ga_syllabified_check,2022.2.5,Win32,29.89089822,,,,,,,,,,,,,,./stim/p05_syllable_1_lakabuaisto_hit.wav,p05,lakabuaisto,hit,la-ka-buais-to,la-ka-buais-to,la-ka-bu-ais-to,la-ka-bua-is-to,0.0390625,-0.100260417,1,0,0,3.4735,text_option_3,,0,127,127,75,1
5ac2a8065cd10500016219df,63f3cfca20052e4ae7554ebf,6453ca5b220da426d7e073eb,2023-05-04_17h10.25.493,ga_syllabified_check,2022.2.5,Win32,29.89089822,,,,,,,,,,,,,,./stim/p07_syllable_1_faluduako_hit.wav,p07,faluduako,hit,fa-lu-dua-ko,fa-lu-dua-ko,fa-lu-du-a-ko, ,-0.391927083,-0.102864583,1,0,0,3.7446,text_option_1,,0,128,128,138,1
5ac2a8065cd10500016219df,63f3cfca20052e4ae7554ebf,6453ca5b220da426d7e073eb,2023-05-04_17h10.25.493,ga_syllabified_check,2022.2.5,Win32,29.89089822,,,,,,,,,,,,,,./stim/p06_syllable_1_nhiape_hit.wav,p06,ñiape,hit,nhi-a-pe,ñia-pe,ñi-a-pe, ,0.415364583,-0.095052083,1,0,0,1.4172,text_option_2,,0,129,129,125,1
5ac2a8065cd10500016219df,63f3cfca20052e4ae7554ebf,6453ca5b220da426d7e073eb,2023-05-04_17h10.25.493,ga_syllabified_check,2022.2.5,Win32,29.89089822,,,,,,,,,,,,,,./stim/p07_syllable_1_pachialo_hit.wav,p07,pachialo,hit,pa-cha-lo,pa-chia-lo,pa-chi-a-lo, ,-0.40234375,-0.088541667,1,0,0,1.8597,text_option_1,,0,130,130,160,1
5ac2a8065cd10500016219df,63f3cfca20052e4ae7554ebf,6453ca5b220da426d7e073eb,2023-05-04_17h10.25.493,ga_syllabified_check,2022.2.5,Win32,29.89089822,,,,,,,,,,,,,,./stim/p03_syllable_1_lliape_hit.wav,p03,lliape,hit,llia,llia-pe,lli-a-pe, ,-0.393229167,-0.104166667,1,0,0,1.641,text_option_1,,0,131,131,20,1
5ac2a8065cd10500016219df,63f3cfca20052e4ae7554ebf,6453ca5b220da426d7e073eb,2023-05-04_17h10.25.493,ga_syllabified_check,2022.2.5,Win32,29.89089822,,,,,,,,,,,,,,./stim/p04_syllable_1_lakatuaisto_hit.wav,p04,lakatuaisto,hit,la-ka-kuais-to,la-ka-tuais-to,la-ka-tu-ais-to,la-ka-tua-is-to,-0.389322917,-0.106770833,1,0,0,7.0233,text_option_1,,0,132,132,53,1
5ac2a8065cd10500016219df,63f3cfca20052e4ae7554ebf,6453ca5b220da426d7e073eb,2023-05-04_17h10.25.493,ga_syllabified_check,2022.2.5,Win32,29.89089822,,,,,,,,,,,,,,./stim/p07_syllable_1_lakatuaisto_hit.wav,p07,lakatuaisto,hit,la-ka-tuais-to,la-ka-tuais-to,la-ka-tu-ais-to,la-ka-tua-is-to,-0.381510417,-0.095052083,1,0,0,3.9491,text_option_1,,0,133,133,155,1
5ac2a8065cd10500016219df,63f3cfca20052e4ae7554ebf,6453ca5b220da426d7e073eb,2023-05-04_17h10.25.493,ga_syllabified_check,2022.2.5,Win32,29.89089822,,,,,,,,,,,,,,./stim/p03_syllable_1_falufaisto_hit.wav,p03,falufaisto,hit,fa-lu-fais-to,fa-lu-fais-to,fa-lu-fa-is-to, ,-0.37109375,-0.10546875,1,0,0,2.254,text_option_1,,0,134,134,3,1
5ac2a8065cd10500016219df,63f3cfca20052e4ae7554ebf,6453ca5b220da426d7e073eb,2023-05-04_17h10.25.493,ga_syllabified_check,2022.2.5,Win32,29.89089822,,,,,,,,,,,,,,./stim/p08_syllable_1_lakabuaisto_hit.wav,p08,lakabuaisto,hit,la-ka-bu-ais-to,la-ka-buais-to,la-ka-bu-ais-to,la-ka-bua-is-to,0.388020833,-0.09765625,1,0,0,5.6303,text_option_2,,0,135,135,177,1
5ac2a8065cd10500016219df,63f3cfca20052e4ae7554ebf,6453ca5b220da426d7e073eb,2023-05-04_17h10.25.493,ga_syllabified_check,2022.2.5,Win32,29.89089822,,,,,,,,,,,,,,./stim/p04_syllable_1_lakabuaisto_hit.wav,p04,lakabuaisto,hit,la-ka-buais-to,la-ka-buais-to,la-ka-bu-ais-to,la-ka-bua-is-to,-0.365885417,-0.108072917,1,0,0,1.8921,text_option_1,,0,136,136,41,1
5ac2a8065cd10500016219df,63f3cfca20052e4ae7554ebf,6453ca5b220da426d7e073eb,2023-05-04_17h10.25.493,ga_syllabified_check,2022.2.5,Win32,29.89089822,,,,,,,,,,,,,,./stim/p07_syllable_1_lakapuaisto_hit.wav,p07,lakapuaisto,hit,la-ka-puais-to,la-ka-puais-to,la-ka-pu-ais-to,la-ka-pua-is-to,-0.356770833,-0.10546875,1,0,0,6.6075,text_option_1,,0,137,137,153,1
5ac2a8065cd10500016219df,63f3cfca20052e4ae7554ebf,6453ca5b220da426d7e073eb,2023-05-04_17h10.25.493,ga_syllabified_check,2022.2.5,Win32,29.89089822,,,,,,,,,,,,,,./stim/p08_syllable_1_lliape_hit.wav,p08,lliape,hit,li-a-pe,llia-pe,lli-a-pe, ,0.420572917,-0.100260417,1,0,0,1.0862,text_option_2,,0,138,138,190,1
5ac2a8065cd10500016219df,63f3cfca20052e4ae7554ebf,6453ca5b220da426d7e073eb,2023-05-04_17h10.25.493,ga_syllabified_check,2022.2.5,Win32,29.89089822,,,,,,,,,,,,,,./stim/p03_syllable_1_payielo_hit.wav,p03,payielo,hit,pa-yie-lo,pa-yie-lo,pa-yi-e-lo, ,0.391927083,-0.096354167,1,0,0,2.2388,text_option_2,,0,139,139,30,1
5ac2a8065cd10500016219df,63f3cfca20052e4ae7554ebf,6453ca5b220da426d7e073eb,2023-05-04_17h10.25.493,ga_syllabified_check,2022.2.5,Win32,29.89089822,,,,,,,,,,,,,,./stim/p07_syllable_1_lakakiaisto_hit.wav,p07,lakakiaisto,hit,la-ka-kais-to,la-ka-kiais-to,la-ka-ki-ais-to,la-ka-kia-is-to,-0.356770833,-0.098958333,1,0,0,7.3317,text_option_1,,0,140,140,150,1
5ac2a8065cd10500016219df,63f3cfca20052e4ae7554ebf,6453ca5b220da426d7e073eb,2023-05-04_17h10.25.493,ga_syllabified_check,2022.2.5,Win32,29.89089822,,,,,,,,,,,,,,./stim/p04_syllable_1_faluduako_hit.wav,p04,faluduako,hit,fa-lu-dua-ko,fa-lu-dua-ko,fa-lu-du-a-ko, ,-0.381510417,-0.100260417,1,0,0,3.0328,text_option_1,,0,141,141,36,1
5ac2a8065cd10500016219df,63f3cfca20052e4ae7554ebf,6453ca5b220da426d7e073eb,2023-05-04_17h10.25.493,ga_syllabified_check,2022.2.5,Win32,29.89089822,,,,,,,,,,,,,,./stim/p04_syllable_1_palutrauco_hit.wav,p04,palutrauco,hit,pa-lu-trau-co,pa-lu-trau-co,pa-lu-tra-u-co, ,-0.38671875,-0.096354167,1,0,0,1.7903,text_option_1,,0,142,142,63,1
5ac2a8065cd10500016219df,63f3cfca20052e4ae7554ebf,6453ca5b220da426d7e073eb,2023-05-04_17h10.25.493,ga_syllabified_check,2022.2.5,Win32,29.89089822,,,,,,,,,,,,,,./stim/p08_syllable_1_ruyiola_hit.wav,p08,ruyiola,hit,ru-yio-la,ru-yio-la,ru-yi-o-la, ,-0.352864583,-0.1015625,1,0,0,1.8164,text_option_1,,0,143,143,202,1
5ac2a8065cd10500016219df,63f3cfca20052e4ae7554ebf,6453ca5b220da426d7e073eb,2023-05-04_17h10.25.493,ga_syllabified_check,2022.2.5,Win32,29.89089822,,,,,,,,,,,,,,./stim/p08_syllable_1_falutraigo_hit.wav,p08,falutraigo,hit,fa-lu-trai-go,fa-lu-trai-go,fa-lu-tra-i-go, ,-0.333333333,-0.096354167,1,0,0,1.9346,text_option_1,,0,144,144,174,1
5ac2a8065cd10500016219df,63f3cfca20052e4ae7554ebf,6453ca5b220da426d7e073eb,2023-05-04_17h10.25.493,ga_syllabified_check,2022.2.5,Win32,29.89089822,,,,,,,,,,,,,,./stim/p07_syllable_1_paluguato_hit.wav,p07,paluguato,hit,pa-lu-gua-to,pa-lu-gua-to,pa-lu-gu-a-to, ,-0.368489583,-0.100260417,1,0,0,1.5262,text_option_1,,0,145,145,163,1
5ac2a8065cd10500016219df,63f3cfca20052e4ae7554ebf,6453ca5b220da426d7e073eb,2023-05-04_17h10.25.493,ga_syllabified_check,2022.2.5,Win32,29.89089822,,,,,,,,,,,,,,./stim/p05_syllable_1_lakafuaisto_hit.wav,p05,lakafuaisto,hit,la-ka-fais-to,la-ka-fuais-to,la-ka-fu-ais-to,la-ka-fua-is-to,-0.359375,-0.104166667,1,0,0,1.1884,text_option_1,,0,146,146,79,1
5ac2a8065cd10500016219df,63f3cfca20052e4ae7554ebf,6453ca5b220da426d7e073eb,2023-05-04_17h10.25.493,ga_syllabified_check,2022.2.5,Win32,29.89089822,,,,,,,,,,,,,,./stim/p07_syllable_1_lakagiaisto_hit.wav,p07,lakagiaisto,hit,la-ka-gais-to,la-ka-giais-to,la-ka-gi-ais-to,la-ka-gia-is-to,-0.36328125,-0.106770833,1,0,0,1.8877,text_option_1,,0,147,147,148,1
5ac2a8065cd10500016219df,63f3cfca20052e4ae7554ebf,6453ca5b220da426d7e073eb,2023-05-04_17h10.25.493,ga_syllabified_check,2022.2.5,Win32,29.89089822,,,,,,,,,,,,,,./stim/p07_syllable_1_ruyiola_hit.wav,p07,ruyiola,hit,ru-yio-la,ru-yio-la,ru-yi-o-la, ,-0.369791667,-0.108072917,1,0,0,1.4654,text_option_1,,0,148,148,168,1
5ac2a8065cd10500016219df,63f3cfca20052e4ae7554ebf,6453ca5b220da426d7e073eb,2023-05-04_17h10.25.493,ga_syllabified_check,2022.2.5,Win32,29.89089822,,,,,,,,,,,,,,./stim/p05_syllable_1_lakapiaisto_hit.wav,p05,lakapiaisto,hit,la-ka-pais-to,la-ka-piais-to,la-ka-pi-ais-to,la-ka-pia-is-to,-0.37109375,-0.102864583,1,0,0,6.6756,text_option_1,,0,149,149,84,1
5ac2a8065cd10500016219df,63f3cfca20052e4ae7554ebf,6453ca5b220da426d7e073eb,2023-05-04_17h10.25.493,ga_syllabified_check,2022.2.5,Win32,29.89089822,,,,,,,,,,,,,,./stim/p05_syllable_1_manhiala_hit.wav,p05,mañiala,hit,ma-nhia-la,ma-ñia-la,ma-ñi-a-la, ,0.4375,-0.096354167,1,0,0,1.6228,text_option_2,,0,150,150,89,1
5ac2a8065cd10500016219df,63f3cfca20052e4ae7554ebf,6453ca5b220da426d7e073eb,2023-05-04_17h10.25.493,ga_syllabified_check,2022.2.5,Win32,29.89089822,,,,,,,,,,,,,,./stim/p06_syllable_1_lakapiaisto_hit.wav,p06,lakapiaisto,hit,la-ka-pia-is-to,la-ka-piais-to,la-ka-pi-ais-to,la-ka-pia-is-to,0.045572917,-0.09765625,1,0,0,6.0734,text_option_3,,0,151,151,118,1
5ac2a8065cd10500016219df,63f3cfca20052e4ae7554ebf,6453ca5b220da426d7e073eb,2023-05-04_17h10.25.493,ga_syllabified_check,2022.2.5,Win32,29.89089822,,,,,,,,,,,,,,./stim/p08_syllable_1_lakapiaisto_hit.wav,p08,lakapiaisto,hit,la-ka-pi-as-to,la-ka-piais-to,la-ka-pi-ais-to,la-ka-pia-is-to,0.403645833,-0.100260417,1,0,0,3.4462,text_option_2,,0,152,152,186,1
5ac2a8065cd10500016219df,63f3cfca20052e4ae7554ebf,6453ca5b220da426d7e073eb,2023-05-04_17h10.25.493,ga_syllabified_check,2022.2.5,Win32,29.89089822,,,,,,,,,,,,,,./stim/p04_syllable_1_payielo_hit.wav,p04,payielo,hit,pa-yie-lo,pa-yie-lo,pa-yi-e-lo, ,-0.391927083,-0.1015625,1,0,0,1.603,text_option_1,,0,153,153,64,1
5ac2a8065cd10500016219df,63f3cfca20052e4ae7554ebf,6453ca5b220da426d7e073eb,2023-05-04_17h10.25.493,ga_syllabified_check,2022.2.5,Win32,29.89089822,,,,,,,,,,,,,,./stim/p04_syllable_1_lakadiaisto_hit.wav,p04,lakadiaisto,hit,la-ka-dias-to,la-ka-diais-to,la-ka-di-ais-to,la-ka-dia-is-to,-0.3671875,-0.08203125,1,0,0,2.1965,text_option_1,,0,154,154,42,1
5ac2a8065cd10500016219df,63f3cfca20052e4ae7554ebf,6453ca5b220da426d7e073eb,2023-05-04_17h10.25.493,ga_syllabified_check,2022.2.5,Win32,29.89089822,,,,,,,,,,,,,,./stim/p04_syllable_1_palufauto_hit.wav,p04,palufauto,hit,pa-lu-fau-to,pa-lu-fau-to,pa-lu-fa-u-to, ,-0.372395833,-0.08984375,1,0,0,0.6469,text_option_1,,0,155,155,60,1
5ac2a8065cd10500016219df,63f3cfca20052e4ae7554ebf,6453ca5b220da426d7e073eb,2023-05-04_17h10.25.493,ga_syllabified_check,2022.2.5,Win32,29.89089822,,,,,,,,,,,,,,./stim/p06_syllable_1_flauro_hit.wav,p06,flauro,hit,fla-u-ro,flau-ro,fla-u-ro, ,0.423177083,-0.102864583,1,0,0,1.0136,text_option_2,,0,156,156,107,1
5ac2a8065cd10500016219df,63f3cfca20052e4ae7554ebf,6453ca5b220da426d7e073eb,2023-05-04_17h10.25.493,ga_syllabified_check,2022.2.5,Win32,29.89089822,,,,,,,,,,,,,,./stim/p06_syllable_1_lakakiaisto_hit.wav,p06,lakakiaisto,hit,la-ka-kia-is-to,la-ka-kiais-to,la-ka-ki-ais-to,la-ka-kia-is-to,0.026041667,-0.1015625,1,0,0,3.8667,text_option_3,,0,157,157,116,1
5ac2a8065cd10500016219df,63f3cfca20052e4ae7554ebf,6453ca5b220da426d7e073eb,2023-05-04_17h10.25.493,ga_syllabified_check,2022.2.5,Win32,29.89089822,,,,,,,,,,,,,,./stim/p05_syllable_1_paluguato_hit.wav,p05,paluguato,hit,pa-lu-gau-to,pa-lu-gua-to,pa-lu-gu-a-to, ,-0.34375,-0.10546875,1,0,0,3.8658,text_option_1,,0,158,158,95,1
5ac2a8065cd10500016219df,63f3cfca20052e4ae7554ebf,6453ca5b220da426d7e073eb,2023-05-04_17h10.25.493,ga_syllabified_check,2022.2.5,Win32,29.89089822,,,,,,,,,,,,,,./stim/p07_syllable_1_rausto_hit.wav,p07,rausto,hit,raus-to,raus-to,ra-us-to, ,-0.369791667,-0.100260417,1,0,0,2.1994,text_option_1,,0,159,159,167,1
5ac2a8065cd10500016219df,63f3cfca20052e4ae7554ebf,6453ca5b220da426d7e073eb,2023-05-04_17h10.25.493,ga_syllabified_check,2022.2.5,Win32,29.89089822,,,,,,,,,,,,,,./stim/p08_syllable_1_faluduako_hit.wav,p08,faluduako,hit,fa-lu-duai-ko,fa-lu-dua-ko,fa-lu-du-a-ko, ,-0.34765625,-0.102864583,1,0,0,3.4679,text_option_1,,0,160,160,172,1
5ac2a8065cd10500016219df,63f3cfca20052e4ae7554ebf,6453ca5b220da426d7e073eb,2023-05-04_17h10.25.493,ga_syllabified_check,2022.2.5,Win32,29.89089822,,,,,,,,,,,,,,./stim/p03_syllable_1_lakabiaisto_hit.wav,p03,lakabiaisto,hit,la-ka-biais-to,la-ka-biais-to,la-ka-bi-ais-to,la-ka-bia-is-to,-0.3515625,-0.1171875,1,0,0,1.3834,text_option_1,,0,161,161,6,1
5ac2a8065cd10500016219df,63f3cfca20052e4ae7554ebf,6453ca5b220da426d7e073eb,2023-05-04_17h10.25.493,ga_syllabified_check,2022.2.5,Win32,29.89089822,,,,,,,,,,,,,,./stim/p05_syllable_1_palutrauco_hit.wav,p05,palutrauco,hit,pa-lu-trai-co,pa-lu-trau-co,pa-lu-tra-u-co, ,-0.36328125,-0.100260417,1,0,0,2.2559,text_option_1,,0,162,162,97,1
5ac2a8065cd10500016219df,63f3cfca20052e4ae7554ebf,6453ca5b220da426d7e073eb,2023-05-04_17h10.25.493,ga_syllabified_check,2022.2.5,Win32,29.89089822,,,,,,,,,,,,,,./stim/p06_syllable_1_lakatiaisto_hit.wav,p06,lakatiaisto,hit,la-ka-pia-is-to,la-ka-tiais-to,la-ka-ti-ais-to,la-ka-tia-is-to,0.024739583,-0.102864583,1,0,0,3.8048,text_option_3,,0,163,163,120,1
5ac2a8065cd10500016219df,63f3cfca20052e4ae7554ebf,6453ca5b220da426d7e073eb,2023-05-04_17h10.25.493,ga_syllabified_check,2022.2.5,Win32,29.89089822,,,,,,,,,,,,,,./stim/p06_syllable_1_palufauro_hit.wav,p06,palufauro,hit,pa-lu-fau-ro,pa-lu-fau-ro,pa-lu-fa-u-ro, ,0.453125,-0.09765625,1,0,0,3.7276,text_option_2,,0,164,164,127,1
5ac2a8065cd10500016219df,63f3cfca20052e4ae7554ebf,6453ca5b220da426d7e073eb,2023-05-04_17h10.25.493,ga_syllabified_check,2022.2.5,Win32,29.89089822,,,,,,,,,,,,,,./stim/p03_syllable_1_lakakuaisto_hit.wav,p03,lakakuaisto,hit,la-ka-kuais-to,la-ka-kuais-to,la-ka-ku-ais-to,la-ka-kua-is-to,-0.36328125,-0.104166667,1,0,0,1.9564,text_option_1,,0,165,165,15,1
5ac2a8065cd10500016219df,63f3cfca20052e4ae7554ebf,6453ca5b220da426d7e073eb,2023-05-04_17h10.25.493,ga_syllabified_check,2022.2.5,Win32,29.89089822,,,,,,,,,,,,,,./stim/p05_syllable_1_falutraigo_hit.wav,p05,falutraigo,hit,fa-lu-trai-go,fa-lu-trai-go,fa-lu-tra-i-go, ,-0.354166667,-0.09765625,1,0,0,0.9501,text_option_1,,0,166,166,72,1
5ac2a8065cd10500016219df,63f3cfca20052e4ae7554ebf,6453ca5b220da426d7e073eb,2023-05-04_17h10.25.493,ga_syllabified_check,2022.2.5,Win32,29.89089822,,,,,,,,,,,,,,./stim/p03_syllable_1_costonhialo_hit.wav,p03,costoñialo,hit,cos-to-nhia-lo,cos-to-ñia-lo,cos-to-ñi-a-lo, ,-0.34375,-0.096354167,1,0,0,1.3587,text_option_1,,0,167,167,1,1
5ac2a8065cd10500016219df,63f3cfca20052e4ae7554ebf,6453ca5b220da426d7e073eb,2023-05-04_17h10.25.493,ga_syllabified_check,2022.2.5,Win32,29.89089822,,,,,,,,,,,,,,./stim/p05_syllable_1_lakapuaisto_hit.wav,p05,lakapuaisto,hit,la-ka-pais-to,la-ka-puais-to,la-ka-pu-ais-to,la-ka-pua-is-to,-0.411458333,-0.109375,1,0,0,4.1084,text_option_1,,0,168,168,85,1
5ac2a8065cd10500016219df,63f3cfca20052e4ae7554ebf,6453ca5b220da426d7e073eb,2023-05-04_17h10.25.493,ga_syllabified_check,2022.2.5,Win32,29.89089822,,,,,,,,,,,,,,./stim/p03_syllable_1_lakabuaisto_hit.wav,p03,lakabuaisto,hit,la-ka-buais-to,la-ka-buais-to,la-ka-bu-ais-to,la-ka-bua-is-to,-0.33984375,-0.09765625,1,0,0,1.1828,text_option_1,,0,169,169,7,1
5ac2a8065cd10500016219df,63f3cfca20052e4ae7554ebf,6453ca5b220da426d7e073eb,2023-05-04_17h10.25.493,ga_syllabified_check,2022.2.5,Win32,29.89089822,,,,,,,,,,,,,,./stim/p05_syllable_1_falufaisto_hit.wav,p05,falufaisto,hit,fa-lu-fais-to,fa-lu-fais-to,fa-lu-fa-is-to, ,-0.341145833,-0.1015625,1,0,0,1.0106,text_option_1,,0,170,170,71,1
5ac2a8065cd10500016219df,63f3cfca20052e4ae7554ebf,6453ca5b220da426d7e073eb,2023-05-04_17h10.25.493,ga_syllabified_check,2022.2.5,Win32,29.89089822,,,,,,,,,,,,,,./stim/p05_syllable_1_lakaduaisto_hit.wav,p05,lakaduaisto,hit,la-ka-dais-to,la-ka-duais-to,la-ka-du-ais-to,la-ka-dua-is-to,-0.333333333,-0.104166667,1,0,0,0.9214,text_option_1,,0,171,171,77,1
5ac2a8065cd10500016219df,63f3cfca20052e4ae7554ebf,6453ca5b220da426d7e073eb,2023-05-04_17h10.25.493,ga_syllabified_check,2022.2.5,Win32,29.89089822,,,,,,,,,,,,,,./stim/p04_syllable_1_ruyiola_hit.wav,p04,ruyiola,hit,ru-yio-la,ru-yio-la,ru-yi-o-la, ,-0.376302083,-0.098958333,1,0,0,1.9619,text_option_1,,0,172,172,66,1
5ac2a8065cd10500016219df,63f3cfca20052e4ae7554ebf,6453ca5b220da426d7e073eb,2023-05-04_17h10.25.493,ga_syllabified_check,2022.2.5,Win32,29.89089822,,,,,,,,,,,,,,./stim/p04_syllable_1_lakaduaisto_hit.wav,p04,lakaduaisto,hit,la-ka-duais-to,la-ka-duais-to,la-ka-du-ais-to,la-ka-dua-is-to,-0.359375,-0.09765625,1,0,0,1.2163,text_option_1,,0,173,173,43,1
5ac2a8065cd10500016219df,63f3cfca20052e4ae7554ebf,6453ca5b220da426d7e073eb,2023-05-04_17h10.25.493,ga_syllabified_check,2022.2.5,Win32,29.89089822,,,,,,,,,,,,,,./stim/p08_syllable_1_lakafiaisto_hit.wav,p08,lakafiaisto,hit,la-ka-fi-as-to,la-ka-fiais-to,la-ka-fi-ais-to,la-ka-fia-is-to,0.03125,-0.078125,1,0,0,3.1532,text_option_3,,0,174,174,180,1
5ac2a8065cd10500016219df,63f3cfca20052e4ae7554ebf,6453ca5b220da426d7e073eb,2023-05-04_17h10.25.493,ga_syllabified_check,2022.2.5,Win32,29.89089822,,,,,,,,,,,,,,./stim/p05_syllable_1_payielo_hit.wav,p05,payielo,hit,pai-yu-we-lo,pa-yie-lo,pa-yi-e-lo, ,0.39453125,-0.091145833,1,0,0,3.3132,text_option_2,,0,175,175,98,1
5ac2a8065cd10500016219df,63f3cfca20052e4ae7554ebf,6453ca5b220da426d7e073eb,2023-05-04_17h10.25.493,ga_syllabified_check,2022.2.5,Win32,29.89089822,,,,,,,,,,,,,,./stim/p05_syllable_1_lakatiaisto_hit.wav,p05,lakatiaisto,hit,la-ka-ti-ais-to,la-ka-tiais-to,la-ka-ti-ais-to,la-ka-tia-is-to,-0.369791667,-0.106770833,1,0,0,2.4998,text_option_1,,0,176,176,86,1
5ac2a8065cd10500016219df,63f3cfca20052e4ae7554ebf,6453ca5b220da426d7e073eb,2023-05-04_17h10.25.493,ga_syllabified_check,2022.2.5,Win32,29.89089822,,,,,,,,,,,,,,./stim/p04_syllable_1_lakaguaisto_hit.wav,p04,lakaguaisto,hit,la-ka-guais-to,la-ka-guais-to,la-ka-gu-ais-to,la-ka-gua-is-to,-0.322916667,-0.09375,1,0,0,1.6513,text_option_1,,0,177,177,47,1
5ac2a8065cd10500016219df,63f3cfca20052e4ae7554ebf,6453ca5b220da426d7e073eb,2023-05-04_17h10.25.493,ga_syllabified_check,2022.2.5,Win32,29.89089822,,,,,,,,,,,,,,./stim/p08_syllable_1_tuliafo_hit.wav,p08,tuliafo,hit,tu-li-a-fo,tu-lia-fo,tu-li-a-fo, ,0.389322917,-0.102864583,1,0,0,1.2551,text_option_2,,0,178,178,203,1
5ac2a8065cd10500016219df,63f3cfca20052e4ae7554ebf,6453ca5b220da426d7e073eb,2023-05-04_17h10.25.493,ga_syllabified_check,2022.2.5,Win32,29.89089822,,,,,,,,,,,,,,./stim/p06_syllable_1_lakafiaisto_hit.wav,p06,lakafiaisto,hit,la-ka-fia-is-to,la-ka-fiais-to,la-ka-fi-ais-to,la-ka-fia-is-to,-0.002604167,-0.098958333,1,0,0,4.2017,text_option_3,,0,179,179,112,1
5ac2a8065cd10500016219df,63f3cfca20052e4ae7554ebf,6453ca5b220da426d7e073eb,2023-05-04_17h10.25.493,ga_syllabified_check,2022.2.5,Win32,29.89089822,,,,,,,,,,,,,,./stim/p07_syllable_1_mebochiana_hit.wav,p07,mebochiana,hit,me-bo-chia-na,me-bo-chia-na,me-bo-chi-a-na, ,-0.321614583,-0.1015625,1,0,0,2.023,text_option_1,,0,180,180,158,1
5ac2a8065cd10500016219df,63f3cfca20052e4ae7554ebf,6453ca5b220da426d7e073eb,2023-05-04_17h10.25.493,ga_syllabified_check,2022.2.5,Win32,29.89089822,,,,,,,,,,,,,,./stim/p03_syllable_1_falutraigo_hit.wav,p03,falutraigo,hit,fa-lu-trai-go,fa-lu-trai-go,fa-lu-tra-i-go, ,-0.333333333,-0.1015625,1,0,0,1.5825,text_option_1,,0,181,181,4,1
5ac2a8065cd10500016219df,63f3cfca20052e4ae7554ebf,6453ca5b220da426d7e073eb,2023-05-04_17h10.25.493,ga_syllabified_check,2022.2.5,Win32,29.89089822,,,,,,,,,,,,,,./stim/p06_syllable_1_faluduako_hit.wav,p06,faluduako,hit,fa-lu-dua-ko,fa-lu-dua-ko,fa-lu-du-a-ko, ,0.3984375,-0.1015625,1,0,0,2.9164,text_option_2,,0,182,182,104,1
5ac2a8065cd10500016219df,63f3cfca20052e4ae7554ebf,6453ca5b220da426d7e073eb,2023-05-04_17h10.25.493,ga_syllabified_check,2022.2.5,Win32,29.89089822,,,,,,,,,,,,,,./stim/p06_syllable_1_tuliafo_hit.wav,p06,tuliafo,hit,tu-li-a-fo,tu-lia-fo,tu-li-a-fo, ,0.39453125,-0.096354167,1,0,0,1.5198,text_option_2,,0,183,183,135,1
5ac2a8065cd10500016219df,63f3cfca20052e4ae7554ebf,6453ca5b220da426d7e073eb,2023-05-04_17h10.25.493,ga_syllabified_check,2022.2.5,Win32,29.89089822,,,,,,,,,,,,,,./stim/p05_syllable_1_lliape_hit.wav,p05,lliape,hit,liai-pe,llia-pe,lli-a-pe, ,-0.412760417,-0.096354167,1,0,0,0.7395,text_option_1,,0,184,184,88,1
5ac2a8065cd10500016219df,63f3cfca20052e4ae7554ebf,6453ca5b220da426d7e073eb,2023-05-04_17h10.25.493,ga_syllabified_check,2022.2.5,Win32,29.89089822,,,,,,,,,,,,,,./stim/p04_syllable_1_falutraigo_hit.wav,p04,falutraigo,hit,fa-lu-trai-go,fa-lu-trai-go,fa-lu-tra-i-go, ,-0.325520833,-0.1015625,1,0,0,0.7782,text_option_1,,0,185,185,38,1
5ac2a8065cd10500016219df,63f3cfca20052e4ae7554ebf,6453ca5b220da426d7e073eb,2023-05-04_17h10.25.493,ga_syllabified_check,2022.2.5,Win32,29.89089822,,,,,,,,,,,,,,./stim/p08_syllable_1_lakapuaisto_hit.wav,p08,lakapuaisto,hit,la-ka-pu-as-to,la-ka-puais-to,la-ka-pu-ais-to,la-ka-pua-is-to,0.03515625,-0.100260417,1,0,0,2.7906,text_option_3,,0,186,186,187,1
5ac2a8065cd10500016219df,63f3cfca20052e4ae7554ebf,6453ca5b220da426d7e073eb,2023-05-04_17h10.25.493,ga_syllabified_check,2022.2.5,Win32,29.89089822,,,,,,,,,,,,,,./stim/p04_syllable_1_lakapiaisto_hit.wav,p04,lakapiaisto,hit,la-ka-piais-to,la-ka-piais-to,la-ka-pi-ais-to,la-ka-pia-is-to,-0.358072917,-0.106770833,1,0,0,1.6178,text_option_1,,0,187,187,50,1
5ac2a8065cd10500016219df,63f3cfca20052e4ae7554ebf,6453ca5b220da426d7e073eb,2023-05-04_17h10.25.493,ga_syllabified_check,2022.2.5,Win32,29.89089822,,,,,,,,,,,,,,./stim/p05_syllable_1_lakagiaisto_hit.wav,p05,lakagiaisto,hit,la-ka-ki-ais-to,la-ka-giais-to,la-ka-gi-ais-to,la-ka-gia-is-to,-0.3515625,-0.09375,1,0,0,1.0406,text_option_1,,0,188,188,80,1
5ac2a8065cd10500016219df,63f3cfca20052e4ae7554ebf,6453ca5b220da426d7e073eb,2023-05-04_17h10.25.493,ga_syllabified_check,2022.2.5,Win32,29.89089822,,,,,,,,,,,,,,./stim/p03_syllable_1_ruyiola_hit.wav,p03,ruyiola,hit,ru-yio-la,ru-yio-la,ru-yi-o-la, ,-0.388020833,-0.091145833,1,0,0,1.6471,text_option_1,,0,189,189,32,1
5ac2a8065cd10500016219df,63f3cfca20052e4ae7554ebf,6453ca5b220da426d7e073eb,2023-05-04_17h10.25.493,ga_syllabified_check,2022.2.5,Win32,29.89089822,,,,,,,,,,,,,,./stim/p03_syllable_1_faluduako_hit.wav,p03,faluduako,hit,fa-lu-dua-ko,fa-lu-dua-ko,fa-lu-du-a-ko, ,-0.359375,-0.108072917,1,0,0,1.1747,text_option_1,,0,190,190,2,1
5ac2a8065cd10500016219df,63f3cfca20052e4ae7554ebf,6453ca5b220da426d7e073eb,2023-05-04_17h10.25.493,ga_syllabified_check,2022.2.5,Win32,29.89089822,,,,,,,,,,,,,,./stim/p05_syllable_1_lakaguaisto_hit.wav,p05,lakaguaisto,hit,la-ka-gais,la-ka-guais-to,la-ka-gu-ais-to,la-ka-gua-is-to,-0.35546875,-0.098958333,1,0,0,1.8448,text_option_1,,0,191,191,81,1
5ac2a8065cd10500016219df,63f3cfca20052e4ae7554ebf,6453ca5b220da426d7e073eb,2023-05-04_17h10.25.493,ga_syllabified_check,2022.2.5,Win32,29.89089822,,,,,,,,,,,,,,./stim/p04_syllable_1_lakapuaisto_hit.wav,p04,lakapuaisto,hit,la-ka-puais-to,la-ka-puais-to,la-ka-pu-ais-to,la-ka-pua-is-to,-0.361979167,-0.096354167,1,0,0,1.1147,text_option_1,,0,192,192,51,1
5ac2a8065cd10500016219df,63f3cfca20052e4ae7554ebf,6453ca5b220da426d7e073eb,2023-05-04_17h10.25.493,ga_syllabified_check,2022.2.5,Win32,29.89089822,,,,,,,,,,,,,,./stim/p07_syllable_1_palufauro_hit.wav,p07,palufauro,hit,pa-lu-fau-ro,pa-lu-fau-ro,pa-lu-fa-u-ro, ,-0.3671875,-0.098958333,1,0,0,2.1094,text_option_1,,0,193,193,161,1
5ac2a8065cd10500016219df,63f3cfca20052e4ae7554ebf,6453ca5b220da426d7e073eb,2023-05-04_17h10.25.493,ga_syllabified_check,2022.2.5,Win32,29.89089822,,,,,,,,,,,,,,./stim/p05_syllable_1_nhiape_hit.wav,p05,ñiape,hit,nhia-pe,ñia-pe,ñi-a-pe, ,-0.391927083,-0.092447917,1,0,0,0.6746,text_option_1,,0,194,194,91,1
5ac2a8065cd10500016219df,63f3cfca20052e4ae7554ebf,6453ca5b220da426d7e073eb,2023-05-04_17h10.25.493,ga_syllabified_check,2022.2.5,Win32,29.89089822,,,,,,,,,,,,,,./stim/p04_syllable_1_palufauro_hit.wav,p04,palufauro,hit,pa-lu-fau-ro,pa-lu-fau-ro,pa-lu-fa-u-ro, ,-0.37109375,-0.098958333,1,0,0,1.3743,text_option_1,,0,195,195,59,1
5ac2a8065cd10500016219df,63f3cfca20052e4ae7554ebf,6453ca5b220da426d7e073eb,2023-05-04_17h10.25.493,ga_syllabified_check,2022.2.5,Win32,29.89089822,,,,,,,,,,,,,,./stim/p07_syllable_1_lakaguaisto_hit.wav,p07,lakaguaisto,hit,la-ka-guais-to,la-ka-guais-to,la-ka-gu-ais-to,la-ka-gua-is-to,-0.377604167,-0.106770833,1,0,0,3.8642,text_option_1,,0,196,196,149,1
5ac2a8065cd10500016219df,63f3cfca20052e4ae7554ebf,6453ca5b220da426d7e073eb,2023-05-04_17h10.25.493,ga_syllabified_check,2022.2.5,Win32,29.89089822,,,,,,,,,,,,,,./stim/p03_syllable_1_lakapiaisto_hit.wav,p03,lakapiaisto,hit,la-ka-piais-to,la-ka-piais-to,la-ka-pi-ais-to,la-ka-pia-is-to,-0.33203125,-0.092447917,1,0,0,1.287,text_option_1,,0,197,197,16,1
5ac2a8065cd10500016219df,63f3cfca20052e4ae7554ebf,6453ca5b220da426d7e073eb,2023-05-04_17h10.25.493,ga_syllabified_check,2022.2.5,Win32,29.89089822,,,,,,,,,,,,,,./stim/p07_syllable_1_lakafuaisto_hit.wav,p07,lakafuaisto,hit,la-ka-fuais-to,la-ka-fuais-to,la-ka-fu-ais-to,la-ka-fua-is-to,-0.356770833,-0.092447917,1,0,0,1.9238,text_option_1,,0,198,198,147,1
5ac2a8065cd10500016219df,63f3cfca20052e4ae7554ebf,6453ca5b220da426d7e073eb,2023-05-04_17h10.25.493,ga_syllabified_check,2022.2.5,Win32,29.89089822,,,,,,,,,,,,,,./stim/p08_syllable_1_lakaguaisto_hit.wav,p08,lakaguaisto,hit,la-ka-gu-ais-to,la-ka-guais-to,la-ka-gu-ais-to,la-ka-gua-is-to,0.39453125,-0.102864583,1,0,0,3.4452,text_option_2,,0,199,199,183,1
5ac2a8065cd10500016219df,63f3cfca20052e4ae7554ebf,6453ca5b220da426d7e073eb,2023-05-04_17h10.25.493,ga_syllabified_check,2022.2.5,Win32,29.89089822,,,,,,,,,,,,,,./stim/p03_syllable_1_palufauro_hit.wav,p03,palufauro,hit,pa-lu-fau-ro,pa-lu-fau-ro,pa-lu-fa-u-ro, ,0.37890625,-0.114583333,1,0,0,1.4366,text_option_2,,0,200,200,25,1
5ac2a8065cd10500016219df,63f3cfca20052e4ae7554ebf,6453ca5b220da426d7e073eb,2023-05-04_17h10.25.493,ga_syllabified_check,2022.2.5,Win32,29.89089822,,,,,,,,,,,,,,./stim/p08_syllable_1_lakabiaisto_hit.wav,p08,lakabiaisto,hit,la-ka-bi-as-to,la-ka-biais-to,la-ka-bi-ais-to,la-ka-bia-is-to,0.018229167,-0.098958333,1,0,0,9.3249,text_option_3,,0,201,201,176,1
5ac2a8065cd10500016219df,63f3cfca20052e4ae7554ebf,6453ca5b220da426d7e073eb,2023-05-04_17h10.25.493,ga_syllabified_check,2022.2.5,Win32,29.89089822,,,,,,,,,,,,,,./stim/p08_syllable_1_lakatiaisto_hit.wav,p08,lakatiaisto,hit,la-ka-ti-as-to,la-ka-tiais-to,la-ka-ti-ais-to,la-ka-tia-is-to,0.4140625,-0.102864583,1,0,0,4.5369,text_option_2,,0,202,202,188,1
5ac2a8065cd10500016219df,63f3cfca20052e4ae7554ebf,6453ca5b220da426d7e073eb,2023-05-04_17h10.25.493,ga_syllabified_check,2022.2.5,Win32,29.89089822,,,,,,,,,,,,,,./stim/p07_syllable_1_lakafiaisto_hit.wav,p07,lakafiaisto,hit,la-ka-fiais-to,la-ka-fiais-to,la-ka-fi-ais-to,la-ka-fia-is-to,-0.384114583,-0.098958333,1,0,0,2.6016,text_option_1,,0,203,203,146,1
5ac2a8065cd10500016219df,63f3cfca20052e4ae7554ebf,6453ca5b220da426d7e073eb,2023-05-04_17h10.25.493,ga_syllabified_check,2022.2.5,Win32,29.89089822,,,,,,,,,,,,,,,,,,,,,,,,,,,,,,,,,,
