participant,study,session,date,expName,psychopyVersion,OS,frameRate,mouse_practice.x,mouse_practice.y,mouse_practice.leftButton,mouse_practice.midButton,mouse_practice.rightButton,mouse_practice.time,mouse_practice.clicked_name,textbox_followup_practice.text,trials_practice.thisRepN,trials_practice.thisTrialN,trials_practice.thisN,trials_practice.thisIndex,trials_practice.ran,file_path,id,item,status,response,op1,op2,op3,mouse.x,mouse.y,mouse.leftButton,mouse.midButton,mouse.rightButton,mouse.time,mouse.clicked_name,textbox_followup.text,trials.thisRepN,trials.thisTrialN,trials.thisN,trials.thisIndex,trials.ran
5ada203ce34a050001b85276,63f3cfca20052e4ae7554ebf,6453cbd778f964ec0dbb3a30,2023-05-04_17h14.54.895,ga_syllabified_check,2022.2.5,Win32,60.0276127,,,,,,,,,,,,,,,,,,,,,,,,,,,,,,,,,,
5ada203ce34a050001b85276,63f3cfca20052e4ae7554ebf,6453cbd778f964ec0dbb3a30,2023-05-04_17h14.54.895,ga_syllabified_check,2022.2.5,Win32,60.0276127,-0.366666667,-0.114814843,1,0,0,4.5297,text_option_1_practice,,0,0,0,0,1,./stim/p03_syllable_1_liamo_hit.wav,p03,liamo,hit,lia-mo,lia-mo,li-a-mo, ,,,,,,,,,,,,,
5ada203ce34a050001b85276,63f3cfca20052e4ae7554ebf,6453cbd778f964ec0dbb3a30,2023-05-04_17h14.54.895,ga_syllabified_check,2022.2.5,Win32,60.0276127,0.373148176,-0.117592621,1,0,0,2.7819,text_option_2_practice,,0,1,1,1,1,./stim/p05_syllable_1_matio_hit.wav,p05,matio,hit,ma-tio,ma-tio,ma-ti-o, ,,,,,,,,,,,,,
5ada203ce34a050001b85276,63f3cfca20052e4ae7554ebf,6453cbd778f964ec0dbb3a30,2023-05-04_17h14.54.895,ga_syllabified_check,2022.2.5,Win32,60.0276127,-0.371296268,-0.114814843,1,0,0,3.2304,text_option_1_practice,,0,2,2,2,1,./stim/p08_syllable_1_liamo_hit.wav,p08,liamo,hit,ja-mo,lia-mo,li-a-mo, ,,,,,,,,,,,,,
5ada203ce34a050001b85276,63f3cfca20052e4ae7554ebf,6453cbd778f964ec0dbb3a30,2023-05-04_17h14.54.895,ga_syllabified_check,2022.2.5,Win32,60.0276127,,,,,,,,,,,,,,,,,,,,,,,,,,,,,,,,,,
5ada203ce34a050001b85276,63f3cfca20052e4ae7554ebf,6453cbd778f964ec0dbb3a30,2023-05-04_17h14.54.895,ga_syllabified_check,2022.2.5,Win32,60.0276127,,,,,,,,,,,,,,./stim/p05_syllable_1_palumaisto_hit.wav,p05,palumaisto,hit,pa-lu-mais-to,pa-lu-mais-to,pa-lu-ma-is-to, ,-0.431481467,-0.1,1,0,0,3.3143,text_option_1,,0,0,0,96,1
5ada203ce34a050001b85276,63f3cfca20052e4ae7554ebf,6453cbd778f964ec0dbb3a30,2023-05-04_17h14.54.895,ga_syllabified_check,2022.2.5,Win32,60.0276127,,,,,,,,,,,,,,./stim/p07_syllable_1_paluguato_hit.wav,p07,paluguato,hit,pa-lu-gua-to,pa-lu-gua-to,pa-lu-gu-a-to, ,-0.323148134,-0.114814843,1,0,0,2.5815,text_option_1,,0,1,1,163,1
5ada203ce34a050001b85276,63f3cfca20052e4ae7554ebf,6453cbd778f964ec0dbb3a30,2023-05-04_17h14.54.895,ga_syllabified_check,2022.2.5,Win32,60.0276127,,,,,,,,,,,,,,./stim/p08_syllable_1_lakatuaisto_hit.wav,p08,lakatuaisto,hit,la-ka-tu-i-jis,la-ka-tuais-to,la-ka-tu-ais-to,la-ka-tua-is-to,0.344444444,-0.118518533,1,0,0,7.8272,text_option_2,,0,2,2,189,1
5ada203ce34a050001b85276,63f3cfca20052e4ae7554ebf,6453cbd778f964ec0dbb3a30,2023-05-04_17h14.54.895,ga_syllabified_check,2022.2.5,Win32,60.0276127,,,,,,,,,,,,,,./stim/p03_syllable_1_palumaisto_hit.wav,p03,palumaisto,hit,pa-lu-mais-to,pa-lu-mais-to,pa-lu-ma-is-to, ,-0.322222222,-0.10648151,1,0,0,3.0145,text_option_1,,0,3,3,28,1
5ada203ce34a050001b85276,63f3cfca20052e4ae7554ebf,6453cbd778f964ec0dbb3a30,2023-05-04_17h14.54.895,ga_syllabified_check,2022.2.5,Win32,60.0276127,,,,,,,,,,,,,,./stim/p04_syllable_1_palufauro_hit.wav,p04,palufauro,hit,pa-lu-fau-ro,pa-lu-fau-ro,pa-lu-fa-u-ro, ,-0.402777778,-0.117592621,1,0,0,2.8707,text_option_1,,0,4,4,59,1
5ada203ce34a050001b85276,63f3cfca20052e4ae7554ebf,6453cbd778f964ec0dbb3a30,2023-05-04_17h14.54.895,ga_syllabified_check,2022.2.5,Win32,60.0276127,,,,,,,,,,,,,,./stim/p06_syllable_1_lakatuaisto_hit.wav,p06,lakatuaisto,hit,la-ka-tu-a-is,la-ka-tuais-to,la-ka-tu-ais-to,la-ka-tua-is-to,0.058333333,-0.292592621,1,0,0,5.629,text_option_other,la- ka- tu- a- is- co,0,5,5,121,1
5ada203ce34a050001b85276,63f3cfca20052e4ae7554ebf,6453cbd778f964ec0dbb3a30,2023-05-04_17h14.54.895,ga_syllabified_check,2022.2.5,Win32,60.0276127,,,,,,,,,,,,,,./stim/p03_syllable_1_chiaba_hit.wav,p03,chiaba,hit,chia-ba,chia-ba,chi-a-ba, ,-0.392592578,-0.079629644,1,0,0,1.3419,text_option_1,,0,6,6,0,1
5ada203ce34a050001b85276,63f3cfca20052e4ae7554ebf,6453cbd778f964ec0dbb3a30,2023-05-04_17h14.54.895,ga_syllabified_check,2022.2.5,Win32,60.0276127,,,,,,,,,,,,,,./stim/p04_syllable_1_rausto_hit.wav,p04,rausto,hit,raus-to,raus-to,ra-us-to, ,-0.360185157,-0.085185199,1,0,0,0.7331,text_option_1,,0,7,7,65,1
5ada203ce34a050001b85276,63f3cfca20052e4ae7554ebf,6453cbd778f964ec0dbb3a30,2023-05-04_17h14.54.895,ga_syllabified_check,2022.2.5,Win32,60.0276127,,,,,,,,,,,,,,./stim/p03_syllable_1_pachialo_hit.wav,p03,pachialo,hit,pa-chia-lo,pa-chia-lo,pa-chi-a-lo, ,-0.351851824,-0.091666667,1,0,0,1.4015,text_option_1,,0,8,8,24,1
5ada203ce34a050001b85276,63f3cfca20052e4ae7554ebf,6453cbd778f964ec0dbb3a30,2023-05-04_17h14.54.895,ga_syllabified_check,2022.2.5,Win32,60.0276127,,,,,,,,,,,,,,./stim/p08_syllable_1_palumaisto_hit.wav,p08,palumaisto,hit,pa-lu-mais-to,pa-lu-mais-to,pa-lu-ma-is-to, ,-0.315740712,-0.086111111,1,0,0,2.4513,text_option_1,,0,9,9,198,1
5ada203ce34a050001b85276,63f3cfca20052e4ae7554ebf,6453cbd778f964ec0dbb3a30,2023-05-04_17h14.54.895,ga_syllabified_check,2022.2.5,Win32,60.0276127,,,,,,,,,,,,,,./stim/p07_syllable_1_lakabiaisto_hit.wav,p07,lakabiaisto,hit,la-ka-bais-to,la-ka-biais-to,la-ka-bi-ais-to,la-ka-bia-is-to,-0.357407379,-0.113888889,1,0,0,8.4932,text_option_1,,0,10,10,142,1
5ada203ce34a050001b85276,63f3cfca20052e4ae7554ebf,6453cbd778f964ec0dbb3a30,2023-05-04_17h14.54.895,ga_syllabified_check,2022.2.5,Win32,60.0276127,,,,,,,,,,,,,,./stim/p08_syllable_1_lakagiaisto_hit.wav,p08,lakagiaisto,hit,la-ka-gi-jas-to,la-ka-giais-to,la-ka-gi-ais-to,la-ka-gia-is-to,0.388888889,-0.095370399,1,0,0,3.8306,text_option_2,,0,11,11,182,1
5ada203ce34a050001b85276,63f3cfca20052e4ae7554ebf,6453cbd778f964ec0dbb3a30,2023-05-04_17h14.54.895,ga_syllabified_check,2022.2.5,Win32,60.0276127,,,,,,,,,,,,,,./stim/p05_syllable_1_lakakiaisto_hit.wav,p05,lakakiaisto,hit,la-ka-ki-ais-to,la-ka-kiais-to,la-ka-ki-ais-to,la-ka-kia-is-to,-0.34351849,-0.105555556,1,0,0,2.2909,text_option_1,,0,12,12,82,1
5ada203ce34a050001b85276,63f3cfca20052e4ae7554ebf,6453cbd778f964ec0dbb3a30,2023-05-04_17h14.54.895,ga_syllabified_check,2022.2.5,Win32,60.0276127,,,,,,,,,,,,,,./stim/p03_syllable_1_lakakiaisto_hit.wav,p03,lakakiaisto,hit,la-ka-kiais-to,la-ka-kiais-to,la-ka-ki-ais-to,la-ka-kia-is-to,-0.34351849,-0.107407422,1,0,0,2.8549,text_option_1,,0,13,13,14,1
5ada203ce34a050001b85276,63f3cfca20052e4ae7554ebf,6453cbd778f964ec0dbb3a30,2023-05-04_17h14.54.895,ga_syllabified_check,2022.2.5,Win32,60.0276127,,,,,,,,,,,,,,./stim/p06_syllable_1_palutrauco_hit.wav,p06,palutrauco,hit,pa-lu-tra-u-co,pa-lu-trau-co,pa-lu-tra-u-co, ,0.449074131,-0.115740755,1,0,0,2.8481,text_option_2,,0,14,14,131,1
5ada203ce34a050001b85276,63f3cfca20052e4ae7554ebf,6453cbd778f964ec0dbb3a30,2023-05-04_17h14.54.895,ga_syllabified_check,2022.2.5,Win32,60.0276127,,,,,,,,,,,,,,./stim/p03_syllable_1_lakagiaisto_hit.wav,p03,lakagiaisto,hit,la-ka-giais-to,la-ka-giais-to,la-ka-gi-ais-to,la-ka-gia-is-to,-0.309259245,-0.114814843,1,0,0,3.1648,text_option_1,,0,15,15,12,1
5ada203ce34a050001b85276,63f3cfca20052e4ae7554ebf,6453cbd778f964ec0dbb3a30,2023-05-04_17h14.54.895,ga_syllabified_check,2022.2.5,Win32,60.0276127,,,,,,,,,,,,,,./stim/p04_syllable_1_paluguato_hit.wav,p04,paluguato,hit,pa-lu-gua,pa-lu-gua-to,pa-lu-gu-a-to, ,0.025925954,-0.292592621,1,0,0,4.4798,text_option_other,pa- lu-  gua-,0,16,16,61,1
5ada203ce34a050001b85276,63f3cfca20052e4ae7554ebf,6453cbd778f964ec0dbb3a30,2023-05-04_17h14.54.895,ga_syllabified_check,2022.2.5,Win32,60.0276127,,,,,,,,,,,,,,./stim/p08_syllable_1_pachialo_hit.wav,p08,pachialo,hit,pa-chi-ja-lo,pa-chia-lo,pa-chi-a-lo, ,0.425,-0.103703732,1,0,0,2.1318,text_option_2,,0,17,17,194,1
5ada203ce34a050001b85276,63f3cfca20052e4ae7554ebf,6453cbd778f964ec0dbb3a30,2023-05-04_17h14.54.895,ga_syllabified_check,2022.2.5,Win32,60.0276127,,,,,,,,,,,,,,./stim/p08_syllable_1_paluguato_hit.wav,p08,paluguato,hit,pa-lu-gua-to,pa-lu-gua-to,pa-lu-gu-a-to, ,-0.340740712,-0.100925954,1,0,0,2.2317,text_option_1,,0,18,18,197,1
5ada203ce34a050001b85276,63f3cfca20052e4ae7554ebf,6453cbd778f964ec0dbb3a30,2023-05-04_17h14.54.895,ga_syllabified_check,2022.2.5,Win32,60.0276127,,,,,,,,,,,,,,./stim/p08_syllable_1_chiaba_hit.wav,p08,chiaba,hit,chi-a-ba,chia-ba,chi-a-ba, ,0.350925954,-0.099074088,1,0,0,1.5659,text_option_2,,0,19,19,170,1
5ada203ce34a050001b85276,63f3cfca20052e4ae7554ebf,6453cbd778f964ec0dbb3a30,2023-05-04_17h14.54.895,ga_syllabified_check,2022.2.5,Win32,60.0276127,,,,,,,,,,,,,,./stim/p06_syllable_1_paluguato_hit.wav,p06,paluguato,hit,pa-lu-gua-to,pa-lu-gua-to,pa-lu-gu-a-to, ,-0.321296268,-0.103703732,1,0,0,2.4561,text_option_1,,0,20,20,129,1
5ada203ce34a050001b85276,63f3cfca20052e4ae7554ebf,6453cbd778f964ec0dbb3a30,2023-05-04_17h14.54.895,ga_syllabified_check,2022.2.5,Win32,60.0276127,,,,,,,,,,,,,,./stim/p06_syllable_1_lakapiaisto_hit.wav,p06,lakapiaisto,hit,la-ka-pia-is-to,la-ka-piais-to,la-ka-pi-ais-to,la-ka-pia-is-to,0.065740797,-0.101851866,1,0,0,4.9795,text_option_3,,0,21,21,118,1
5ada203ce34a050001b85276,63f3cfca20052e4ae7554ebf,6453cbd778f964ec0dbb3a30,2023-05-04_17h14.54.895,ga_syllabified_check,2022.2.5,Win32,60.0276127,,,,,,,,,,,,,,./stim/p03_syllable_1_lakabiaisto_hit.wav,p03,lakabiaisto,hit,la-ka-biais-to,la-ka-biais-to,la-ka-bi-ais-to,la-ka-bia-is-to,-0.35370369,-0.101851866,1,0,0,2.065,text_option_1,,0,22,22,6,1
5ada203ce34a050001b85276,63f3cfca20052e4ae7554ebf,6453cbd778f964ec0dbb3a30,2023-05-04_17h14.54.895,ga_syllabified_check,2022.2.5,Win32,60.0276127,,,,,,,,,,,,,,./stim/p07_syllable_1_lakaduaisto_hit.wav,p07,lakaduaisto,hit,la-ka-duais-to,la-ka-duais-to,la-ka-du-ais-to,la-ka-dua-is-to,-0.365740712,-0.1,1,0,0,2.1497,text_option_1,,0,23,23,145,1
5ada203ce34a050001b85276,63f3cfca20052e4ae7554ebf,6453cbd778f964ec0dbb3a30,2023-05-04_17h14.54.895,ga_syllabified_check,2022.2.5,Win32,60.0276127,,,,,,,,,,,,,,./stim/p07_syllable_1_faluduako_hit.wav,p07,faluduako,hit,fa-lu-dua-ko,fa-lu-dua-ko,fa-lu-du-a-ko, ,-0.342592578,-0.097222222,1,0,0,2.298,text_option_1,,0,24,24,138,1
5ada203ce34a050001b85276,63f3cfca20052e4ae7554ebf,6453cbd778f964ec0dbb3a30,2023-05-04_17h14.54.895,ga_syllabified_check,2022.2.5,Win32,60.0276127,,,,,,,,,,,,,,./stim/p07_syllable_1_falutraigo_hit.wav,p07,falutraigo,hit,fa-lu-trai-go,fa-lu-trai-go,fa-lu-tra-i-go, ,-0.307407379,-0.105555556,1,0,0,2.7813,text_option_1,,0,25,25,140,1
5ada203ce34a050001b85276,63f3cfca20052e4ae7554ebf,6453cbd778f964ec0dbb3a30,2023-05-04_17h14.54.895,ga_syllabified_check,2022.2.5,Win32,60.0276127,,,,,,,,,,,,,,./stim/p07_syllable_1_palutrauco_hit.wav,p07,palutrauco,hit,pa-lu-trau-co,pa-lu-trau-co,pa-lu-tra-u-co, ,-0.322222222,-0.105555556,1,0,0,1.4823,text_option_1,,0,26,26,165,1
5ada203ce34a050001b85276,63f3cfca20052e4ae7554ebf,6453cbd778f964ec0dbb3a30,2023-05-04_17h14.54.895,ga_syllabified_check,2022.2.5,Win32,60.0276127,,,,,,,,,,,,,,./stim/p08_syllable_1_lakaguaisto_hit.wav,p08,lakaguaisto,hit,la-ka-gu-ais-to,la-ka-guais-to,la-ka-gu-ais-to,la-ka-gua-is-to,0.052777778,-0.110185199,1,0,0,3.8473,text_option_3,,0,27,27,183,1
5ada203ce34a050001b85276,63f3cfca20052e4ae7554ebf,6453cbd778f964ec0dbb3a30,2023-05-04_17h14.54.895,ga_syllabified_check,2022.2.5,Win32,60.0276127,,,,,,,,,,,,,,./stim/p07_syllable_1_palumaisto_hit.wav,p07,palumaisto,hit,pa-lu-mais-to,pa-lu-mais-to,pa-lu-ma-is-to, ,-0.345370356,-0.107407422,1,0,0,3.0832,text_option_1,,0,28,28,164,1
5ada203ce34a050001b85276,63f3cfca20052e4ae7554ebf,6453cbd778f964ec0dbb3a30,2023-05-04_17h14.54.895,ga_syllabified_check,2022.2.5,Win32,60.0276127,,,,,,,,,,,,,,./stim/p08_syllable_1_mebochiana_hit.wav,p08,mebochiana,hit,me-bo-chi-a-na,me-bo-chia-na,me-bo-chi-a-na, ,0.318518575,-0.105555556,1,0,0,3.5645,text_option_2,,0,29,29,192,1
5ada203ce34a050001b85276,63f3cfca20052e4ae7554ebf,6453cbd778f964ec0dbb3a30,2023-05-04_17h14.54.895,ga_syllabified_check,2022.2.5,Win32,60.0276127,,,,,,,,,,,,,,./stim/p03_syllable_1_lakakuaisto_hit.wav,p03,lakakuaisto,hit,la-ka-kuais-to,la-ka-kuais-to,la-ka-ku-ais-to,la-ka-kua-is-to,-0.37870369,-0.102777778,1,0,0,1.9907,text_option_1,,0,30,30,15,1
5ada203ce34a050001b85276,63f3cfca20052e4ae7554ebf,6453cbd778f964ec0dbb3a30,2023-05-04_17h14.54.895,ga_syllabified_check,2022.2.5,Win32,60.0276127,,,,,,,,,,,,,,./stim/p06_syllable_1_lakafiaisto_hit.wav,p06,lakafiaisto,hit,la-ka-fia-is-to,la-ka-fiais-to,la-ka-fi-ais-to,la-ka-fia-is-to,0.385185242,-0.112037065,1,0,0,4.1965,text_option_2,,0,31,31,112,1
5ada203ce34a050001b85276,63f3cfca20052e4ae7554ebf,6453cbd778f964ec0dbb3a30,2023-05-04_17h14.54.895,ga_syllabified_check,2022.2.5,Win32,60.0276127,,,,,,,,,,,,,,./stim/p04_syllable_1_lakabiaisto_hit.wav,p04,lakabiaisto,hit,la-ka-biais-to,la-ka-biais-to,la-ka-bi-ais-to,la-ka-bia-is-to,-0.324074046,-0.095370399,1,0,0,4.214,text_option_1,,0,32,32,40,1
5ada203ce34a050001b85276,63f3cfca20052e4ae7554ebf,6453cbd778f964ec0dbb3a30,2023-05-04_17h14.54.895,ga_syllabified_check,2022.2.5,Win32,60.0276127,,,,,,,,,,,,,,./stim/p08_syllable_1_lakabuaisto_hit.wav,p08,lakabuaisto,hit,la-ka-bu-ais-to,la-ka-buais-to,la-ka-bu-ais-to,la-ka-bua-is-to,-0.331481467,-0.095370399,1,0,0,3.0981,text_option_1,,0,33,33,177,1
5ada203ce34a050001b85276,63f3cfca20052e4ae7554ebf,6453cbd778f964ec0dbb3a30,2023-05-04_17h14.54.895,ga_syllabified_check,2022.2.5,Win32,60.0276127,,,,,,,,,,,,,,./stim/p05_syllable_1_chiaba_hit.wav,p05,chiaba,hit,chia-ba,chia-ba,chi-a-ba, ,-0.367592578,-0.099074088,1,0,0,2.4834,text_option_1,,0,34,34,68,1
5ada203ce34a050001b85276,63f3cfca20052e4ae7554ebf,6453cbd778f964ec0dbb3a30,2023-05-04_17h14.54.895,ga_syllabified_check,2022.2.5,Win32,60.0276127,,,,,,,,,,,,,,./stim/p08_syllable_1_rausto_hit.wav,p08,rausto,hit,raus-to,raus-to,ra-us-to, ,-0.365740712,-0.103703732,1,0,0,1.2491,text_option_1,,0,35,35,201,1
5ada203ce34a050001b85276,63f3cfca20052e4ae7554ebf,6453cbd778f964ec0dbb3a30,2023-05-04_17h14.54.895,ga_syllabified_check,2022.2.5,Win32,60.0276127,,,,,,,,,,,,,,./stim/p03_syllable_1_paluguato_hit.wav,p03,paluguato,hit,pa-lu-gua,pa-lu-gua-to,pa-lu-gu-a-to, ,-0.312962935,-0.105555556,1,0,0,2.5536,text_option_1,,0,36,36,27,1
5ada203ce34a050001b85276,63f3cfca20052e4ae7554ebf,6453cbd778f964ec0dbb3a30,2023-05-04_17h14.54.895,ga_syllabified_check,2022.2.5,Win32,60.0276127,,,,,,,,,,,,,,./stim/p03_syllable_1_lakafuaisto_hit.wav,p03,lakafuaisto,hit,la-ka-fuais-to,la-ka-fuais-to,la-ka-fu-ais-to,la-ka-fua-is-to,-0.325925912,-0.110185199,1,0,0,3.5869,text_option_1,,0,37,37,11,1
5ada203ce34a050001b85276,63f3cfca20052e4ae7554ebf,6453cbd778f964ec0dbb3a30,2023-05-04_17h14.54.895,ga_syllabified_check,2022.2.5,Win32,60.0276127,,,,,,,,,,,,,,./stim/p04_syllable_1_payielo_hit.wav,p04,payielo,hit,pa-yie-lo,pa-yie-lo,pa-yi-e-lo, ,-0.352777778,-0.111111111,1,0,0,1.7996,text_option_1,,0,38,38,64,1
5ada203ce34a050001b85276,63f3cfca20052e4ae7554ebf,6453cbd778f964ec0dbb3a30,2023-05-04_17h14.54.895,ga_syllabified_check,2022.2.5,Win32,60.0276127,,,,,,,,,,,,,,./stim/p05_syllable_1_lakakuaisto_hit.wav,p05,lakakuaisto,hit,la-ka-kais-to,la-ka-kuais-to,la-ka-ku-ais-to,la-ka-kua-is-to,-0.316666667,-0.112037065,1,0,0,5.2668,text_option_1,,0,39,39,83,1
5ada203ce34a050001b85276,63f3cfca20052e4ae7554ebf,6453cbd778f964ec0dbb3a30,2023-05-04_17h14.54.895,ga_syllabified_check,2022.2.5,Win32,60.0276127,,,,,,,,,,,,,,./stim/p06_syllable_1_tuliafo_hit.wav,p06,tuliafo,hit,tu-li-a-fo,tu-lia-fo,tu-li-a-fo, ,0.385185242,-0.109259288,1,0,0,2.3148,text_option_2,,0,40,40,135,1
5ada203ce34a050001b85276,63f3cfca20052e4ae7554ebf,6453cbd778f964ec0dbb3a30,2023-05-04_17h14.54.895,ga_syllabified_check,2022.2.5,Win32,60.0276127,,,,,,,,,,,,,,./stim/p04_syllable_1_lakagiaisto_hit.wav,p04,lakagiaisto,hit,la-ka-giais-to,la-ka-giais-to,la-ka-gi-ais-to,la-ka-gia-is-to,-0.4,-0.114814843,1,0,0,3.2142,text_option_1,,0,41,41,46,1
5ada203ce34a050001b85276,63f3cfca20052e4ae7554ebf,6453cbd778f964ec0dbb3a30,2023-05-04_17h14.54.895,ga_syllabified_check,2022.2.5,Win32,60.0276127,,,,,,,,,,,,,,./stim/p03_syllable_1_lakaguaisto_hit.wav,p03,lakaguaisto,hit,la-ka-guais-to,la-ka-guais-to,la-ka-gu-ais-to,la-ka-gua-is-to,-0.335185157,-0.099074088,1,0,0,1.5824,text_option_1,,0,42,42,13,1
5ada203ce34a050001b85276,63f3cfca20052e4ae7554ebf,6453cbd778f964ec0dbb3a30,2023-05-04_17h14.54.895,ga_syllabified_check,2022.2.5,Win32,60.0276127,,,,,,,,,,,,,,./stim/p03_syllable_1_flauro_hit.wav,p03,flauro,hit,flau-ro,flau-ro,fla-u-ro, ,-0.39351849,-0.092592621,1,0,0,1.6523,text_option_1,,0,43,43,5,1
5ada203ce34a050001b85276,63f3cfca20052e4ae7554ebf,6453cbd778f964ec0dbb3a30,2023-05-04_17h14.54.895,ga_syllabified_check,2022.2.5,Win32,60.0276127,,,,,,,,,,,,,,./stim/p07_syllable_1_flauro_hit.wav,p07,flauro,hit,flau-ro,flau-ro,fla-u-ro, ,-0.363888889,-0.114814843,1,0,0,1.9995,text_option_1,,0,44,44,141,1
5ada203ce34a050001b85276,63f3cfca20052e4ae7554ebf,6453cbd778f964ec0dbb3a30,2023-05-04_17h14.54.895,ga_syllabified_check,2022.2.5,Win32,60.0276127,,,,,,,,,,,,,,./stim/p05_syllable_1_lliape_hit.wav,p05,lliape,hit,liai-pe,llia-pe,lli-a-pe, ,-0.400925912,-0.099074088,1,0,0,3.2479,text_option_1,,0,45,45,88,1
5ada203ce34a050001b85276,63f3cfca20052e4ae7554ebf,6453cbd778f964ec0dbb3a30,2023-05-04_17h14.54.895,ga_syllabified_check,2022.2.5,Win32,60.0276127,,,,,,,,,,,,,,./stim/p03_syllable_1_rausto_hit.wav,p03,rausto,hit,raus-to,raus-to,ra-us-to, ,-0.379629601,-0.105555556,1,0,0,1.3081,text_option_1,,0,46,46,31,1
5ada203ce34a050001b85276,63f3cfca20052e4ae7554ebf,6453cbd778f964ec0dbb3a30,2023-05-04_17h14.54.895,ga_syllabified_check,2022.2.5,Win32,60.0276127,,,,,,,,,,,,,,./stim/p03_syllable_1_payielo_hit.wav,p03,payielo,hit,pa-yie-lo,pa-yie-lo,pa-yi-e-lo, ,-0.360185157,-0.103703732,1,0,0,1.6161,text_option_1,,0,47,47,30,1
5ada203ce34a050001b85276,63f3cfca20052e4ae7554ebf,6453cbd778f964ec0dbb3a30,2023-05-04_17h14.54.895,ga_syllabified_check,2022.2.5,Win32,60.0276127,,,,,,,,,,,,,,./stim/p04_syllable_1_lakakuaisto_hit.wav,p04,lakakuaisto,hit,la-ka-kuais-to,la-ka-kuais-to,la-ka-ku-ais-to,la-ka-kua-is-to,-0.330555556,-0.10648151,1,0,0,1.6422,text_option_1,,0,48,48,49,1
5ada203ce34a050001b85276,63f3cfca20052e4ae7554ebf,6453cbd778f964ec0dbb3a30,2023-05-04_17h14.54.895,ga_syllabified_check,2022.2.5,Win32,60.0276127,,,,,,,,,,,,,,./stim/p03_syllable_1_palufauto_hit.wav,p03,palufauto,hit,pa-lu-fau,pa-lu-fau-to,pa-lu-fa-u-to, ,-0.312037023,-0.107407422,1,0,0,2.1322,text_option_1,,0,49,49,26,1
5ada203ce34a050001b85276,63f3cfca20052e4ae7554ebf,6453cbd778f964ec0dbb3a30,2023-05-04_17h14.54.895,ga_syllabified_check,2022.2.5,Win32,60.0276127,,,,,,,,,,,,,,./stim/p04_syllable_1_lakaduaisto_hit.wav,p04,lakaduaisto,hit,la-ka-duais-to,la-ka-duais-to,la-ka-du-ais-to,la-ka-dua-is-to,-0.322222222,-0.092592621,1,0,0,1.1326,text_option_1,,0,50,50,43,1
5ada203ce34a050001b85276,63f3cfca20052e4ae7554ebf,6453cbd778f964ec0dbb3a30,2023-05-04_17h14.54.895,ga_syllabified_check,2022.2.5,Win32,60.0276127,,,,,,,,,,,,,,./stim/p04_syllable_1_lliape_hit.wav,p04,lliape,hit,lia-pe,llia-pe,lli-a-pe, ,-0.352777778,-0.100925954,1,0,0,1.3496,text_option_1,,0,51,51,54,1
5ada203ce34a050001b85276,63f3cfca20052e4ae7554ebf,6453cbd778f964ec0dbb3a30,2023-05-04_17h14.54.895,ga_syllabified_check,2022.2.5,Win32,60.0276127,,,,,,,,,,,,,,./stim/p04_syllable_1_lakaguaisto_hit.wav,p04,lakaguaisto,hit,la-ka-guais-to,la-ka-guais-to,la-ka-gu-ais-to,la-ka-gua-is-to,-0.360185157,-0.1,1,0,0,4.1971,text_option_1,,0,52,52,47,1
5ada203ce34a050001b85276,63f3cfca20052e4ae7554ebf,6453cbd778f964ec0dbb3a30,2023-05-04_17h14.54.895,ga_syllabified_check,2022.2.5,Win32,60.0276127,,,,,,,,,,,,,,./stim/p07_syllable_1_nhiape_hit.wav,p07,ñiape,hit,nhia-pe,ñia-pe,ñi-a-pe, ,-0.382407379,-0.10648151,1,0,0,1.3202,text_option_1,,0,53,53,159,1
5ada203ce34a050001b85276,63f3cfca20052e4ae7554ebf,6453cbd778f964ec0dbb3a30,2023-05-04_17h14.54.895,ga_syllabified_check,2022.2.5,Win32,60.0276127,,,,,,,,,,,,,,./stim/p03_syllable_1_falufaisto_hit.wav,p03,falufaisto,hit,fa-lu-fais-to,fa-lu-fais-to,fa-lu-fa-is-to, ,-0.316666667,-0.112962977,1,0,0,2.6903,text_option_1,,0,54,54,3,1
5ada203ce34a050001b85276,63f3cfca20052e4ae7554ebf,6453cbd778f964ec0dbb3a30,2023-05-04_17h14.54.895,ga_syllabified_check,2022.2.5,Win32,60.0276127,,,,,,,,,,,,,,./stim/p05_syllable_1_ruyiola_hit.wav,p05,ruyiola,hit,ru-yio-la,ru-yio-la,ru-yi-o-la, ,0.370370399,-0.112962977,1,0,0,3.7639,text_option_2,,0,55,55,100,1
5ada203ce34a050001b85276,63f3cfca20052e4ae7554ebf,6453cbd778f964ec0dbb3a30,2023-05-04_17h14.54.895,ga_syllabified_check,2022.2.5,Win32,60.0276127,,,,,,,,,,,,,,./stim/p05_syllable_1_palufauto_hit.wav,p05,palufauto,hit,pa-lu-fau-to,pa-lu-fau-to,pa-lu-fa-u-to, ,-0.329629601,-0.10648151,1,0,0,1.7364,text_option_1,,0,56,56,94,1
5ada203ce34a050001b85276,63f3cfca20052e4ae7554ebf,6453cbd778f964ec0dbb3a30,2023-05-04_17h14.54.895,ga_syllabified_check,2022.2.5,Win32,60.0276127,,,,,,,,,,,,,,./stim/p04_syllable_1_flauro_hit.wav,p04,flauro,hit,flau-ro,flau-ro,fla-u-ro, ,-0.370370356,-0.111111111,1,0,0,0.7006,text_option_1,,0,57,57,39,1
5ada203ce34a050001b85276,63f3cfca20052e4ae7554ebf,6453cbd778f964ec0dbb3a30,2023-05-04_17h14.54.895,ga_syllabified_check,2022.2.5,Win32,60.0276127,,,,,,,,,,,,,,./stim/p05_syllable_1_rausto_hit.wav,p05,rausto,hit,raus-to,raus-to,ra-us-to, ,-0.362962935,-0.100925954,1,0,0,0.6334,text_option_1,,0,58,58,99,1
5ada203ce34a050001b85276,63f3cfca20052e4ae7554ebf,6453cbd778f964ec0dbb3a30,2023-05-04_17h14.54.895,ga_syllabified_check,2022.2.5,Win32,60.0276127,,,,,,,,,,,,,,./stim/p04_syllable_1_lakafuaisto_hit.wav,p04,lakafuaisto,hit,la-ka-fuais-to,la-ka-fuais-to,la-ka-fu-ais-to,la-ka-fua-is-to,-0.309259245,-0.117592621,1,0,0,1.4159,text_option_1,,0,59,59,45,1
5ada203ce34a050001b85276,63f3cfca20052e4ae7554ebf,6453cbd778f964ec0dbb3a30,2023-05-04_17h14.54.895,ga_syllabified_check,2022.2.5,Win32,60.0276127,,,,,,,,,,,,,,./stim/p06_syllable_1_lakaguaisto_hit.wav,p06,lakaguaisto,hit,la-ka-gu-a-is,la-ka-guais-to,la-ka-gu-ais-to,la-ka-gua-is-to,0.476851908,-0.114814843,1,0,0,5.5817,text_option_2,,0,60,60,115,1
5ada203ce34a050001b85276,63f3cfca20052e4ae7554ebf,6453cbd778f964ec0dbb3a30,2023-05-04_17h14.54.895,ga_syllabified_check,2022.2.5,Win32,60.0276127,,,,,,,,,,,,,,./stim/p03_syllable_1_palutrauco_hit.wav,p03,palutrauco,hit,pa-lu-trau-co,pa-lu-trau-co,pa-lu-tra-u-co, ,-0.321296268,-0.118518533,1,0,0,1.533,text_option_1,,0,61,61,29,1
5ada203ce34a050001b85276,63f3cfca20052e4ae7554ebf,6453cbd778f964ec0dbb3a30,2023-05-04_17h14.54.895,ga_syllabified_check,2022.2.5,Win32,60.0276127,,,,,,,,,,,,,,./stim/p07_syllable_1_lakakuaisto_hit.wav,p07,lakakuaisto,hit,la-ka-kuais-to,la-ka-kuais-to,la-ka-ku-ais-to,la-ka-kua-is-to,-0.299074046,-0.100925954,1,0,0,3.0665,text_option_1,,0,62,62,151,1
5ada203ce34a050001b85276,63f3cfca20052e4ae7554ebf,6453cbd778f964ec0dbb3a30,2023-05-04_17h14.54.895,ga_syllabified_check,2022.2.5,Win32,60.0276127,,,,,,,,,,,,,,./stim/p04_syllable_1_falufaisto_hit.wav,p04,falufaisto,hit,fa-lu-fais-to,fa-lu-fais-to,fa-lu-fa-is-to, ,-0.311111111,-0.093518533,1,0,0,1.2554,text_option_1,,0,63,63,37,1
5ada203ce34a050001b85276,63f3cfca20052e4ae7554ebf,6453cbd778f964ec0dbb3a30,2023-05-04_17h14.54.895,ga_syllabified_check,2022.2.5,Win32,60.0276127,,,,,,,,,,,,,,./stim/p06_syllable_1_ruyiola_hit.wav,p06,ruyiola,hit,ru-yi-o-la,ru-yio-la,ru-yi-o-la, ,0.355555556,-0.1,1,0,0,1.8656,text_option_2,,0,64,64,134,1
5ada203ce34a050001b85276,63f3cfca20052e4ae7554ebf,6453cbd778f964ec0dbb3a30,2023-05-04_17h14.54.895,ga_syllabified_check,2022.2.5,Win32,60.0276127,,,,,,,,,,,,,,./stim/p07_syllable_1_lakaguaisto_hit.wav,p07,lakaguaisto,hit,la-ka-guais-to,la-ka-guais-to,la-ka-gu-ais-to,la-ka-gua-is-to,-0.308333333,-0.113888889,1,0,0,2.4899,text_option_1,,0,65,65,149,1
5ada203ce34a050001b85276,63f3cfca20052e4ae7554ebf,6453cbd778f964ec0dbb3a30,2023-05-04_17h14.54.895,ga_syllabified_check,2022.2.5,Win32,60.0276127,,,,,,,,,,,,,,./stim/p05_syllable_1_lakafiaisto_hit.wav,p05,lakafiaisto,hit,la-ka-fi-ais-to,la-ka-fiais-to,la-ka-fi-ais-to,la-ka-fia-is-to,0.353703732,-0.111111111,1,0,0,4.2057,text_option_2,,0,66,66,78,1
5ada203ce34a050001b85276,63f3cfca20052e4ae7554ebf,6453cbd778f964ec0dbb3a30,2023-05-04_17h14.54.895,ga_syllabified_check,2022.2.5,Win32,60.0276127,,,,,,,,,,,,,,./stim/p03_syllable_1_lakabuaisto_hit.wav,p03,lakabuaisto,hit,la-ka-buais-to,la-ka-buais-to,la-ka-bu-ais-to,la-ka-bua-is-to,-0.313888889,-0.112962977,1,0,0,1.8488,text_option_1,,0,67,67,7,1
5ada203ce34a050001b85276,63f3cfca20052e4ae7554ebf,6453cbd778f964ec0dbb3a30,2023-05-04_17h14.54.895,ga_syllabified_check,2022.2.5,Win32,60.0276127,,,,,,,,,,,,,,./stim/p04_syllable_1_palutrauco_hit.wav,p04,palutrauco,hit,pa-lu-trau-co,pa-lu-trau-co,pa-lu-tra-u-co, ,-0.341666667,-0.114814843,1,0,0,1.1827,text_option_1,,0,68,68,63,1
5ada203ce34a050001b85276,63f3cfca20052e4ae7554ebf,6453cbd778f964ec0dbb3a30,2023-05-04_17h14.54.895,ga_syllabified_check,2022.2.5,Win32,60.0276127,,,,,,,,,,,,,,./stim/p04_syllable_1_mebochiana_hit.wav,p04,mebochiana,hit,me-bo-chia-na,me-bo-chia-na,me-bo-chi-a-na, ,-0.295370356,-0.116666667,1,0,0,1.8104,text_option_1,,0,69,69,56,1
5ada203ce34a050001b85276,63f3cfca20052e4ae7554ebf,6453cbd778f964ec0dbb3a30,2023-05-04_17h14.54.895,ga_syllabified_check,2022.2.5,Win32,60.0276127,,,,,,,,,,,,,,./stim/p07_syllable_1_chiaba_hit.wav,p07,chiaba,hit,chia-ba,chia-ba,chi-a-ba, ,-0.367592578,-0.107407422,1,0,0,1.0827,text_option_1,,0,70,70,136,1
5ada203ce34a050001b85276,63f3cfca20052e4ae7554ebf,6453cbd778f964ec0dbb3a30,2023-05-04_17h14.54.895,ga_syllabified_check,2022.2.5,Win32,60.0276127,,,,,,,,,,,,,,./stim/p05_syllable_1_mebochiana_hit.wav,p05,mebochiana,hit,me-cho-chai-na,me-bo-chia-na,me-bo-chi-a-na, ,-0.292592578,-0.109259288,1,0,0,3.172,text_option_1,,0,71,71,90,1
5ada203ce34a050001b85276,63f3cfca20052e4ae7554ebf,6453cbd778f964ec0dbb3a30,2023-05-04_17h14.54.895,ga_syllabified_check,2022.2.5,Win32,60.0276127,,,,,,,,,,,,,,./stim/p04_syllable_1_palufauto_hit.wav,p04,palufauto,hit,pa-lu-fau-to,pa-lu-fau-to,pa-lu-fa-u-to, ,0.335185242,-0.108333333,1,0,0,3.1695,text_option_2,,0,72,72,60,1
5ada203ce34a050001b85276,63f3cfca20052e4ae7554ebf,6453cbd778f964ec0dbb3a30,2023-05-04_17h14.54.895,ga_syllabified_check,2022.2.5,Win32,60.0276127,,,,,,,,,,,,,,./stim/p04_syllable_1_palumaisto_hit.wav,p04,palumaisto,hit,pa-lu-mais-to,pa-lu-mais-to,pa-lu-ma-is-to, ,-0.313888889,-0.103703732,1,0,0,1.3654,text_option_1,,0,73,73,62,1
5ada203ce34a050001b85276,63f3cfca20052e4ae7554ebf,6453cbd778f964ec0dbb3a30,2023-05-04_17h14.54.895,ga_syllabified_check,2022.2.5,Win32,60.0276127,,,,,,,,,,,,,,./stim/p04_syllable_1_manhiala_hit.wav,p04,mañiala,hit,ma-nhia-la,ma-ñia-la,ma-ñi-a-la, ,-0.377777778,-0.112962977,1,0,0,1.9231,text_option_1,,0,74,74,55,1
5ada203ce34a050001b85276,63f3cfca20052e4ae7554ebf,6453cbd778f964ec0dbb3a30,2023-05-04_17h14.54.895,ga_syllabified_check,2022.2.5,Win32,60.0276127,,,,,,,,,,,,,,./stim/p08_syllable_1_palufauro_hit.wav,p08,palufauro,hit,pa-lu-fau-ro,pa-lu-fau-ro,pa-lu-fa-u-ro, ,0.387037065,-0.103703732,1,0,0,3.8164,text_option_2,,0,75,75,195,1
5ada203ce34a050001b85276,63f3cfca20052e4ae7554ebf,6453cbd778f964ec0dbb3a30,2023-05-04_17h14.54.895,ga_syllabified_check,2022.2.5,Win32,60.0276127,,,,,,,,,,,,,,./stim/p08_syllable_1_falutraigo_hit.wav,p08,falutraigo,hit,fa-lu-trai-go,fa-lu-trai-go,fa-lu-tra-i-go, ,-0.317592578,-0.108333333,1,0,0,2.3817,text_option_1,,0,76,76,174,1
5ada203ce34a050001b85276,63f3cfca20052e4ae7554ebf,6453cbd778f964ec0dbb3a30,2023-05-04_17h14.54.895,ga_syllabified_check,2022.2.5,Win32,60.0276127,,,,,,,,,,,,,,./stim/p03_syllable_1_faluduako_hit.wav,p03,faluduako,hit,fa-lu-dua-ko,fa-lu-dua-ko,fa-lu-du-a-ko, ,-0.349074046,-0.101851866,1,0,0,1.9823,text_option_1,,0,77,77,2,1
5ada203ce34a050001b85276,63f3cfca20052e4ae7554ebf,6453cbd778f964ec0dbb3a30,2023-05-04_17h14.54.895,ga_syllabified_check,2022.2.5,Win32,60.0276127,,,,,,,,,,,,,,./stim/p06_syllable_1_rausto_hit.wav,p06,rausto,hit,ra-us-to,raus-to,ra-us-to, ,0.344444444,-0.103703732,1,0,0,1.8974,text_option_2,,0,78,78,133,1
5ada203ce34a050001b85276,63f3cfca20052e4ae7554ebf,6453cbd778f964ec0dbb3a30,2023-05-04_17h14.54.895,ga_syllabified_check,2022.2.5,Win32,60.0276127,,,,,,,,,,,,,,./stim/p07_syllable_1_lakagiaisto_hit.wav,p07,lakagiaisto,hit,la-ka-gais-to,la-ka-giais-to,la-ka-gi-ais-to,la-ka-gia-is-to,-0.325925912,-0.110185199,1,0,0,3.5639,text_option_1,,0,79,79,148,1
5ada203ce34a050001b85276,63f3cfca20052e4ae7554ebf,6453cbd778f964ec0dbb3a30,2023-05-04_17h14.54.895,ga_syllabified_check,2022.2.5,Win32,60.0276127,,,,,,,,,,,,,,./stim/p06_syllable_1_nhiape_hit.wav,p06,ñiape,hit,nhi-a-pe,ñia-pe,ñi-a-pe, ,0.358333333,-0.110185199,1,0,0,1.7492,text_option_2,,0,80,80,125,1
5ada203ce34a050001b85276,63f3cfca20052e4ae7554ebf,6453cbd778f964ec0dbb3a30,2023-05-04_17h14.54.895,ga_syllabified_check,2022.2.5,Win32,60.0276127,,,,,,,,,,,,,,./stim/p07_syllable_1_lakabuaisto_hit.wav,p07,lakabuaisto,hit,la-ka-buais-to,la-ka-buais-to,la-ka-bu-ais-to,la-ka-bua-is-to,-0.304629601,-0.113888889,1,0,0,2.89,text_option_1,,0,81,81,143,1
5ada203ce34a050001b85276,63f3cfca20052e4ae7554ebf,6453cbd778f964ec0dbb3a30,2023-05-04_17h14.54.895,ga_syllabified_check,2022.2.5,Win32,60.0276127,,,,,,,,,,,,,,./stim/p06_syllable_1_lliape_hit.wav,p06,lliape,hit,lli-lla-pe,llia-pe,lli-a-pe, ,0.355555556,-0.102777778,1,0,0,2.8332,text_option_2,,0,82,82,122,1
5ada203ce34a050001b85276,63f3cfca20052e4ae7554ebf,6453cbd778f964ec0dbb3a30,2023-05-04_17h14.54.895,ga_syllabified_check,2022.2.5,Win32,60.0276127,,,,,,,,,,,,,,./stim/p05_syllable_1_lakaduaisto_hit.wav,p05,lakaduaisto,hit,la-ka-dais-to,la-ka-duais-to,la-ka-du-ais-to,la-ka-dua-is-to,-0.348148134,-0.117592621,1,0,0,6.4237,text_option_1,,0,83,83,77,1
5ada203ce34a050001b85276,63f3cfca20052e4ae7554ebf,6453cbd778f964ec0dbb3a30,2023-05-04_17h14.54.895,ga_syllabified_check,2022.2.5,Win32,60.0276127,,,,,,,,,,,,,,./stim/p07_syllable_1_rausto_hit.wav,p07,rausto,hit,raus-to,raus-to,ra-us-to, ,-0.405555556,-0.098148176,1,0,0,1.4329,text_option_1,,0,84,84,167,1
5ada203ce34a050001b85276,63f3cfca20052e4ae7554ebf,6453cbd778f964ec0dbb3a30,2023-05-04_17h14.54.895,ga_syllabified_check,2022.2.5,Win32,60.0276127,,,,,,,,,,,,,,./stim/p05_syllable_1_lakapuaisto_hit.wav,p05,lakapuaisto,hit,la-ka-pais-to,la-ka-puais-to,la-ka-pu-ais-to,la-ka-pua-is-to,-0.332407379,-0.093518533,1,0,0,5.4174,text_option_1,,0,85,85,85,1
5ada203ce34a050001b85276,63f3cfca20052e4ae7554ebf,6453cbd778f964ec0dbb3a30,2023-05-04_17h14.54.895,ga_syllabified_check,2022.2.5,Win32,60.0276127,,,,,,,,,,,,,,./stim/p08_syllable_1_lakadiaisto_hit.wav,p08,lakadiaisto,hit,la-ka-di-jas-to,la-ka-diais-to,la-ka-di-ais-to,la-ka-dia-is-to,0.362963019,-0.100925954,1,0,0,4.2558,text_option_2,,0,86,86,178,1
5ada203ce34a050001b85276,63f3cfca20052e4ae7554ebf,6453cbd778f964ec0dbb3a30,2023-05-04_17h14.54.895,ga_syllabified_check,2022.2.5,Win32,60.0276127,,,,,,,,,,,,,,./stim/p04_syllable_1_faluduako_hit.wav,p04,faluduako,hit,fa-lu-dua-ko,fa-lu-dua-ko,fa-lu-du-a-ko, ,-0.304629601,-0.112962977,1,0,0,3.7749,text_option_1,,0,87,87,36,1
5ada203ce34a050001b85276,63f3cfca20052e4ae7554ebf,6453cbd778f964ec0dbb3a30,2023-05-04_17h14.54.895,ga_syllabified_check,2022.2.5,Win32,60.0276127,,,,,,,,,,,,,,./stim/p06_syllable_1_lakatiaisto_hit.wav,p06,lakatiaisto,hit,la-ka-pia-is-to,la-ka-tiais-to,la-ka-ti-ais-to,la-ka-tia-is-to,0.010185242,-0.110185199,1,0,0,6.246,text_option_3,,0,88,88,120,1
5ada203ce34a050001b85276,63f3cfca20052e4ae7554ebf,6453cbd778f964ec0dbb3a30,2023-05-04_17h14.54.895,ga_syllabified_check,2022.2.5,Win32,60.0276127,,,,,,,,,,,,,,./stim/p03_syllable_1_falutraigo_hit.wav,p03,falutraigo,hit,fa-lu-trai-go,fa-lu-trai-go,fa-lu-tra-i-go, ,-0.337037023,-0.112037065,1,0,0,2.3172,text_option_1,,0,89,89,4,1
5ada203ce34a050001b85276,63f3cfca20052e4ae7554ebf,6453cbd778f964ec0dbb3a30,2023-05-04_17h14.54.895,ga_syllabified_check,2022.2.5,Win32,60.0276127,,,,,,,,,,,,,,./stim/p03_syllable_1_lakapuaisto_hit.wav,p03,lakapuaisto,hit,la-ka-puais-to,la-ka-puais-to,la-ka-pu-ais-to,la-ka-pua-is-to,-0.312962935,-0.099074088,1,0,0,1.9005,text_option_1,,0,90,90,17,1
5ada203ce34a050001b85276,63f3cfca20052e4ae7554ebf,6453cbd778f964ec0dbb3a30,2023-05-04_17h14.54.895,ga_syllabified_check,2022.2.5,Win32,60.0276127,,,,,,,,,,,,,,./stim/p05_syllable_1_palufauro_hit.wav,p05,palufauro,hit,pa-lu-fau-ro,pa-lu-fau-ro,pa-lu-fa-u-ro, ,-0.334259245,-0.104629644,1,0,0,1.5362,text_option_1,,0,91,91,93,1
5ada203ce34a050001b85276,63f3cfca20052e4ae7554ebf,6453cbd778f964ec0dbb3a30,2023-05-04_17h14.54.895,ga_syllabified_check,2022.2.5,Win32,60.0276127,,,,,,,,,,,,,,./stim/p05_syllable_1_flauro_hit.wav,p05,flauro,hit,fa-lu-ro,flau-ro,fla-u-ro, ,0.354629686,-0.091666667,1,0,0,1.6414,text_option_2,,0,92,92,73,1
5ada203ce34a050001b85276,63f3cfca20052e4ae7554ebf,6453cbd778f964ec0dbb3a30,2023-05-04_17h14.54.895,ga_syllabified_check,2022.2.5,Win32,60.0276127,,,,,,,,,,,,,,./stim/p08_syllable_1_manhiala_hit.wav,p08,mañiala,hit,ma-nhia-la,ma-ñia-la,ma-ñi-a-la, ,0.388888889,-0.101851866,1,0,0,4.7662,text_option_2,,0,93,93,191,1
5ada203ce34a050001b85276,63f3cfca20052e4ae7554ebf,6453cbd778f964ec0dbb3a30,2023-05-04_17h14.54.895,ga_syllabified_check,2022.2.5,Win32,60.0276127,,,,,,,,,,,,,,./stim/p04_syllable_1_ruyiola_hit.wav,p04,ruyiola,hit,ru-yio-la,ru-yio-la,ru-yi-o-la, ,-0.362037023,-0.099074088,1,0,0,1.5816,text_option_1,,0,94,94,66,1
5ada203ce34a050001b85276,63f3cfca20052e4ae7554ebf,6453cbd778f964ec0dbb3a30,2023-05-04_17h14.54.895,ga_syllabified_check,2022.2.5,Win32,60.0276127,,,,,,,,,,,,,,./stim/p04_syllable_1_lakabuaisto_hit.wav,p04,lakabuaisto,hit,la-ka-buais-to,la-ka-buais-to,la-ka-bu-ais-to,la-ka-bua-is-to,-0.319444444,-0.102777778,1,0,0,1.6445,text_option_1,,0,95,95,41,1
5ada203ce34a050001b85276,63f3cfca20052e4ae7554ebf,6453cbd778f964ec0dbb3a30,2023-05-04_17h14.54.895,ga_syllabified_check,2022.2.5,Win32,60.0276127,,,,,,,,,,,,,,./stim/p05_syllable_1_lakadiaisto_hit.wav,p05,lakadiaisto,hit,la-ka-di-ais-to,la-ka-diais-to,la-ka-di-ais-to,la-ka-dia-is-to,-0.326851824,-0.105555556,1,0,0,2.2982,text_option_1,,0,96,96,76,1
5ada203ce34a050001b85276,63f3cfca20052e4ae7554ebf,6453cbd778f964ec0dbb3a30,2023-05-04_17h14.54.895,ga_syllabified_check,2022.2.5,Win32,60.0276127,,,,,,,,,,,,,,./stim/p06_syllable_1_lakagiaisto_hit.wav,p06,lakagiaisto,hit,la-ka-gia-is-to,la-ka-giais-to,la-ka-gi-ais-to,la-ka-gia-is-to,0.079629686,-0.097222222,1,0,0,4.0502,text_option_3,,0,97,97,114,1
5ada203ce34a050001b85276,63f3cfca20052e4ae7554ebf,6453cbd778f964ec0dbb3a30,2023-05-04_17h14.54.895,ga_syllabified_check,2022.2.5,Win32,60.0276127,,,,,,,,,,,,,,./stim/p07_syllable_1_payielo_hit.wav,p07,payielo,hit,pa-yie-lo,pa-yie-lo,pa-yi-e-lo, ,-0.360185157,-0.109259288,1,0,0,1.6156,text_option_1,,0,98,98,166,1
5ada203ce34a050001b85276,63f3cfca20052e4ae7554ebf,6453cbd778f964ec0dbb3a30,2023-05-04_17h14.54.895,ga_syllabified_check,2022.2.5,Win32,60.0276127,,,,,,,,,,,,,,./stim/p08_syllable_1_lakafuaisto_hit.wav,p08,lakafuaisto,hit,la-ka-fju-ais-to,la-ka-fuais-to,la-ka-fu-ais-to,la-ka-fua-is-to,0.351851908,-0.120370399,1,0,0,4.1479,text_option_2,,0,99,99,181,1
5ada203ce34a050001b85276,63f3cfca20052e4ae7554ebf,6453cbd778f964ec0dbb3a30,2023-05-04_17h14.54.895,ga_syllabified_check,2022.2.5,Win32,60.0276127,,,,,,,,,,,,,,./stim/p05_syllable_1_lakabiaisto_hit.wav,p05,lakabiaisto,hit,la-ka-bi-ais-to,la-ka-biais-to,la-ka-bi-ais-to,la-ka-bia-is-to,0.332407464,-0.105555556,1,0,0,4.2472,text_option_2,,0,100,100,74,1
5ada203ce34a050001b85276,63f3cfca20052e4ae7554ebf,6453cbd778f964ec0dbb3a30,2023-05-04_17h14.54.895,ga_syllabified_check,2022.2.5,Win32,60.0276127,,,,,,,,,,,,,,./stim/p05_syllable_1_lakagiaisto_hit.wav,p05,lakagiaisto,hit,la-ka-ki-ais-to,la-ka-giais-to,la-ka-gi-ais-to,la-ka-gia-is-to,-0.345370356,-0.102777778,1,0,0,2.84,text_option_1,,0,101,101,80,1
5ada203ce34a050001b85276,63f3cfca20052e4ae7554ebf,6453cbd778f964ec0dbb3a30,2023-05-04_17h14.54.895,ga_syllabified_check,2022.2.5,Win32,60.0276127,,,,,,,,,,,,,,./stim/p07_syllable_1_lakatiaisto_hit.wav,p07,lakatiaisto,hit,la-ka-tiai-sto,la-ka-tiais-to,la-ka-ti-ais-to,la-ka-tia-is-to,0.375925954,-0.108333333,1,0,0,5.2463,text_option_2,,0,102,102,154,1
5ada203ce34a050001b85276,63f3cfca20052e4ae7554ebf,6453cbd778f964ec0dbb3a30,2023-05-04_17h14.54.895,ga_syllabified_check,2022.2.5,Win32,60.0276127,,,,,,,,,,,,,,./stim/p07_syllable_1_mebochiana_hit.wav,p07,mebochiana,hit,me-bo-chia-na,me-bo-chia-na,me-bo-chi-a-na, ,-0.340740712,-0.093518533,1,0,0,2.8745,text_option_1,,0,103,103,158,1
5ada203ce34a050001b85276,63f3cfca20052e4ae7554ebf,6453cbd778f964ec0dbb3a30,2023-05-04_17h14.54.895,ga_syllabified_check,2022.2.5,Win32,60.0276127,,,,,,,,,,,,,,./stim/p06_syllable_1_faluduako_hit.wav,p06,faluduako,hit,fa-lu-dua-ko,fa-lu-dua-ko,fa-lu-du-a-ko, ,-0.336111111,-0.101851866,1,0,0,3.7072,text_option_1,,0,104,104,104,1
5ada203ce34a050001b85276,63f3cfca20052e4ae7554ebf,6453cbd778f964ec0dbb3a30,2023-05-04_17h14.54.895,ga_syllabified_check,2022.2.5,Win32,60.0276127,,,,,,,,,,,,,,./stim/p07_syllable_1_lakadiaisto_hit.wav,p07,lakadiaisto,hit,la-ka-dia-is-to,la-ka-diais-to,la-ka-di-ais-to,la-ka-dia-is-to,0.076851908,-0.113888889,1,0,0,2.8815,text_option_3,,0,105,105,144,1
5ada203ce34a050001b85276,63f3cfca20052e4ae7554ebf,6453cbd778f964ec0dbb3a30,2023-05-04_17h14.54.895,ga_syllabified_check,2022.2.5,Win32,60.0276127,,,,,,,,,,,,,,./stim/p04_syllable_1_lakapiaisto_hit.wav,p04,lakapiaisto,hit,la-ka-piais-to,la-ka-piais-to,la-ka-pi-ais-to,la-ka-pia-is-to,-0.354629601,-0.087037065,1,0,0,1.4662,text_option_1,,0,106,106,50,1
5ada203ce34a050001b85276,63f3cfca20052e4ae7554ebf,6453cbd778f964ec0dbb3a30,2023-05-04_17h14.54.895,ga_syllabified_check,2022.2.5,Win32,60.0276127,,,,,,,,,,,,,,./stim/p08_syllable_1_lakakiaisto_hit.wav,p08,lakakiaisto,hit,la-ka-ki-jas-to,la-ka-kiais-to,la-ka-ki-ais-to,la-ka-kia-is-to,0.288888889,-0.084259288,1,0,0,8.7449,text_option_2,,0,107,107,184,1
5ada203ce34a050001b85276,63f3cfca20052e4ae7554ebf,6453cbd778f964ec0dbb3a30,2023-05-04_17h14.54.895,ga_syllabified_check,2022.2.5,Win32,60.0276127,,,,,,,,,,,,,,./stim/p05_syllable_1_faluduako_hit.wav,p05,faluduako,hit,fa-lu-ba-ko,fa-lu-dua-ko,fa-lu-du-a-ko, ,-0.312037023,-0.109259288,1,0,0,2.5817,text_option_1,,0,108,108,70,1
5ada203ce34a050001b85276,63f3cfca20052e4ae7554ebf,6453cbd778f964ec0dbb3a30,2023-05-04_17h14.54.895,ga_syllabified_check,2022.2.5,Win32,60.0276127,,,,,,,,,,,,,,./stim/p03_syllable_1_palufauro_hit.wav,p03,palufauro,hit,pa-lu-fau-ro,pa-lu-fau-ro,pa-lu-fa-u-ro, ,-0.334259245,-0.120370399,1,0,0,2.0507,text_option_1,,0,109,109,25,1
5ada203ce34a050001b85276,63f3cfca20052e4ae7554ebf,6453cbd778f964ec0dbb3a30,2023-05-04_17h14.54.895,ga_syllabified_check,2022.2.5,Win32,60.0276127,,,,,,,,,,,,,,./stim/p05_syllable_1_lakaguaisto_hit.wav,p05,lakaguaisto,hit,la-ka-gais,la-ka-guais-to,la-ka-gu-ais-to,la-ka-gua-is-to,-0.345370356,-0.103703732,1,0,0,2.8313,text_option_1,,0,110,110,81,1
5ada203ce34a050001b85276,63f3cfca20052e4ae7554ebf,6453cbd778f964ec0dbb3a30,2023-05-04_17h14.54.895,ga_syllabified_check,2022.2.5,Win32,60.0276127,,,,,,,,,,,,,,./stim/p08_syllable_1_payielo_hit.wav,p08,payielo,hit,pa-yie-lo,pa-yie-lo,pa-yi-e-lo, ,0.372222222,-0.108333333,1,0,0,4.8964,text_option_2,,0,111,111,200,1
5ada203ce34a050001b85276,63f3cfca20052e4ae7554ebf,6453cbd778f964ec0dbb3a30,2023-05-04_17h14.54.895,ga_syllabified_check,2022.2.5,Win32,60.0276127,,,,,,,,,,,,,,./stim/p05_syllable_1_palutrauco_hit.wav,p05,palutrauco,hit,pa-lu-trai-co,pa-lu-trau-co,pa-lu-tra-u-co, ,0.053703732,-0.312963019,1,0,0,5.1599,text_option_other,pa- lu- tria- co-,0,112,112,97,1
5ada203ce34a050001b85276,63f3cfca20052e4ae7554ebf,6453cbd778f964ec0dbb3a30,2023-05-04_17h14.54.895,ga_syllabified_check,2022.2.5,Win32,60.0276127,,,,,,,,,,,,,,./stim/p05_syllable_1_nhiape_hit.wav,p05,ñiape,hit,nhia-pe,ñia-pe,ñi-a-pe, ,0.428703732,-0.100925954,1,0,0,4.0312,text_option_2,,0,113,113,91,1
5ada203ce34a050001b85276,63f3cfca20052e4ae7554ebf,6453cbd778f964ec0dbb3a30,2023-05-04_17h14.54.895,ga_syllabified_check,2022.2.5,Win32,60.0276127,,,,,,,,,,,,,,./stim/p07_syllable_1_lakapiaisto_hit.wav,p07,lakapiaisto,hit,la-ka-pia-sto,la-ka-piais-to,la-ka-pi-ais-to,la-ka-pia-is-to,0.051851908,-0.098148176,1,0,0,4.3968,text_option_3,,0,114,114,152,1
5ada203ce34a050001b85276,63f3cfca20052e4ae7554ebf,6453cbd778f964ec0dbb3a30,2023-05-04_17h14.54.895,ga_syllabified_check,2022.2.5,Win32,60.0276127,,,,,,,,,,,,,,./stim/p08_syllable_1_falufaisto_hit.wav,p08,falufaisto,hit,fa-lu-fais-to,fa-lu-fais-to,fa-lu-fa-is-to, ,-0.335185157,-0.095370399,1,0,0,2.2944,text_option_1,,0,115,115,173,1
5ada203ce34a050001b85276,63f3cfca20052e4ae7554ebf,6453cbd778f964ec0dbb3a30,2023-05-04_17h14.54.895,ga_syllabified_check,2022.2.5,Win32,60.0276127,,,,,,,,,,,,,,./stim/p08_syllable_1_palufauto_hit.wav,p08,palufauto,hit,pa-lu-fau-to,pa-lu-fau-to,pa-lu-fa-u-to, ,-0.330555556,-0.114814843,1,0,0,2.9811,text_option_1,,0,116,116,196,1
5ada203ce34a050001b85276,63f3cfca20052e4ae7554ebf,6453cbd778f964ec0dbb3a30,2023-05-04_17h14.54.895,ga_syllabified_check,2022.2.5,Win32,60.0276127,,,,,,,,,,,,,,./stim/p03_syllable_1_lakaduaisto_hit.wav,p03,lakaduaisto,hit,la-ka-duais-to,la-ka-duais-to,la-ka-du-ais-to,la-ka-dua-is-to,-0.339814801,-0.093518533,1,0,0,1.9087,text_option_1,,0,117,117,9,1
5ada203ce34a050001b85276,63f3cfca20052e4ae7554ebf,6453cbd778f964ec0dbb3a30,2023-05-04_17h14.54.895,ga_syllabified_check,2022.2.5,Win32,60.0276127,,,,,,,,,,,,,,./stim/p06_syllable_1_lakakiaisto_hit.wav,p06,lakakiaisto,hit,la-ka-kia-is-to,la-ka-kiais-to,la-ka-ki-ais-to,la-ka-kia-is-to,0.068518575,-0.109259288,1,0,0,4.0828,text_option_3,,0,118,118,116,1
5ada203ce34a050001b85276,63f3cfca20052e4ae7554ebf,6453cbd778f964ec0dbb3a30,2023-05-04_17h14.54.895,ga_syllabified_check,2022.2.5,Win32,60.0276127,,,,,,,,,,,,,,./stim/p03_syllable_1_lakapiaisto_hit.wav,p03,lakapiaisto,hit,la-ka-piais-to,la-ka-piais-to,la-ka-pi-ais-to,la-ka-pia-is-to,-0.325925912,-0.113888889,1,0,0,1.7575,text_option_1,,0,119,119,16,1
5ada203ce34a050001b85276,63f3cfca20052e4ae7554ebf,6453cbd778f964ec0dbb3a30,2023-05-04_17h14.54.895,ga_syllabified_check,2022.2.5,Win32,60.0276127,,,,,,,,,,,,,,./stim/p07_syllable_1_falufaisto_hit.wav,p07,falufaisto,hit,fa-lu-fais-to,fa-lu-fais-to,fa-lu-fa-is-to, ,-0.322222222,-0.113888889,1,0,0,2.348,text_option_1,,0,120,120,139,1
5ada203ce34a050001b85276,63f3cfca20052e4ae7554ebf,6453cbd778f964ec0dbb3a30,2023-05-04_17h14.54.895,ga_syllabified_check,2022.2.5,Win32,60.0276127,,,,,,,,,,,,,,./stim/p06_syllable_1_falutraigo_hit.wav,p06,falutraigo,hit,fa-lu-tra-i-go,fa-lu-trai-go,fa-lu-tra-i-go, ,0.358333333,-0.095370399,1,0,0,3.9322,text_option_2,,0,121,121,106,1
5ada203ce34a050001b85276,63f3cfca20052e4ae7554ebf,6453cbd778f964ec0dbb3a30,2023-05-04_17h14.54.895,ga_syllabified_check,2022.2.5,Win32,60.0276127,,,,,,,,,,,,,,./stim/p08_syllable_1_lakakuaisto_hit.wav,p08,lakakuaisto,hit,la-ka-ku-ais-to,la-ka-kuais-to,la-ka-ku-ais-to,la-ka-kua-is-to,0.062037065,-0.100925954,1,0,0,4.0805,text_option_3,,0,122,122,185,1
5ada203ce34a050001b85276,63f3cfca20052e4ae7554ebf,6453cbd778f964ec0dbb3a30,2023-05-04_17h14.54.895,ga_syllabified_check,2022.2.5,Win32,60.0276127,,,,,,,,,,,,,,./stim/p03_syllable_1_mebochiana_hit.wav,p03,mebochiana,hit,me-bo-chia-na,me-bo-chia-na,me-bo-chi-a-na, ,-0.314814801,-0.089814843,1,0,0,2.548,text_option_1,,0,123,123,22,1
5ada203ce34a050001b85276,63f3cfca20052e4ae7554ebf,6453cbd778f964ec0dbb3a30,2023-05-04_17h14.54.895,ga_syllabified_check,2022.2.5,Win32,60.0276127,,,,,,,,,,,,,,./stim/p05_syllable_1_pachialo_hit.wav,p05,pachialo,hit,pan-chia-lo,pa-chia-lo,pa-chi-a-lo, ,0.475,-0.099074088,1,0,0,2.8605,text_option_2,,0,124,124,92,1
5ada203ce34a050001b85276,63f3cfca20052e4ae7554ebf,6453cbd778f964ec0dbb3a30,2023-05-04_17h14.54.895,ga_syllabified_check,2022.2.5,Win32,60.0276127,,,,,,,,,,,,,,./stim/p03_syllable_1_costonhialo_hit.wav,p03,costoñialo,hit,cos-to-nhia-lo,cos-to-ñia-lo,cos-to-ñi-a-lo, ,0.362037065,-0.09629631,1,0,0,3.7634,text_option_2,,0,125,125,1,1
5ada203ce34a050001b85276,63f3cfca20052e4ae7554ebf,6453cbd778f964ec0dbb3a30,2023-05-04_17h14.54.895,ga_syllabified_check,2022.2.5,Win32,60.0276127,,,,,,,,,,,,,,./stim/p04_syllable_1_lakadiaisto_hit.wav,p04,lakadiaisto,hit,la-ka-dias-to,la-ka-diais-to,la-ka-di-ais-to,la-ka-dia-is-to,-0.302777778,-0.105555556,1,0,0,1.8517,text_option_1,,0,126,126,42,1
5ada203ce34a050001b85276,63f3cfca20052e4ae7554ebf,6453cbd778f964ec0dbb3a30,2023-05-04_17h14.54.895,ga_syllabified_check,2022.2.5,Win32,60.0276127,,,,,,,,,,,,,,./stim/p06_syllable_1_lakaduaisto_hit.wav,p06,lakaduaisto,hit,la-ka-du-a-is,la-ka-duais-to,la-ka-du-ais-to,la-ka-dua-is-to,0.372222222,-0.097222222,1,0,0,3.4801,text_option_2,,0,127,127,111,1
5ada203ce34a050001b85276,63f3cfca20052e4ae7554ebf,6453cbd778f964ec0dbb3a30,2023-05-04_17h14.54.895,ga_syllabified_check,2022.2.5,Win32,60.0276127,,,,,,,,,,,,,,./stim/p06_syllable_1_payielo_hit.wav,p06,payielo,hit,pa-yi-e-lo,pa-yie-lo,pa-yi-e-lo, ,0.376851908,-0.100925954,1,0,0,1.9491,text_option_2,,0,128,128,132,1
5ada203ce34a050001b85276,63f3cfca20052e4ae7554ebf,6453cbd778f964ec0dbb3a30,2023-05-04_17h14.54.895,ga_syllabified_check,2022.2.5,Win32,60.0276127,,,,,,,,,,,,,,./stim/p07_syllable_1_lakakiaisto_hit.wav,p07,lakakiaisto,hit,la-ka-kais-to,la-ka-kiais-to,la-ka-ki-ais-to,la-ka-kia-is-to,-0.316666667,-0.118518533,1,0,0,4.188,text_option_1,,0,129,129,150,1
5ada203ce34a050001b85276,63f3cfca20052e4ae7554ebf,6453cbd778f964ec0dbb3a30,2023-05-04_17h14.54.895,ga_syllabified_check,2022.2.5,Win32,60.0276127,,,,,,,,,,,,,,./stim/p05_syllable_1_lakapiaisto_hit.wav,p05,lakapiaisto,hit,la-ka-pais-to,la-ka-piais-to,la-ka-pi-ais-to,la-ka-pia-is-to,-0.310185157,-0.115740755,1,0,0,3.497,text_option_1,,0,130,130,84,1
5ada203ce34a050001b85276,63f3cfca20052e4ae7554ebf,6453cbd778f964ec0dbb3a30,2023-05-04_17h14.54.895,ga_syllabified_check,2022.2.5,Win32,60.0276127,,,,,,,,,,,,,,./stim/p05_syllable_1_lakatuaisto_hit.wav,p05,lakatuaisto,hit,la-ka-tais-to,la-ka-tuais-to,la-ka-tu-ais-to,la-ka-tua-is-to,-0.339814801,-0.1,1,0,0,2.9014,text_option_1,,0,131,131,87,1
5ada203ce34a050001b85276,63f3cfca20052e4ae7554ebf,6453cbd778f964ec0dbb3a30,2023-05-04_17h14.54.895,ga_syllabified_check,2022.2.5,Win32,60.0276127,,,,,,,,,,,,,,./stim/p08_syllable_1_nhiape_hit.wav,p08,ñiape,hit,ni-a-pe,ñia-pe,ñi-a-pe, ,0.362037065,-0.099074088,1,0,0,2.1652,text_option_2,,0,132,132,193,1
5ada203ce34a050001b85276,63f3cfca20052e4ae7554ebf,6453cbd778f964ec0dbb3a30,2023-05-04_17h14.54.895,ga_syllabified_check,2022.2.5,Win32,60.0276127,,,,,,,,,,,,,,./stim/p04_syllable_1_costonhialo_hit.wav,p04,costoñialo,hit,cos-to-nhia-lo,cos-to-ñia-lo,cos-to-ñi-a-lo, ,-0.331481467,-0.111111111,1,0,0,2.3042,text_option_1,,0,133,133,35,1
5ada203ce34a050001b85276,63f3cfca20052e4ae7554ebf,6453cbd778f964ec0dbb3a30,2023-05-04_17h14.54.895,ga_syllabified_check,2022.2.5,Win32,60.0276127,,,,,,,,,,,,,,./stim/p05_syllable_1_falufaisto_hit.wav,p05,falufaisto,hit,fa-lu-fais-to,fa-lu-fais-to,fa-lu-fa-is-to, ,-0.323148134,-0.098148176,1,0,0,1.1833,text_option_1,,0,134,134,71,1
5ada203ce34a050001b85276,63f3cfca20052e4ae7554ebf,6453cbd778f964ec0dbb3a30,2023-05-04_17h14.54.895,ga_syllabified_check,2022.2.5,Win32,60.0276127,,,,,,,,,,,,,,./stim/p08_syllable_1_lakaduaisto_hit.wav,p08,lakaduaisto,hit,la-ka-du-ais-to,la-ka-duais-to,la-ka-du-ais-to,la-ka-dua-is-to,0.044444444,-0.102777778,1,0,0,3.8833,text_option_3,,0,135,135,179,1
5ada203ce34a050001b85276,63f3cfca20052e4ae7554ebf,6453cbd778f964ec0dbb3a30,2023-05-04_17h14.54.895,ga_syllabified_check,2022.2.5,Win32,60.0276127,,,,,,,,,,,,,,./stim/p06_syllable_1_lakafuaisto_hit.wav,p06,lakafuaisto,hit,la-ka-fu-a-is,la-ka-fuais-to,la-ka-fu-ais-to,la-ka-fua-is-to,0.010185242,-0.094444444,1,0,0,5.5126,text_option_3,,0,136,136,113,1
5ada203ce34a050001b85276,63f3cfca20052e4ae7554ebf,6453cbd778f964ec0dbb3a30,2023-05-04_17h14.54.895,ga_syllabified_check,2022.2.5,Win32,60.0276127,,,,,,,,,,,,,,./stim/p03_syllable_1_tuliafo_hit.wav,p03,tuliafo,hit,tu-lia-fo,tu-lia-fo,tu-li-a-fo, ,-0.376851824,-0.113888889,1,0,0,1.9328,text_option_1,,0,137,137,33,1
5ada203ce34a050001b85276,63f3cfca20052e4ae7554ebf,6453cbd778f964ec0dbb3a30,2023-05-04_17h14.54.895,ga_syllabified_check,2022.2.5,Win32,60.0276127,,,,,,,,,,,,,,./stim/p04_syllable_1_lakatuaisto_hit.wav,p04,lakatuaisto,hit,la-ka-kuais-to,la-ka-tuais-to,la-ka-tu-ais-to,la-ka-tua-is-to,-0.339814801,-0.107407422,1,0,0,1.4509,text_option_1,,0,138,138,53,1
5ada203ce34a050001b85276,63f3cfca20052e4ae7554ebf,6453cbd778f964ec0dbb3a30,2023-05-04_17h14.54.895,ga_syllabified_check,2022.2.5,Win32,60.0276127,,,,,,,,,,,,,,./stim/p05_syllable_1_lakabuaisto_hit.wav,p05,lakabuaisto,hit,la-ka-buais-to,la-ka-buais-to,la-ka-bu-ais-to,la-ka-bua-is-to,-0.323148134,-0.109259288,1,0,0,1.7858,text_option_1,,0,139,139,75,1
5ada203ce34a050001b85276,63f3cfca20052e4ae7554ebf,6453cbd778f964ec0dbb3a30,2023-05-04_17h14.54.895,ga_syllabified_check,2022.2.5,Win32,60.0276127,,,,,,,,,,,,,,./stim/p04_syllable_1_pachialo_hit.wav,p04,pachialo,hit,pa-chia-lo,pa-chia-lo,pa-chi-a-lo, ,-0.342592578,-0.099074088,1,0,0,0.9828,text_option_1,,0,140,140,58,1
5ada203ce34a050001b85276,63f3cfca20052e4ae7554ebf,6453cbd778f964ec0dbb3a30,2023-05-04_17h14.54.895,ga_syllabified_check,2022.2.5,Win32,60.0276127,,,,,,,,,,,,,,./stim/p08_syllable_1_lakapiaisto_hit.wav,p08,lakapiaisto,hit,la-ka-pi-as-to,la-ka-piais-to,la-ka-pi-ais-to,la-ka-pia-is-to,0.345370399,-0.10648151,1,0,0,3.6806,text_option_2,,0,141,141,186,1
5ada203ce34a050001b85276,63f3cfca20052e4ae7554ebf,6453cbd778f964ec0dbb3a30,2023-05-04_17h14.54.895,ga_syllabified_check,2022.2.5,Win32,60.0276127,,,,,,,,,,,,,,./stim/p03_syllable_1_lakadiaisto_hit.wav,p03,lakadiaisto,hit,la-ka-diais-to,la-ka-diais-to,la-ka-di-ais-to,la-ka-dia-is-to,-0.31851849,-0.111111111,1,0,0,2.2654,text_option_1,,0,142,142,8,1
5ada203ce34a050001b85276,63f3cfca20052e4ae7554ebf,6453cbd778f964ec0dbb3a30,2023-05-04_17h14.54.895,ga_syllabified_check,2022.2.5,Win32,60.0276127,,,,,,,,,,,,,,./stim/p06_syllable_1_palumaisto_hit.wav,p06,palumaisto,hit,pa-lu-ma-is-to,pa-lu-mais-to,pa-lu-ma-is-to, ,0.460185242,-0.107407422,1,0,0,3.2005,text_option_2,,0,143,143,130,1
5ada203ce34a050001b85276,63f3cfca20052e4ae7554ebf,6453cbd778f964ec0dbb3a30,2023-05-04_17h14.54.895,ga_syllabified_check,2022.2.5,Win32,60.0276127,,,,,,,,,,,,,,./stim/p06_syllable_1_palufauto_hit.wav,p06,palufauto,hit,pa-lu-fau-to,pa-lu-fau-to,pa-lu-fa-u-to, ,-0.327777778,-0.100925954,1,0,0,3.6639,text_option_1,,0,144,144,128,1
5ada203ce34a050001b85276,63f3cfca20052e4ae7554ebf,6453cbd778f964ec0dbb3a30,2023-05-04_17h14.54.895,ga_syllabified_check,2022.2.5,Win32,60.0276127,,,,,,,,,,,,,,./stim/p05_syllable_1_paluguato_hit.wav,p05,paluguato,hit,pa-lu-gau-to,pa-lu-gua-to,pa-lu-gu-a-to, ,-0.327777778,-0.10648151,1,0,0,2.0762,text_option_1,,0,145,145,95,1
5ada203ce34a050001b85276,63f3cfca20052e4ae7554ebf,6453cbd778f964ec0dbb3a30,2023-05-04_17h14.54.895,ga_syllabified_check,2022.2.5,Win32,60.0276127,,,,,,,,,,,,,,./stim/p06_syllable_1_lakapuaisto_hit.wav,p06,lakapuaisto,hit,la-ka-pu-a-is,la-ka-puais-to,la-ka-pu-ais-to,la-ka-pua-is-to,0.083333333,-0.30648151,1,0,0,10.3592,text_option_other,la- ka- pu- a- is- to-,0,146,146,119,1
5ada203ce34a050001b85276,63f3cfca20052e4ae7554ebf,6453cbd778f964ec0dbb3a30,2023-05-04_17h14.54.895,ga_syllabified_check,2022.2.5,Win32,60.0276127,,,,,,,,,,,,,,./stim/p07_syllable_1_costonhialo_hit.wav,p07,costoñialo,hit,cos-to-nhia-lo,cos-to-ñia-lo,cos-to-ñi-a-lo, ,-0.327777778,-0.095370399,1,0,0,2.3818,text_option_1,,0,147,147,137,1
5ada203ce34a050001b85276,63f3cfca20052e4ae7554ebf,6453cbd778f964ec0dbb3a30,2023-05-04_17h14.54.895,ga_syllabified_check,2022.2.5,Win32,60.0276127,,,,,,,,,,,,,,./stim/p03_syllable_1_lakatuaisto_hit.wav,p03,lakatuaisto,hit,la-ka-tuais-to,la-ka-tuais-to,la-ka-tu-ais-to,la-ka-tua-is-to,-0.311111111,-0.093518533,1,0,0,1.6033,text_option_1,,0,148,148,19,1
5ada203ce34a050001b85276,63f3cfca20052e4ae7554ebf,6453cbd778f964ec0dbb3a30,2023-05-04_17h14.54.895,ga_syllabified_check,2022.2.5,Win32,60.0276127,,,,,,,,,,,,,,./stim/p08_syllable_1_flauro_hit.wav,p08,flauro,hit,flau-ro,flau-ro,fla-u-ro, ,0.345370399,-0.102777778,1,0,0,5.246,text_option_2,,0,149,149,175,1
5ada203ce34a050001b85276,63f3cfca20052e4ae7554ebf,6453cbd778f964ec0dbb3a30,2023-05-04_17h14.54.895,ga_syllabified_check,2022.2.5,Win32,60.0276127,,,,,,,,,,,,,,./stim/p05_syllable_1_falutraigo_hit.wav,p05,falutraigo,hit,fa-lu-trai-go,fa-lu-trai-go,fa-lu-tra-i-go, ,-0.316666667,-0.108333333,1,0,0,1.5325,text_option_1,,0,150,150,72,1
5ada203ce34a050001b85276,63f3cfca20052e4ae7554ebf,6453cbd778f964ec0dbb3a30,2023-05-04_17h14.54.895,ga_syllabified_check,2022.2.5,Win32,60.0276127,,,,,,,,,,,,,,./stim/p04_syllable_1_chiaba_hit.wav,p04,chiaba,hit,chia-ba,chia-ba,chi-a-ba, ,-0.346296268,-0.109259288,1,0,0,0.74,text_option_1,,0,151,151,34,1
5ada203ce34a050001b85276,63f3cfca20052e4ae7554ebf,6453cbd778f964ec0dbb3a30,2023-05-04_17h14.54.895,ga_syllabified_check,2022.2.5,Win32,60.0276127,,,,,,,,,,,,,,./stim/p04_syllable_1_lakapuaisto_hit.wav,p04,lakapuaisto,hit,la-ka-puais-to,la-ka-puais-to,la-ka-pu-ais-to,la-ka-pua-is-to,-0.313888889,-0.105555556,1,0,0,1.2237,text_option_1,,0,152,152,51,1
5ada203ce34a050001b85276,63f3cfca20052e4ae7554ebf,6453cbd778f964ec0dbb3a30,2023-05-04_17h14.54.895,ga_syllabified_check,2022.2.5,Win32,60.0276127,,,,,,,,,,,,,,./stim/p08_syllable_1_lliape_hit.wav,p08,lliape,hit,li-a-pe,llia-pe,lli-a-pe, ,0.367592621,-0.093518533,1,0,0,1.5933,text_option_2,,0,153,153,190,1
5ada203ce34a050001b85276,63f3cfca20052e4ae7554ebf,6453cbd778f964ec0dbb3a30,2023-05-04_17h14.54.895,ga_syllabified_check,2022.2.5,Win32,60.0276127,,,,,,,,,,,,,,./stim/p03_syllable_1_manhiala_hit.wav,p03,mañiala,hit,ma-nhia-la,ma-ñia-la,ma-ñi-a-la, ,-0.340740712,-0.105555556,1,0,0,1.7321,text_option_1,,0,154,154,21,1
5ada203ce34a050001b85276,63f3cfca20052e4ae7554ebf,6453cbd778f964ec0dbb3a30,2023-05-04_17h14.54.895,ga_syllabified_check,2022.2.5,Win32,60.0276127,,,,,,,,,,,,,,./stim/p08_syllable_1_costonhialo_hit.wav,p08,costoñialo,hit,cos-to-nhia-lo,cos-to-ñia-lo,cos-to-ñi-a-lo, ,0.366666667,-0.090740755,1,0,0,2.6693,text_option_2,,0,155,155,171,1
5ada203ce34a050001b85276,63f3cfca20052e4ae7554ebf,6453cbd778f964ec0dbb3a30,2023-05-04_17h14.54.895,ga_syllabified_check,2022.2.5,Win32,60.0276127,,,,,,,,,,,,,,./stim/p04_syllable_1_lakafiaisto_hit.wav,p04,lakafiaisto,hit,la-ka-fiais-to,la-ka-fiais-to,la-ka-fi-ais-to,la-ka-fia-is-to,-0.323148134,-0.101851866,1,0,0,1.9003,text_option_1,,0,156,156,44,1
5ada203ce34a050001b85276,63f3cfca20052e4ae7554ebf,6453cbd778f964ec0dbb3a30,2023-05-04_17h14.54.895,ga_syllabified_check,2022.2.5,Win32,60.0276127,,,,,,,,,,,,,,./stim/p06_syllable_1_chiaba_hit.wav,p06,chiaba,hit,chi-a-ba,chia-ba,chi-a-ba, ,0.367592621,-0.100925954,1,0,0,1.3827,text_option_2,,0,157,157,102,1
5ada203ce34a050001b85276,63f3cfca20052e4ae7554ebf,6453cbd778f964ec0dbb3a30,2023-05-04_17h14.54.895,ga_syllabified_check,2022.2.5,Win32,60.0276127,,,,,,,,,,,,,,./stim/p06_syllable_1_palufauro_hit.wav,p06,palufauro,hit,pa-lu-fau-ro,pa-lu-fau-ro,pa-lu-fa-u-ro, ,0.423148176,-0.09629631,1,0,0,3.9469,text_option_2,,0,158,158,127,1
5ada203ce34a050001b85276,63f3cfca20052e4ae7554ebf,6453cbd778f964ec0dbb3a30,2023-05-04_17h14.54.895,ga_syllabified_check,2022.2.5,Win32,60.0276127,,,,,,,,,,,,,,./stim/p07_syllable_1_palufauro_hit.wav,p07,palufauro,hit,pa-lu-fau-ro,pa-lu-fau-ro,pa-lu-fa-u-ro, ,-0.310185157,-0.110185199,1,0,0,1.5483,text_option_1,,0,159,159,161,1
5ada203ce34a050001b85276,63f3cfca20052e4ae7554ebf,6453cbd778f964ec0dbb3a30,2023-05-04_17h14.54.895,ga_syllabified_check,2022.2.5,Win32,60.0276127,,,,,,,,,,,,,,./stim/p08_syllable_1_faluduako_hit.wav,p08,faluduako,hit,fa-lu-duai-ko,fa-lu-dua-ko,fa-lu-du-a-ko, ,-0.32870369,-0.111111111,1,0,0,3.3309,text_option_1,,0,160,160,172,1
5ada203ce34a050001b85276,63f3cfca20052e4ae7554ebf,6453cbd778f964ec0dbb3a30,2023-05-04_17h14.54.895,ga_syllabified_check,2022.2.5,Win32,60.0276127,,,,,,,,,,,,,,./stim/p07_syllable_1_lliape_hit.wav,p07,lliape,hit,lliai-pe,llia-pe,lli-a-pe, ,0.396296353,-0.105555556,1,0,0,3.1409,text_option_2,,0,161,161,156,1
5ada203ce34a050001b85276,63f3cfca20052e4ae7554ebf,6453cbd778f964ec0dbb3a30,2023-05-04_17h14.54.895,ga_syllabified_check,2022.2.5,Win32,60.0276127,,,,,,,,,,,,,,./stim/p07_syllable_1_manhiala_hit.wav,p07,mañiala,hit,ma-nhia-la,ma-ñia-la,ma-ñi-a-la, ,0.379629686,-0.092592621,1,0,0,2.6647,text_option_2,,0,162,162,157,1
5ada203ce34a050001b85276,63f3cfca20052e4ae7554ebf,6453cbd778f964ec0dbb3a30,2023-05-04_17h14.54.895,ga_syllabified_check,2022.2.5,Win32,60.0276127,,,,,,,,,,,,,,./stim/p06_syllable_1_flauro_hit.wav,p06,flauro,hit,fla-u-ro,flau-ro,fla-u-ro, ,0.413888889,-0.110185199,1,0,0,1.4749,text_option_2,,0,163,163,107,1
5ada203ce34a050001b85276,63f3cfca20052e4ae7554ebf,6453cbd778f964ec0dbb3a30,2023-05-04_17h14.54.895,ga_syllabified_check,2022.2.5,Win32,60.0276127,,,,,,,,,,,,,,./stim/p04_syllable_1_lakatiaisto_hit.wav,p04,lakatiaisto,hit,la-ka-kiais-to,la-ka-tiais-to,la-ka-ti-ais-to,la-ka-tia-is-to,-0.326851824,-0.1,1,0,0,1.8321,text_option_1,,0,164,164,52,1
5ada203ce34a050001b85276,63f3cfca20052e4ae7554ebf,6453cbd778f964ec0dbb3a30,2023-05-04_17h14.54.895,ga_syllabified_check,2022.2.5,Win32,60.0276127,,,,,,,,,,,,,,./stim/p03_syllable_1_lakafiaisto_hit.wav,p03,lakafiaisto,hit,la-ka-fiais-to,la-ka-fiais-to,la-ka-fi-ais-to,la-ka-fia-is-to,-0.356481467,-0.103703732,1,0,0,1.8844,text_option_1,,0,165,165,10,1
5ada203ce34a050001b85276,63f3cfca20052e4ae7554ebf,6453cbd778f964ec0dbb3a30,2023-05-04_17h14.54.895,ga_syllabified_check,2022.2.5,Win32,60.0276127,,,,,,,,,,,,,,./stim/p07_syllable_1_lakapuaisto_hit.wav,p07,lakapuaisto,hit,la-ka-puais-to,la-ka-puais-to,la-ka-pu-ais-to,la-ka-pua-is-to,-0.338888889,-0.117592621,1,0,0,3.8649,text_option_1,,0,166,166,153,1
5ada203ce34a050001b85276,63f3cfca20052e4ae7554ebf,6453cbd778f964ec0dbb3a30,2023-05-04_17h14.54.895,ga_syllabified_check,2022.2.5,Win32,60.0276127,,,,,,,,,,,,,,./stim/p08_syllable_1_palutrauco_hit.wav,p08,palutrauco,hit,pa-lu-trau-ko,pa-lu-trau-co,pa-lu-tra-u-co, ,-0.324074046,-0.114814843,1,0,0,4.2543,text_option_1,,0,167,167,199,1
5ada203ce34a050001b85276,63f3cfca20052e4ae7554ebf,6453cbd778f964ec0dbb3a30,2023-05-04_17h14.54.895,ga_syllabified_check,2022.2.5,Win32,60.0276127,,,,,,,,,,,,,,./stim/p06_syllable_1_costonhialo_hit.wav,p06,costoñialo,hit,cos-to-nhia-lo,cos-to-ñia-lo,cos-to-ñi-a-lo, ,-0.319444444,-0.092592621,1,0,0,2.7816,text_option_1,,0,168,168,103,1
5ada203ce34a050001b85276,63f3cfca20052e4ae7554ebf,6453cbd778f964ec0dbb3a30,2023-05-04_17h14.54.895,ga_syllabified_check,2022.2.5,Win32,60.0276127,,,,,,,,,,,,,,./stim/p04_syllable_1_tuliafo_hit.wav,p04,tuliafo,hit,tu-lia-fo,tu-lia-fo,tu-li-a-fo, ,-0.41851849,-0.104629644,1,0,0,1.0187,text_option_1,,0,169,169,67,1
5ada203ce34a050001b85276,63f3cfca20052e4ae7554ebf,6453cbd778f964ec0dbb3a30,2023-05-04_17h14.54.895,ga_syllabified_check,2022.2.5,Win32,60.0276127,,,,,,,,,,,,,,./stim/p07_syllable_1_lakafuaisto_hit.wav,p07,lakafuaisto,hit,la-ka-fuais-to,la-ka-fuais-to,la-ka-fu-ais-to,la-ka-fua-is-to,-0.324074046,-0.109259288,1,0,0,2.1485,text_option_1,,0,170,170,147,1
5ada203ce34a050001b85276,63f3cfca20052e4ae7554ebf,6453cbd778f964ec0dbb3a30,2023-05-04_17h14.54.895,ga_syllabified_check,2022.2.5,Win32,60.0276127,,,,,,,,,,,,,,./stim/p03_syllable_1_ruyiola_hit.wav,p03,ruyiola,hit,ru-yio-la,ru-yio-la,ru-yi-o-la, ,-0.382407379,-0.091666667,1,0,0,1.3828,text_option_1,,0,171,171,32,1
5ada203ce34a050001b85276,63f3cfca20052e4ae7554ebf,6453cbd778f964ec0dbb3a30,2023-05-04_17h14.54.895,ga_syllabified_check,2022.2.5,Win32,60.0276127,,,,,,,,,,,,,,./stim/p06_syllable_1_lakabuaisto_hit.wav,p06,lakabuaisto,hit,la-ka-bu-a-is,la-ka-buais-to,la-ka-bu-ais-to,la-ka-bua-is-to,0.35,-0.103703732,1,0,0,5.7459,text_option_2,,0,172,172,109,1
5ada203ce34a050001b85276,63f3cfca20052e4ae7554ebf,6453cbd778f964ec0dbb3a30,2023-05-04_17h14.54.895,ga_syllabified_check,2022.2.5,Win32,60.0276127,,,,,,,,,,,,,,./stim/p06_syllable_1_lakadiaisto_hit.wav,p06,lakadiaisto,hit,la-ka-dia-is-to,la-ka-diais-to,la-ka-di-ais-to,la-ka-dia-is-to,0.041666667,-0.093518533,1,0,0,3.5469,text_option_3,,0,173,173,110,1
5ada203ce34a050001b85276,63f3cfca20052e4ae7554ebf,6453cbd778f964ec0dbb3a30,2023-05-04_17h14.54.895,ga_syllabified_check,2022.2.5,Win32,60.0276127,,,,,,,,,,,,,,./stim/p08_syllable_1_lakabiaisto_hit.wav,p08,lakabiaisto,hit,la-ka-bi-as-to,la-ka-biais-to,la-ka-bi-ais-to,la-ka-bia-is-to,0.337037065,-0.098148176,1,0,0,3.5984,text_option_2,,0,174,174,176,1
5ada203ce34a050001b85276,63f3cfca20052e4ae7554ebf,6453cbd778f964ec0dbb3a30,2023-05-04_17h14.54.895,ga_syllabified_check,2022.2.5,Win32,60.0276127,,,,,,,,,,,,,,./stim/p05_syllable_1_lakafuaisto_hit.wav,p05,lakafuaisto,hit,la-ka-fais-to,la-ka-fuais-to,la-ka-fu-ais-to,la-ka-fua-is-to,-0.320370356,-0.092592621,1,0,0,1.9487,text_option_1,,0,175,175,79,1
5ada203ce34a050001b85276,63f3cfca20052e4ae7554ebf,6453cbd778f964ec0dbb3a30,2023-05-04_17h14.54.895,ga_syllabified_check,2022.2.5,Win32,60.0276127,,,,,,,,,,,,,,./stim/p07_syllable_1_pachialo_hit.wav,p07,pachialo,hit,pa-cha-lo,pa-chia-lo,pa-chi-a-lo, ,-0.320370356,-0.109259288,1,0,0,2.8345,text_option_1,,0,176,176,160,1
5ada203ce34a050001b85276,63f3cfca20052e4ae7554ebf,6453cbd778f964ec0dbb3a30,2023-05-04_17h14.54.895,ga_syllabified_check,2022.2.5,Win32,60.0276127,,,,,,,,,,,,,,./stim/p06_syllable_1_pachialo_hit.wav,p06,pachialo,hit,pa-shi-a-lo,pa-chia-lo,pa-chi-a-lo, ,0.337963019,-0.10648151,1,0,0,1.4999,text_option_2,,0,177,177,126,1
5ada203ce34a050001b85276,63f3cfca20052e4ae7554ebf,6453cbd778f964ec0dbb3a30,2023-05-04_17h14.54.895,ga_syllabified_check,2022.2.5,Win32,60.0276127,,,,,,,,,,,,,,./stim/p08_syllable_1_lakafiaisto_hit.wav,p08,lakafiaisto,hit,la-ka-fi-as-to,la-ka-fiais-to,la-ka-fi-ais-to,la-ka-fia-is-to,0.361111111,-0.095370399,1,0,0,3.364,text_option_2,,0,178,178,180,1
5ada203ce34a050001b85276,63f3cfca20052e4ae7554ebf,6453cbd778f964ec0dbb3a30,2023-05-04_17h14.54.895,ga_syllabified_check,2022.2.5,Win32,60.0276127,,,,,,,,,,,,,,./stim/p07_syllable_1_lakafiaisto_hit.wav,p07,lakafiaisto,hit,la-ka-fiais-to,la-ka-fiais-to,la-ka-fi-ais-to,la-ka-fia-is-to,0.360185242,-0.10648151,1,0,0,3.426,text_option_2,,0,179,179,146,1
5ada203ce34a050001b85276,63f3cfca20052e4ae7554ebf,6453cbd778f964ec0dbb3a30,2023-05-04_17h14.54.895,ga_syllabified_check,2022.2.5,Win32,60.0276127,,,,,,,,,,,,,,./stim/p08_syllable_1_ruyiola_hit.wav,p08,ruyiola,hit,ru-yio-la,ru-yio-la,ru-yi-o-la, ,0.373148176,-0.102777778,1,0,0,2.409,text_option_2,,0,180,180,202,1
5ada203ce34a050001b85276,63f3cfca20052e4ae7554ebf,6453cbd778f964ec0dbb3a30,2023-05-04_17h14.54.895,ga_syllabified_check,2022.2.5,Win32,60.0276127,,,,,,,,,,,,,,./stim/p06_syllable_1_lakakuaisto_hit.wav,p06,lakakuaisto,hit,la-ka-ku-a-is,la-ka-kuais-to,la-ka-ku-ais-to,la-ka-kua-is-to,0.393518575,-0.108333333,1,0,0,4.2803,text_option_2,,0,181,181,117,1
5ada203ce34a050001b85276,63f3cfca20052e4ae7554ebf,6453cbd778f964ec0dbb3a30,2023-05-04_17h14.54.895,ga_syllabified_check,2022.2.5,Win32,60.0276127,,,,,,,,,,,,,,./stim/p07_syllable_1_palufauto_hit.wav,p07,palufauto,hit,pa-lu-fau-to,pa-lu-fau-to,pa-lu-fa-u-to, ,-0.387962935,-0.122222222,1,0,0,2.0562,text_option_1,,0,182,182,162,1
5ada203ce34a050001b85276,63f3cfca20052e4ae7554ebf,6453cbd778f964ec0dbb3a30,2023-05-04_17h14.54.895,ga_syllabified_check,2022.2.5,Win32,60.0276127,,,,,,,,,,,,,,./stim/p07_syllable_1_lakatuaisto_hit.wav,p07,lakatuaisto,hit,la-ka-tuais-to,la-ka-tuais-to,la-ka-tu-ais-to,la-ka-tua-is-to,-0.336111111,-0.101851866,1,0,0,2.6901,text_option_1,,0,183,183,155,1
5ada203ce34a050001b85276,63f3cfca20052e4ae7554ebf,6453cbd778f964ec0dbb3a30,2023-05-04_17h14.54.895,ga_syllabified_check,2022.2.5,Win32,60.0276127,,,,,,,,,,,,,,./stim/p07_syllable_1_tuliafo_hit.wav,p07,tuliafo,hit,tu-lia-fo,tu-lia-fo,tu-li-a-fo, ,-0.395370356,-0.102777778,1,0,0,1.5323,text_option_1,,0,184,184,169,1
5ada203ce34a050001b85276,63f3cfca20052e4ae7554ebf,6453cbd778f964ec0dbb3a30,2023-05-04_17h14.54.895,ga_syllabified_check,2022.2.5,Win32,60.0276127,,,,,,,,,,,,,,./stim/p04_syllable_1_falutraigo_hit.wav,p04,falutraigo,hit,fa-lu-trai-go,fa-lu-trai-go,fa-lu-tra-i-go, ,-0.351851824,-0.102777778,1,0,0,1.8317,text_option_1,,0,185,185,38,1
5ada203ce34a050001b85276,63f3cfca20052e4ae7554ebf,6453cbd778f964ec0dbb3a30,2023-05-04_17h14.54.895,ga_syllabified_check,2022.2.5,Win32,60.0276127,,,,,,,,,,,,,,./stim/p06_syllable_1_lakabiaisto_hit.wav,p06,lakabiaisto,hit,la-ka-bia-is-to,la-ka-biais-to,la-ka-bi-ais-to,la-ka-bia-is-to,0.03148151,-0.108333333,1,0,0,4.0834,text_option_3,,0,186,186,108,1
5ada203ce34a050001b85276,63f3cfca20052e4ae7554ebf,6453cbd778f964ec0dbb3a30,2023-05-04_17h14.54.895,ga_syllabified_check,2022.2.5,Win32,60.0276127,,,,,,,,,,,,,,./stim/p04_syllable_1_lakakiaisto_hit.wav,p04,lakakiaisto,hit,la-ka-kiais-to,la-ka-kiais-to,la-ka-ki-ais-to,la-ka-kia-is-to,-0.299074046,-0.105555556,1,0,0,2.0486,text_option_1,,0,187,187,48,1
5ada203ce34a050001b85276,63f3cfca20052e4ae7554ebf,6453cbd778f964ec0dbb3a30,2023-05-04_17h14.54.895,ga_syllabified_check,2022.2.5,Win32,60.0276127,,,,,,,,,,,,,,./stim/p05_syllable_1_tuliafo_hit.wav,p05,tuliafo,hit,tu-lai-fo,tu-lia-fo,tu-li-a-fo, ,0.338888889,-0.116666667,1,0,0,1.3327,text_option_2,,0,188,188,101,1
5ada203ce34a050001b85276,63f3cfca20052e4ae7554ebf,6453cbd778f964ec0dbb3a30,2023-05-04_17h14.54.895,ga_syllabified_check,2022.2.5,Win32,60.0276127,,,,,,,,,,,,,,./stim/p07_syllable_1_ruyiola_hit.wav,p07,ruyiola,hit,ru-yio-la,ru-yio-la,ru-yi-o-la, ,-0.342592578,-0.10648151,1,0,0,1.7992,text_option_1,,0,189,189,168,1
5ada203ce34a050001b85276,63f3cfca20052e4ae7554ebf,6453cbd778f964ec0dbb3a30,2023-05-04_17h14.54.895,ga_syllabified_check,2022.2.5,Win32,60.0276127,,,,,,,,,,,,,,./stim/p05_syllable_1_manhiala_hit.wav,p05,mañiala,hit,ma-nhia-la,ma-ñia-la,ma-ñi-a-la, ,0.341666667,-0.101851866,1,0,0,2.4836,text_option_2,,0,190,190,89,1
5ada203ce34a050001b85276,63f3cfca20052e4ae7554ebf,6453cbd778f964ec0dbb3a30,2023-05-04_17h14.54.895,ga_syllabified_check,2022.2.5,Win32,60.0276127,,,,,,,,,,,,,,./stim/p03_syllable_1_lakatiaisto_hit.wav,p03,lakatiaisto,hit,la-ka-tiais-to,la-ka-tiais-to,la-ka-ti-ais-to,la-ka-tia-is-to,-0.324074046,-0.111111111,1,0,0,1.9653,text_option_1,,0,191,191,18,1
5ada203ce34a050001b85276,63f3cfca20052e4ae7554ebf,6453cbd778f964ec0dbb3a30,2023-05-04_17h14.54.895,ga_syllabified_check,2022.2.5,Win32,60.0276127,,,,,,,,,,,,,,./stim/p05_syllable_1_lakatiaisto_hit.wav,p05,lakatiaisto,hit,la-ka-ti-ais-to,la-ka-tiais-to,la-ka-ti-ais-to,la-ka-tia-is-to,0.429629686,-0.101851866,1,0,0,2.9976,text_option_2,,0,192,192,86,1
5ada203ce34a050001b85276,63f3cfca20052e4ae7554ebf,6453cbd778f964ec0dbb3a30,2023-05-04_17h14.54.895,ga_syllabified_check,2022.2.5,Win32,60.0276127,,,,,,,,,,,,,,./stim/p08_syllable_1_lakatiaisto_hit.wav,p08,lakatiaisto,hit,la-ka-ti-as-to,la-ka-tiais-to,la-ka-ti-ais-to,la-ka-tia-is-to,0.062963019,-0.103703732,1,0,0,4.5689,text_option_3,,0,193,193,188,1
5ada203ce34a050001b85276,63f3cfca20052e4ae7554ebf,6453cbd778f964ec0dbb3a30,2023-05-04_17h14.54.895,ga_syllabified_check,2022.2.5,Win32,60.0276127,,,,,,,,,,,,,,./stim/p06_syllable_1_manhiala_hit.wav,p06,mañiala,hit,ma-nhi-a-la,ma-ñia-la,ma-ñi-a-la, ,0.362037065,-0.116666667,1,0,0,2.1925,text_option_2,,0,194,194,123,1
5ada203ce34a050001b85276,63f3cfca20052e4ae7554ebf,6453cbd778f964ec0dbb3a30,2023-05-04_17h14.54.895,ga_syllabified_check,2022.2.5,Win32,60.0276127,,,,,,,,,,,,,,./stim/p04_syllable_1_nhiape_hit.wav,p04,ñiape,hit,nhia-pe,ñia-pe,ñi-a-pe, ,-0.392592578,-0.100925954,1,0,0,1.9969,text_option_1,,0,195,195,57,1
5ada203ce34a050001b85276,63f3cfca20052e4ae7554ebf,6453cbd778f964ec0dbb3a30,2023-05-04_17h14.54.895,ga_syllabified_check,2022.2.5,Win32,60.0276127,,,,,,,,,,,,,,./stim/p08_syllable_1_tuliafo_hit.wav,p08,tuliafo,hit,tu-li-a-fo,tu-lia-fo,tu-li-a-fo, ,0.374074131,-0.100925954,1,0,0,3.847,text_option_2,,0,196,196,203,1
5ada203ce34a050001b85276,63f3cfca20052e4ae7554ebf,6453cbd778f964ec0dbb3a30,2023-05-04_17h14.54.895,ga_syllabified_check,2022.2.5,Win32,60.0276127,,,,,,,,,,,,,,./stim/p06_syllable_1_falufaisto_hit.wav,p06,falufaisto,hit,fa-lu-fa-is-to,fa-lu-fais-to,fa-lu-fa-is-to, ,0.336111111,-0.115740755,1,0,0,2.657,text_option_2,,0,197,197,105,1
5ada203ce34a050001b85276,63f3cfca20052e4ae7554ebf,6453cbd778f964ec0dbb3a30,2023-05-04_17h14.54.895,ga_syllabified_check,2022.2.5,Win32,60.0276127,,,,,,,,,,,,,,./stim/p03_syllable_1_nhiape_hit.wav,p03,ñiape,hit,nhia-pe,ñia-pe,ñi-a-pe, ,-0.360185157,-0.10648151,1,0,0,1.0495,text_option_1,,0,198,198,23,1
5ada203ce34a050001b85276,63f3cfca20052e4ae7554ebf,6453cbd778f964ec0dbb3a30,2023-05-04_17h14.54.895,ga_syllabified_check,2022.2.5,Win32,60.0276127,,,,,,,,,,,,,,./stim/p08_syllable_1_lakapuaisto_hit.wav,p08,lakapuaisto,hit,la-ka-pu-as-to,la-ka-puais-to,la-ka-pu-ais-to,la-ka-pua-is-to,0.387963019,-0.107407422,1,0,0,6.4618,text_option_2,,0,199,199,187,1
5ada203ce34a050001b85276,63f3cfca20052e4ae7554ebf,6453cbd778f964ec0dbb3a30,2023-05-04_17h14.54.895,ga_syllabified_check,2022.2.5,Win32,60.0276127,,,,,,,,,,,,,,./stim/p06_syllable_1_mebochiana_hit.wav,p06,mebochiana,hit,me-bo-shi-a-na,me-bo-chia-na,me-bo-chi-a-na, ,0.40648151,-0.105555556,1,0,0,3.5179,text_option_2,,0,200,200,124,1
5ada203ce34a050001b85276,63f3cfca20052e4ae7554ebf,6453cbd778f964ec0dbb3a30,2023-05-04_17h14.54.895,ga_syllabified_check,2022.2.5,Win32,60.0276127,,,,,,,,,,,,,,./stim/p03_syllable_1_lliape_hit.wav,p03,lliape,hit,llia,llia-pe,lli-a-pe, ,-0.42870369,-0.102777778,1,0,0,1.2329,text_option_1,,0,201,201,20,1
5ada203ce34a050001b85276,63f3cfca20052e4ae7554ebf,6453cbd778f964ec0dbb3a30,2023-05-04_17h14.54.895,ga_syllabified_check,2022.2.5,Win32,60.0276127,,,,,,,,,,,,,,./stim/p05_syllable_1_payielo_hit.wav,p05,payielo,hit,pai-yu-we-lo,pa-yie-lo,pa-yi-e-lo, ,0.367592621,-0.117592621,1,0,0,1.2643,text_option_2,,0,202,202,98,1
5ada203ce34a050001b85276,63f3cfca20052e4ae7554ebf,6453cbd778f964ec0dbb3a30,2023-05-04_17h14.54.895,ga_syllabified_check,2022.2.5,Win32,60.0276127,,,,,,,,,,,,,,./stim/p05_syllable_1_costonhialo_hit.wav,p05,costoñialo,hit,cos-to-nhia-lo,cos-to-ñia-lo,cos-to-ñi-a-lo, ,0.350925954,-0.097222222,1,0,0,1.8667,text_option_2,,0,203,203,69,1
5ada203ce34a050001b85276,63f3cfca20052e4ae7554ebf,6453cbd778f964ec0dbb3a30,2023-05-04_17h14.54.895,ga_syllabified_check,2022.2.5,Win32,60.0276127,,,,,,,,,,,,,,,,,,,,,,,,,,,,,,,,,,
