participant,study,session,date,expName,psychopyVersion,OS,frameRate,mouse_practice.x,mouse_practice.y,mouse_practice.leftButton,mouse_practice.midButton,mouse_practice.rightButton,mouse_practice.time,mouse_practice.clicked_name,textbox_followup_practice.text,trials_practice.thisRepN,trials_practice.thisTrialN,trials_practice.thisN,trials_practice.thisIndex,trials_practice.ran,file_path,id,item,status,response,op1,op2,op3,mouse.x,mouse.y,mouse.leftButton,mouse.midButton,mouse.rightButton,mouse.time,mouse.clicked_name,textbox_followup.text,trials.thisRepN,trials.thisTrialN,trials.thisN,trials.thisIndex,trials.ran
5b376f54cf5e6a00018309ef,63f3cfca20052e4ae7554ebf,6453c703568e34be7f8be055,2023-05-04_16h54.55.857,ga_syllabified_check,2022.2.5,Win32,59.99520038,,,,,,,,,,,,,,,,,,,,,,,,,,,,,,,,,,
5b376f54cf5e6a00018309ef,63f3cfca20052e4ae7554ebf,6453c703568e34be7f8be055,2023-05-04_16h54.55.857,ga_syllabified_check,2022.2.5,Win32,59.99520038,-0.38703703,-0.103703746,1,0,0,3.9163,text_option_1_practice,,0,0,0,0,1,./stim/p03_syllable_1_liamo_hit.wav,p03,liamo,hit,lia-mo,lia-mo,li-a-mo, ,,,,,,,,,,,,,
5b376f54cf5e6a00018309ef,63f3cfca20052e4ae7554ebf,6453c703568e34be7f8be055,2023-05-04_16h54.55.857,ga_syllabified_check,2022.2.5,Win32,59.99520038,-0.373148141,-0.102777764,1,0,0,3.65,text_option_1_practice,,0,1,1,1,1,./stim/p05_syllable_1_matio_hit.wav,p05,matio,hit,ma-tio,ma-tio,ma-ti-o, ,,,,,,,,,,,,,
5b376f54cf5e6a00018309ef,63f3cfca20052e4ae7554ebf,6453c703568e34be7f8be055,2023-05-04_16h54.55.857,ga_syllabified_check,2022.2.5,Win32,59.99520038,0.3648149,-0.090740734,1,0,0,8.417,text_option_2_practice,,0,2,2,2,1,./stim/p08_syllable_1_liamo_hit.wav,p08,liamo,hit,ja-mo,lia-mo,li-a-mo, ,,,,,,,,,,,,,
5b376f54cf5e6a00018309ef,63f3cfca20052e4ae7554ebf,6453c703568e34be7f8be055,2023-05-04_16h54.55.857,ga_syllabified_check,2022.2.5,Win32,59.99520038,,,,,,,,,,,,,,,,,,,,,,,,,,,,,,,,,,
5b376f54cf5e6a00018309ef,63f3cfca20052e4ae7554ebf,6453c703568e34be7f8be055,2023-05-04_16h54.55.857,ga_syllabified_check,2022.2.5,Win32,59.99520038,,,,,,,,,,,,,,./stim/p08_syllable_1_falutraigo_hit.wav,p08,falutraigo,hit,fa-lu-trai-go,fa-lu-trai-go,fa-lu-tra-i-go, ,-0.350925905,-0.108333376,1,0,0,4.901,text_option_1,,0,0,0,174,1
5b376f54cf5e6a00018309ef,63f3cfca20052e4ae7554ebf,6453c703568e34be7f8be055,2023-05-04_16h54.55.857,ga_syllabified_check,2022.2.5,Win32,59.99520038,,,,,,,,,,,,,,./stim/p03_syllable_1_lakafiaisto_hit.wav,p03,lakafiaisto,hit,la-ka-fiais-to,la-ka-fiais-to,la-ka-fi-ais-to,la-ka-fia-is-to,-0.373148141,-0.107407393,1,0,0,2.85,text_option_1,,0,1,1,10,1
5b376f54cf5e6a00018309ef,63f3cfca20052e4ae7554ebf,6453c703568e34be7f8be055,2023-05-04_16h54.55.857,ga_syllabified_check,2022.2.5,Win32,59.99520038,,,,,,,,,,,,,,./stim/p05_syllable_1_lakapiaisto_hit.wav,p05,lakapiaisto,hit,la-ka-pais-to,la-ka-piais-to,la-ka-pi-ais-to,la-ka-pia-is-to,-0.3675926,-0.112963005,1,0,0,5.2673,text_option_1,,0,2,2,84,1
5b376f54cf5e6a00018309ef,63f3cfca20052e4ae7554ebf,6453c703568e34be7f8be055,2023-05-04_16h54.55.857,ga_syllabified_check,2022.2.5,Win32,59.99520038,,,,,,,,,,,,,,./stim/p06_syllable_1_lakabuaisto_hit.wav,p06,lakabuaisto,hit,la-ka-bu-a-is,la-ka-buais-to,la-ka-bu-ais-to,la-ka-bua-is-to,0.36018527,-0.119444459,1,0,0,9.3837,text_option_2,,0,3,3,109,1
5b376f54cf5e6a00018309ef,63f3cfca20052e4ae7554ebf,6453c703568e34be7f8be055,2023-05-04_16h54.55.857,ga_syllabified_check,2022.2.5,Win32,59.99520038,,,,,,,,,,,,,,./stim/p07_syllable_1_flauro_hit.wav,p07,flauro,hit,flau-ro,flau-ro,fla-u-ro, ,-0.401851831,-0.107407393,1,0,0,1.3,text_option_1,,0,4,4,141,1
5b376f54cf5e6a00018309ef,63f3cfca20052e4ae7554ebf,6453c703568e34be7f8be055,2023-05-04_16h54.55.857,ga_syllabified_check,2022.2.5,Win32,59.99520038,,,,,,,,,,,,,,./stim/p08_syllable_1_palutrauco_hit.wav,p08,palutrauco,hit,pa-lu-trau-ko,pa-lu-trau-co,pa-lu-tra-u-co, ,-0.36296297,-0.104629658,1,0,0,3.5835,text_option_1,,0,5,5,199,1
5b376f54cf5e6a00018309ef,63f3cfca20052e4ae7554ebf,6453c703568e34be7f8be055,2023-05-04_16h54.55.857,ga_syllabified_check,2022.2.5,Win32,59.99520038,,,,,,,,,,,,,,./stim/p04_syllable_1_palutrauco_hit.wav,p04,palutrauco,hit,pa-lu-trau-co,pa-lu-trau-co,pa-lu-tra-u-co, ,-0.342592593,-0.109259288,1,0,0,2.1666,text_option_1,,0,6,6,63,1
5b376f54cf5e6a00018309ef,63f3cfca20052e4ae7554ebf,6453c703568e34be7f8be055,2023-05-04_16h54.55.857,ga_syllabified_check,2022.2.5,Win32,59.99520038,,,,,,,,,,,,,,./stim/p05_syllable_1_palumaisto_hit.wav,p05,palumaisto,hit,pa-lu-mais-to,pa-lu-mais-to,pa-lu-ma-is-to, ,-0.341666645,-0.113888917,1,0,0,2.1168,text_option_1,,0,7,7,96,1
5b376f54cf5e6a00018309ef,63f3cfca20052e4ae7554ebf,6453c703568e34be7f8be055,2023-05-04_16h54.55.857,ga_syllabified_check,2022.2.5,Win32,59.99520038,,,,,,,,,,,,,,./stim/p04_syllable_1_lakaduaisto_hit.wav,p04,lakaduaisto,hit,la-ka-duais-to,la-ka-duais-to,la-ka-du-ais-to,la-ka-dua-is-to,-0.40648146,-0.10092594,1,0,0,1.1831,text_option_1,,0,8,8,43,1
5b376f54cf5e6a00018309ef,63f3cfca20052e4ae7554ebf,6453c703568e34be7f8be055,2023-05-04_16h54.55.857,ga_syllabified_check,2022.2.5,Win32,59.99520038,,,,,,,,,,,,,,./stim/p03_syllable_1_lliape_hit.wav,p03,lliape,hit,llia,llia-pe,lli-a-pe, ,-0.408333319,-0.098148134,1,0,0,1.5676,text_option_1,,0,9,9,20,1
5b376f54cf5e6a00018309ef,63f3cfca20052e4ae7554ebf,6453c703568e34be7f8be055,2023-05-04_16h54.55.857,ga_syllabified_check,2022.2.5,Win32,59.99520038,,,,,,,,,,,,,,./stim/p08_syllable_1_chiaba_hit.wav,p08,chiaba,hit,chi-a-ba,chia-ba,chi-a-ba, ,0.400925954,-0.112963005,1,0,0,1.7167,text_option_2,,0,10,10,170,1
5b376f54cf5e6a00018309ef,63f3cfca20052e4ae7554ebf,6453c703568e34be7f8be055,2023-05-04_16h54.55.857,ga_syllabified_check,2022.2.5,Win32,59.99520038,,,,,,,,,,,,,,./stim/p04_syllable_1_rausto_hit.wav,p04,rausto,hit,raus-to,raus-to,ra-us-to, ,-0.387962942,-0.092592593,1,0,0,0.9834,text_option_1,,0,11,11,65,1
5b376f54cf5e6a00018309ef,63f3cfca20052e4ae7554ebf,6453c703568e34be7f8be055,2023-05-04_16h54.55.857,ga_syllabified_check,2022.2.5,Win32,59.99520038,,,,,,,,,,,,,,./stim/p08_syllable_1_lliape_hit.wav,p08,lliape,hit,li-a-pe,llia-pe,lli-a-pe, ,0.425925926,-0.098148134,1,0,0,1.9847,text_option_2,,0,12,12,190,1
5b376f54cf5e6a00018309ef,63f3cfca20052e4ae7554ebf,6453c703568e34be7f8be055,2023-05-04_16h54.55.857,ga_syllabified_check,2022.2.5,Win32,59.99520038,,,,,,,,,,,,,,./stim/p05_syllable_1_manhiala_hit.wav,p05,mañiala,hit,ma-nhia-la,ma-ñia-la,ma-ñi-a-la, ,-0.328703704,-0.115740741,1,0,0,2.5003,text_option_1,,0,13,13,89,1
5b376f54cf5e6a00018309ef,63f3cfca20052e4ae7554ebf,6453c703568e34be7f8be055,2023-05-04_16h54.55.857,ga_syllabified_check,2022.2.5,Win32,59.99520038,,,,,,,,,,,,,,./stim/p05_syllable_1_mebochiana_hit.wav,p05,mebochiana,hit,me-cho-chai-na,me-bo-chia-na,me-bo-chi-a-na, ,-0.062962921,-0.309259273,1,0,0,3.8838,text_option_other,machochaina,0,14,14,90,1
5b376f54cf5e6a00018309ef,63f3cfca20052e4ae7554ebf,6453c703568e34be7f8be055,2023-05-04_16h54.55.857,ga_syllabified_check,2022.2.5,Win32,59.99520038,,,,,,,,,,,,,,./stim/p03_syllable_1_mebochiana_hit.wav,p03,mebochiana,hit,me-bo-chia-na,me-bo-chia-na,me-bo-chi-a-na, ,-0.372222229,-0.106481481,1,0,0,3.7332,text_option_1,,0,15,15,22,1
5b376f54cf5e6a00018309ef,63f3cfca20052e4ae7554ebf,6453c703568e34be7f8be055,2023-05-04_16h54.55.857,ga_syllabified_check,2022.2.5,Win32,59.99520038,,,,,,,,,,,,,,./stim/p08_syllable_1_lakakiaisto_hit.wav,p08,lakakiaisto,hit,la-ka-ki-jas-to,la-ka-kiais-to,la-ka-ki-ais-to,la-ka-kia-is-to,-0.329629616,-0.106481481,1,0,0,10.5008,text_option_1,,0,16,16,184,1
5b376f54cf5e6a00018309ef,63f3cfca20052e4ae7554ebf,6453c703568e34be7f8be055,2023-05-04_16h54.55.857,ga_syllabified_check,2022.2.5,Win32,59.99520038,,,,,,,,,,,,,,./stim/p06_syllable_1_falutraigo_hit.wav,p06,falutraigo,hit,fa-lu-tra-i-go,fa-lu-trai-go,fa-lu-tra-i-go, ,0.435185185,-0.106481481,1,0,0,3.6999,text_option_2,,0,17,17,106,1
5b376f54cf5e6a00018309ef,63f3cfca20052e4ae7554ebf,6453c703568e34be7f8be055,2023-05-04_16h54.55.857,ga_syllabified_check,2022.2.5,Win32,59.99520038,,,,,,,,,,,,,,./stim/p05_syllable_1_palufauro_hit.wav,p05,palufauro,hit,pa-lu-fau-ro,pa-lu-fau-ro,pa-lu-fa-u-ro, ,-0.337962963,-0.118518547,1,0,0,2.6836,text_option_1,,0,18,18,93,1
5b376f54cf5e6a00018309ef,63f3cfca20052e4ae7554ebf,6453c703568e34be7f8be055,2023-05-04_16h54.55.857,ga_syllabified_check,2022.2.5,Win32,59.99520038,,,,,,,,,,,,,,./stim/p03_syllable_1_lakatuaisto_hit.wav,p03,lakatuaisto,hit,la-ka-tuais-to,la-ka-tuais-to,la-ka-tu-ais-to,la-ka-tua-is-to,-0.348148134,-0.109259288,1,0,0,6.1503,text_option_1,,0,19,19,19,1
5b376f54cf5e6a00018309ef,63f3cfca20052e4ae7554ebf,6453c703568e34be7f8be055,2023-05-04_16h54.55.857,ga_syllabified_check,2022.2.5,Win32,59.99520038,,,,,,,,,,,,,,./stim/p04_syllable_1_flauro_hit.wav,p04,flauro,hit,flau-ro,flau-ro,fla-u-ro, ,-0.348148134,-0.109259288,1,0,0,0.8833,text_option_1,,0,20,20,39,1
5b376f54cf5e6a00018309ef,63f3cfca20052e4ae7554ebf,6453c703568e34be7f8be055,2023-05-04_16h54.55.857,ga_syllabified_check,2022.2.5,Win32,59.99520038,,,,,,,,,,,,,,./stim/p05_syllable_1_rausto_hit.wav,p05,rausto,hit,raus-to,raus-to,ra-us-to, ,-0.348148134,-0.109259288,1,0,0,0.1508,text_option_1,,0,21,21,99,1
5b376f54cf5e6a00018309ef,63f3cfca20052e4ae7554ebf,6453c703568e34be7f8be055,2023-05-04_16h54.55.857,ga_syllabified_check,2022.2.5,Win32,59.99520038,,,,,,,,,,,,,,./stim/p05_syllable_1_costonhialo_hit.wav,p05,costoñialo,hit,cos-to-nhia-lo,cos-to-ñia-lo,cos-to-ñi-a-lo, ,-0.344444452,-0.119444459,1,0,0,1.5848,text_option_1,,0,22,22,69,1
5b376f54cf5e6a00018309ef,63f3cfca20052e4ae7554ebf,6453c703568e34be7f8be055,2023-05-04_16h54.55.857,ga_syllabified_check,2022.2.5,Win32,59.99520038,,,,,,,,,,,,,,./stim/p05_syllable_1_lakapuaisto_hit.wav,p05,lakapuaisto,hit,la-ka-pais-to,la-ka-puais-to,la-ka-pu-ais-to,la-ka-pua-is-to,-0.328703704,-0.114814829,1,0,0,1.7335,text_option_1,,0,23,23,85,1
5b376f54cf5e6a00018309ef,63f3cfca20052e4ae7554ebf,6453c703568e34be7f8be055,2023-05-04_16h54.55.857,ga_syllabified_check,2022.2.5,Win32,59.99520038,,,,,,,,,,,,,,./stim/p06_syllable_1_lliape_hit.wav,p06,lliape,hit,lli-lla-pe,llia-pe,lli-a-pe, ,0.425925926,-0.110185199,1,0,0,1.4843,text_option_2,,0,24,24,122,1
5b376f54cf5e6a00018309ef,63f3cfca20052e4ae7554ebf,6453c703568e34be7f8be055,2023-05-04_16h54.55.857,ga_syllabified_check,2022.2.5,Win32,59.99520038,,,,,,,,,,,,,,./stim/p05_syllable_1_falutraigo_hit.wav,p05,falutraigo,hit,fa-lu-trai-go,fa-lu-trai-go,fa-lu-tra-i-go, ,-0.372222229,-0.118518547,1,0,0,1.3668,text_option_1,,0,25,25,72,1
5b376f54cf5e6a00018309ef,63f3cfca20052e4ae7554ebf,6453c703568e34be7f8be055,2023-05-04_16h54.55.857,ga_syllabified_check,2022.2.5,Win32,59.99520038,,,,,,,,,,,,,,./stim/p06_syllable_1_lakadiaisto_hit.wav,p06,lakadiaisto,hit,la-ka-dia-is-to,la-ka-diais-to,la-ka-di-ais-to,la-ka-dia-is-to,0.030555584,-0.115740741,1,0,0,3.383,text_option_3,,0,26,26,110,1
5b376f54cf5e6a00018309ef,63f3cfca20052e4ae7554ebf,6453c703568e34be7f8be055,2023-05-04_16h54.55.857,ga_syllabified_check,2022.2.5,Win32,59.99520038,,,,,,,,,,,,,,./stim/p03_syllable_1_rausto_hit.wav,p03,rausto,hit,raus-to,raus-to,ra-us-to, ,-0.37962963,-0.106481481,1,0,0,2.1668,text_option_1,,0,27,27,31,1
5b376f54cf5e6a00018309ef,63f3cfca20052e4ae7554ebf,6453c703568e34be7f8be055,2023-05-04_16h54.55.857,ga_syllabified_check,2022.2.5,Win32,59.99520038,,,,,,,,,,,,,,./stim/p05_syllable_1_ruyiola_hit.wav,p05,ruyiola,hit,ru-yio-la,ru-yio-la,ru-yi-o-la, ,-0.338888875,-0.118518547,1,0,0,5.1827,text_option_1,,0,28,28,100,1
5b376f54cf5e6a00018309ef,63f3cfca20052e4ae7554ebf,6453c703568e34be7f8be055,2023-05-04_16h54.55.857,ga_syllabified_check,2022.2.5,Win32,59.99520038,,,,,,,,,,,,,,./stim/p08_syllable_1_palufauto_hit.wav,p08,palufauto,hit,pa-lu-fau-to,pa-lu-fau-to,pa-lu-fa-u-to, ,-0.333333333,-0.102777764,1,0,0,3.3668,text_option_1,,0,29,29,196,1
5b376f54cf5e6a00018309ef,63f3cfca20052e4ae7554ebf,6453c703568e34be7f8be055,2023-05-04_16h54.55.857,ga_syllabified_check,2022.2.5,Win32,59.99520038,,,,,,,,,,,,,,./stim/p06_syllable_1_faluduako_hit.wav,p06,faluduako,hit,fa-lu-dua-ko,fa-lu-dua-ko,fa-lu-du-a-ko, ,0.453703704,-0.109259288,1,0,0,2.8997,text_option_2,,0,30,30,104,1
5b376f54cf5e6a00018309ef,63f3cfca20052e4ae7554ebf,6453c703568e34be7f8be055,2023-05-04_16h54.55.857,ga_syllabified_check,2022.2.5,Win32,59.99520038,,,,,,,,,,,,,,./stim/p08_syllable_1_manhiala_hit.wav,p08,mañiala,hit,ma-nhia-la,ma-ñia-la,ma-ñi-a-la, ,-0.372222229,-0.098148134,1,0,0,1.8012,text_option_1,,0,31,31,191,1
5b376f54cf5e6a00018309ef,63f3cfca20052e4ae7554ebf,6453c703568e34be7f8be055,2023-05-04_16h54.55.857,ga_syllabified_check,2022.2.5,Win32,59.99520038,,,,,,,,,,,,,,./stim/p08_syllable_1_lakafiaisto_hit.wav,p08,lakafiaisto,hit,la-ka-fi-as-to,la-ka-fiais-to,la-ka-fi-ais-to,la-ka-fia-is-to,0.376851824,-0.104629658,1,0,0,7.0168,text_option_2,,0,32,32,180,1
5b376f54cf5e6a00018309ef,63f3cfca20052e4ae7554ebf,6453c703568e34be7f8be055,2023-05-04_16h54.55.857,ga_syllabified_check,2022.2.5,Win32,59.99520038,,,,,,,,,,,,,,./stim/p04_syllable_1_lakapuaisto_hit.wav,p04,lakapuaisto,hit,la-ka-puais-to,la-ka-puais-to,la-ka-pu-ais-to,la-ka-pua-is-to,-0.343518504,-0.115740741,1,0,0,4.2669,text_option_1,,0,33,33,51,1
5b376f54cf5e6a00018309ef,63f3cfca20052e4ae7554ebf,6453c703568e34be7f8be055,2023-05-04_16h54.55.857,ga_syllabified_check,2022.2.5,Win32,59.99520038,,,,,,,,,,,,,,./stim/p04_syllable_1_palumaisto_hit.wav,p04,palumaisto,hit,pa-lu-mais-to,pa-lu-mais-to,pa-lu-ma-is-to, ,-0.359259252,-0.106481481,1,0,0,1.6834,text_option_1,,0,34,34,62,1
5b376f54cf5e6a00018309ef,63f3cfca20052e4ae7554ebf,6453c703568e34be7f8be055,2023-05-04_16h54.55.857,ga_syllabified_check,2022.2.5,Win32,59.99520038,,,,,,,,,,,,,,./stim/p06_syllable_1_lakabiaisto_hit.wav,p06,lakabiaisto,hit,la-ka-bia-is-to,la-ka-biais-to,la-ka-bi-ais-to,la-ka-bia-is-to,0.035185213,-0.106481481,1,0,0,3.7342,text_option_3,,0,35,35,108,1
5b376f54cf5e6a00018309ef,63f3cfca20052e4ae7554ebf,6453c703568e34be7f8be055,2023-05-04_16h54.55.857,ga_syllabified_check,2022.2.5,Win32,59.99520038,,,,,,,,,,,,,,./stim/p08_syllable_1_falufaisto_hit.wav,p08,falufaisto,hit,fa-lu-fais-to,fa-lu-fais-to,fa-lu-fa-is-to, ,-0.361111111,-0.111111111,1,0,0,2.6335,text_option_1,,0,36,36,173,1
5b376f54cf5e6a00018309ef,63f3cfca20052e4ae7554ebf,6453c703568e34be7f8be055,2023-05-04_16h54.55.857,ga_syllabified_check,2022.2.5,Win32,59.99520038,,,,,,,,,,,,,,./stim/p03_syllable_1_pachialo_hit.wav,p03,pachialo,hit,pa-chia-lo,pa-chia-lo,pa-chi-a-lo, ,-0.371296282,-0.108333376,1,0,0,3.7828,text_option_1,,0,37,37,24,1
5b376f54cf5e6a00018309ef,63f3cfca20052e4ae7554ebf,6453c703568e34be7f8be055,2023-05-04_16h54.55.857,ga_syllabified_check,2022.2.5,Win32,59.99520038,,,,,,,,,,,,,,./stim/p05_syllable_1_palutrauco_hit.wav,p05,palutrauco,hit,pa-lu-trai-co,pa-lu-trau-co,pa-lu-tra-u-co, ,-0.324074074,-0.106481481,1,0,0,5.4669,text_option_1,,0,38,38,97,1
5b376f54cf5e6a00018309ef,63f3cfca20052e4ae7554ebf,6453c703568e34be7f8be055,2023-05-04_16h54.55.857,ga_syllabified_check,2022.2.5,Win32,59.99520038,,,,,,,,,,,,,,./stim/p07_syllable_1_palufauro_hit.wav,p07,palufauro,hit,pa-lu-fau-ro,pa-lu-fau-ro,pa-lu-fa-u-ro, ,-0.329629616,-0.115740741,1,0,0,3.1003,text_option_1,,0,39,39,161,1
5b376f54cf5e6a00018309ef,63f3cfca20052e4ae7554ebf,6453c703568e34be7f8be055,2023-05-04_16h54.55.857,ga_syllabified_check,2022.2.5,Win32,59.99520038,,,,,,,,,,,,,,./stim/p05_syllable_1_lakaduaisto_hit.wav,p05,lakaduaisto,hit,la-ka-dais-to,la-ka-duais-to,la-ka-du-ais-to,la-ka-dua-is-to,-0.345370363,-0.113888917,1,0,0,5.0328,text_option_1,,0,40,40,77,1
5b376f54cf5e6a00018309ef,63f3cfca20052e4ae7554ebf,6453c703568e34be7f8be055,2023-05-04_16h54.55.857,ga_syllabified_check,2022.2.5,Win32,59.99520038,,,,,,,,,,,,,,./stim/p04_syllable_1_lakaguaisto_hit.wav,p04,lakaguaisto,hit,la-ka-guais-to,la-ka-guais-to,la-ka-gu-ais-to,la-ka-gua-is-to,-0.357407393,-0.108333376,1,0,0,2.9847,text_option_1,,0,41,41,47,1
5b376f54cf5e6a00018309ef,63f3cfca20052e4ae7554ebf,6453c703568e34be7f8be055,2023-05-04_16h54.55.857,ga_syllabified_check,2022.2.5,Win32,59.99520038,,,,,,,,,,,,,,./stim/p06_syllable_1_palufauto_hit.wav,p06,palufauto,hit,pa-lu-fau-to,pa-lu-fau-to,pa-lu-fa-u-to, ,-0.355555534,-0.10555557,1,0,0,2.8675,text_option_1,,0,42,42,128,1
5b376f54cf5e6a00018309ef,63f3cfca20052e4ae7554ebf,6453c703568e34be7f8be055,2023-05-04_16h54.55.857,ga_syllabified_check,2022.2.5,Win32,59.99520038,,,,,,,,,,,,,,./stim/p04_syllable_1_paluguato_hit.wav,p04,paluguato,hit,pa-lu-gua,pa-lu-gua-to,pa-lu-gu-a-to, ,-0.009259259,-0.300000014,1,0,0,5.6509,text_option_other,palugua,0,43,43,61,1
5b376f54cf5e6a00018309ef,63f3cfca20052e4ae7554ebf,6453c703568e34be7f8be055,2023-05-04_16h54.55.857,ga_syllabified_check,2022.2.5,Win32,59.99520038,,,,,,,,,,,,,,./stim/p07_syllable_1_lakagiaisto_hit.wav,p07,lakagiaisto,hit,la-ka-gais-to,la-ka-giais-to,la-ka-gi-ais-to,la-ka-gia-is-to,-0.029629601,-0.304629644,1,0,0,6.4659,text_option_other,lakagaisto,0,44,44,148,1
5b376f54cf5e6a00018309ef,63f3cfca20052e4ae7554ebf,6453c703568e34be7f8be055,2023-05-04_16h54.55.857,ga_syllabified_check,2022.2.5,Win32,59.99520038,,,,,,,,,,,,,,./stim/p03_syllable_1_lakakiaisto_hit.wav,p03,lakakiaisto,hit,la-ka-kiais-to,la-ka-kiais-to,la-ka-ki-ais-to,la-ka-kia-is-to,-0.337037016,-0.10092594,1,0,0,4.233,text_option_1,,0,45,45,14,1
5b376f54cf5e6a00018309ef,63f3cfca20052e4ae7554ebf,6453c703568e34be7f8be055,2023-05-04_16h54.55.857,ga_syllabified_check,2022.2.5,Win32,59.99520038,,,,,,,,,,,,,,./stim/p07_syllable_1_falufaisto_hit.wav,p07,falufaisto,hit,fa-lu-fais-to,fa-lu-fais-to,fa-lu-fa-is-to, ,-0.36296297,-0.091666681,1,0,0,3.2659,text_option_1,,0,46,46,139,1
5b376f54cf5e6a00018309ef,63f3cfca20052e4ae7554ebf,6453c703568e34be7f8be055,2023-05-04_16h54.55.857,ga_syllabified_check,2022.2.5,Win32,59.99520038,,,,,,,,,,,,,,./stim/p04_syllable_1_lakakiaisto_hit.wav,p04,lakakiaisto,hit,la-ka-kiais-to,la-ka-kiais-to,la-ka-ki-ais-to,la-ka-kia-is-to,-0.36296297,-0.103703746,1,0,0,1.7175,text_option_1,,0,47,47,48,1
5b376f54cf5e6a00018309ef,63f3cfca20052e4ae7554ebf,6453c703568e34be7f8be055,2023-05-04_16h54.55.857,ga_syllabified_check,2022.2.5,Win32,59.99520038,,,,,,,,,,,,,,./stim/p08_syllable_1_lakatiaisto_hit.wav,p08,lakatiaisto,hit,la-ka-ti-as-to,la-ka-tiais-to,la-ka-ti-ais-to,la-ka-tia-is-to,0.001851894,-0.295370384,1,0,0,8.1831,text_option_other,lakatiasto,0,48,48,188,1
5b376f54cf5e6a00018309ef,63f3cfca20052e4ae7554ebf,6453c703568e34be7f8be055,2023-05-04_16h54.55.857,ga_syllabified_check,2022.2.5,Win32,59.99520038,,,,,,,,,,,,,,./stim/p05_syllable_1_lakabiaisto_hit.wav,p05,lakabiaisto,hit,la-ka-bi-ais-to,la-ka-biais-to,la-ka-bi-ais-to,la-ka-bia-is-to,-0.366666653,-0.100000028,1,0,0,2.6831,text_option_1,,0,49,49,74,1
5b376f54cf5e6a00018309ef,63f3cfca20052e4ae7554ebf,6453c703568e34be7f8be055,2023-05-04_16h54.55.857,ga_syllabified_check,2022.2.5,Win32,59.99520038,,,,,,,,,,,,,,./stim/p08_syllable_1_paluguato_hit.wav,p08,paluguato,hit,pa-lu-gua-to,pa-lu-gua-to,pa-lu-gu-a-to, ,-0.338888875,-0.114814829,1,0,0,2.1006,text_option_1,,0,50,50,197,1
5b376f54cf5e6a00018309ef,63f3cfca20052e4ae7554ebf,6453c703568e34be7f8be055,2023-05-04_16h54.55.857,ga_syllabified_check,2022.2.5,Win32,59.99520038,,,,,,,,,,,,,,./stim/p05_syllable_1_nhiape_hit.wav,p05,ñiape,hit,nhia-pe,ñia-pe,ñi-a-pe, ,-0.369444423,-0.101851852,1,0,0,0.9834,text_option_1,,0,51,51,91,1
5b376f54cf5e6a00018309ef,63f3cfca20052e4ae7554ebf,6453c703568e34be7f8be055,2023-05-04_16h54.55.857,ga_syllabified_check,2022.2.5,Win32,59.99520038,,,,,,,,,,,,,,./stim/p05_syllable_1_lakadiaisto_hit.wav,p05,lakadiaisto,hit,la-ka-di-ais-to,la-ka-diais-to,la-ka-di-ais-to,la-ka-dia-is-to,-0.350925905,-0.109259288,1,0,0,2.3334,text_option_1,,0,52,52,76,1
5b376f54cf5e6a00018309ef,63f3cfca20052e4ae7554ebf,6453c703568e34be7f8be055,2023-05-04_16h54.55.857,ga_syllabified_check,2022.2.5,Win32,59.99520038,,,,,,,,,,,,,,./stim/p04_syllable_1_falufaisto_hit.wav,p04,falufaisto,hit,fa-lu-fais-to,fa-lu-fais-to,fa-lu-fa-is-to, ,-0.35833334,-0.08888891,1,0,0,1.249,text_option_1,,0,53,53,37,1
5b376f54cf5e6a00018309ef,63f3cfca20052e4ae7554ebf,6453c703568e34be7f8be055,2023-05-04_16h54.55.857,ga_syllabified_check,2022.2.5,Win32,59.99520038,,,,,,,,,,,,,,./stim/p04_syllable_1_lakatiaisto_hit.wav,p04,lakatiaisto,hit,la-ka-kiais-to,la-ka-tiais-to,la-ka-ti-ais-to,la-ka-tia-is-to,-0.347222222,-0.109259288,1,0,0,3.9506,text_option_1,,0,54,54,52,1
5b376f54cf5e6a00018309ef,63f3cfca20052e4ae7554ebf,6453c703568e34be7f8be055,2023-05-04_16h54.55.857,ga_syllabified_check,2022.2.5,Win32,59.99520038,,,,,,,,,,,,,,./stim/p03_syllable_1_faluduako_hit.wav,p03,faluduako,hit,fa-lu-dua-ko,fa-lu-dua-ko,fa-lu-du-a-ko, ,-0.321296303,-0.109259288,1,0,0,2.5826,text_option_1,,0,55,55,2,1
5b376f54cf5e6a00018309ef,63f3cfca20052e4ae7554ebf,6453c703568e34be7f8be055,2023-05-04_16h54.55.857,ga_syllabified_check,2022.2.5,Win32,59.99520038,,,,,,,,,,,,,,./stim/p06_syllable_1_lakafiaisto_hit.wav,p06,lakafiaisto,hit,la-ka-fia-is-to,la-ka-fiais-to,la-ka-fi-ais-to,la-ka-fia-is-to,0.051851838,-0.10092594,1,0,0,4.099,text_option_3,,0,56,56,112,1
5b376f54cf5e6a00018309ef,63f3cfca20052e4ae7554ebf,6453c703568e34be7f8be055,2023-05-04_16h54.55.857,ga_syllabified_check,2022.2.5,Win32,59.99520038,,,,,,,,,,,,,,./stim/p07_syllable_1_palufauto_hit.wav,p07,palufauto,hit,pa-lu-fau-to,pa-lu-fau-to,pa-lu-fa-u-to, ,-0.343518504,-0.100000028,1,0,0,3.4164,text_option_1,,0,57,57,162,1
5b376f54cf5e6a00018309ef,63f3cfca20052e4ae7554ebf,6453c703568e34be7f8be055,2023-05-04_16h54.55.857,ga_syllabified_check,2022.2.5,Win32,59.99520038,,,,,,,,,,,,,,./stim/p06_syllable_1_nhiape_hit.wav,p06,ñiape,hit,nhi-a-pe,ñia-pe,ñi-a-pe, ,0.446296268,-0.112037023,1,0,0,1.2668,text_option_2,,0,58,58,125,1
5b376f54cf5e6a00018309ef,63f3cfca20052e4ae7554ebf,6453c703568e34be7f8be055,2023-05-04_16h54.55.857,ga_syllabified_check,2022.2.5,Win32,59.99520038,,,,,,,,,,,,,,./stim/p03_syllable_1_lakafuaisto_hit.wav,p03,lakafuaisto,hit,la-ka-fuais-to,la-ka-fuais-to,la-ka-fu-ais-to,la-ka-fua-is-to,-0.341666645,-0.10555557,1,0,0,2.3002,text_option_1,,0,59,59,11,1
5b376f54cf5e6a00018309ef,63f3cfca20052e4ae7554ebf,6453c703568e34be7f8be055,2023-05-04_16h54.55.857,ga_syllabified_check,2022.2.5,Win32,59.99520038,,,,,,,,,,,,,,./stim/p07_syllable_1_payielo_hit.wav,p07,payielo,hit,pa-yie-lo,pa-yie-lo,pa-yi-e-lo, ,-0.401851831,-0.099074116,1,0,0,1.8334,text_option_1,,0,60,60,166,1
5b376f54cf5e6a00018309ef,63f3cfca20052e4ae7554ebf,6453c703568e34be7f8be055,2023-05-04_16h54.55.857,ga_syllabified_check,2022.2.5,Win32,59.99520038,,,,,,,,,,,,,,./stim/p05_syllable_1_lakakuaisto_hit.wav,p05,lakakuaisto,hit,la-ka-kais-to,la-ka-kuais-to,la-ka-ku-ais-to,la-ka-kua-is-to,-0.018518519,-0.292592578,1,0,0,3.0839,text_option_other,lakakaisto,0,61,61,83,1
5b376f54cf5e6a00018309ef,63f3cfca20052e4ae7554ebf,6453c703568e34be7f8be055,2023-05-04_16h54.55.857,ga_syllabified_check,2022.2.5,Win32,59.99520038,,,,,,,,,,,,,,./stim/p06_syllable_1_ruyiola_hit.wav,p06,ruyiola,hit,ru-yi-o-la,ru-yio-la,ru-yi-o-la, ,0.414814843,-0.09629631,1,0,0,2.267,text_option_2,,0,62,62,134,1
5b376f54cf5e6a00018309ef,63f3cfca20052e4ae7554ebf,6453c703568e34be7f8be055,2023-05-04_16h54.55.857,ga_syllabified_check,2022.2.5,Win32,59.99520038,,,,,,,,,,,,,,./stim/p07_syllable_1_palutrauco_hit.wav,p07,palutrauco,hit,pa-lu-trau-co,pa-lu-trau-co,pa-lu-tra-u-co, ,-0.357407393,-0.103703746,1,0,0,1.3996,text_option_1,,0,63,63,165,1
5b376f54cf5e6a00018309ef,63f3cfca20052e4ae7554ebf,6453c703568e34be7f8be055,2023-05-04_16h54.55.857,ga_syllabified_check,2022.2.5,Win32,59.99520038,,,,,,,,,,,,,,./stim/p03_syllable_1_costonhialo_hit.wav,p03,costoñialo,hit,cos-to-nhia-lo,cos-to-ñia-lo,cos-to-ñi-a-lo, ,-0.3675926,-0.095370399,1,0,0,1.1657,text_option_1,,0,64,64,1,1
5b376f54cf5e6a00018309ef,63f3cfca20052e4ae7554ebf,6453c703568e34be7f8be055,2023-05-04_16h54.55.857,ga_syllabified_check,2022.2.5,Win32,59.99520038,,,,,,,,,,,,,,./stim/p04_syllable_1_lakapiaisto_hit.wav,p04,lakapiaisto,hit,la-ka-piais-to,la-ka-piais-to,la-ka-pi-ais-to,la-ka-pia-is-to,-0.324074074,-0.107407393,1,0,0,4.8668,text_option_1,,0,65,65,50,1
5b376f54cf5e6a00018309ef,63f3cfca20052e4ae7554ebf,6453c703568e34be7f8be055,2023-05-04_16h54.55.857,ga_syllabified_check,2022.2.5,Win32,59.99520038,,,,,,,,,,,,,,./stim/p06_syllable_1_lakaguaisto_hit.wav,p06,lakaguaisto,hit,la-ka-gu-a-is,la-ka-guais-to,la-ka-gu-ais-to,la-ka-gua-is-to,-0.02870369,-0.298148191,1,0,0,17.7833,text_option_other,la-ka-gu-a-is-to,0,66,66,115,1
5b376f54cf5e6a00018309ef,63f3cfca20052e4ae7554ebf,6453c703568e34be7f8be055,2023-05-04_16h54.55.857,ga_syllabified_check,2022.2.5,Win32,59.99520038,,,,,,,,,,,,,,./stim/p08_syllable_1_lakapiaisto_hit.wav,p08,lakapiaisto,hit,la-ka-pi-as-to,la-ka-piais-to,la-ka-pi-ais-to,la-ka-pia-is-to,-0.039814772,-0.30277782,1,0,0,4.7148,text_option_other,lakapiasto,0,67,67,186,1
5b376f54cf5e6a00018309ef,63f3cfca20052e4ae7554ebf,6453c703568e34be7f8be055,2023-05-04_16h54.55.857,ga_syllabified_check,2022.2.5,Win32,59.99520038,,,,,,,,,,,,,,./stim/p03_syllable_1_lakaduaisto_hit.wav,p03,lakaduaisto,hit,la-ka-duais-to,la-ka-duais-to,la-ka-du-ais-to,la-ka-dua-is-to,-0.361111111,-0.106481481,1,0,0,3.551,text_option_1,,0,68,68,9,1
5b376f54cf5e6a00018309ef,63f3cfca20052e4ae7554ebf,6453c703568e34be7f8be055,2023-05-04_16h54.55.857,ga_syllabified_check,2022.2.5,Win32,59.99520038,,,,,,,,,,,,,,./stim/p06_syllable_1_mebochiana_hit.wav,p06,mebochiana,hit,me-bo-shi-a-na,me-bo-chia-na,me-bo-chi-a-na, ,0.413888861,-0.099074116,1,0,0,2.8837,text_option_2,,0,69,69,124,1
5b376f54cf5e6a00018309ef,63f3cfca20052e4ae7554ebf,6453c703568e34be7f8be055,2023-05-04_16h54.55.857,ga_syllabified_check,2022.2.5,Win32,59.99520038,,,,,,,,,,,,,,./stim/p03_syllable_1_payielo_hit.wav,p03,payielo,hit,pa-yie-lo,pa-yie-lo,pa-yi-e-lo, ,-0.366666653,-0.112963005,1,0,0,1.1325,text_option_1,,0,70,70,30,1
5b376f54cf5e6a00018309ef,63f3cfca20052e4ae7554ebf,6453c703568e34be7f8be055,2023-05-04_16h54.55.857,ga_syllabified_check,2022.2.5,Win32,59.99520038,,,,,,,,,,,,,,./stim/p03_syllable_1_paluguato_hit.wav,p03,paluguato,hit,pa-lu-gua,pa-lu-gua-to,pa-lu-gu-a-to, ,-0.349999993,-0.100000028,1,0,0,1.9666,text_option_1,,0,71,71,27,1
5b376f54cf5e6a00018309ef,63f3cfca20052e4ae7554ebf,6453c703568e34be7f8be055,2023-05-04_16h54.55.857,ga_syllabified_check,2022.2.5,Win32,59.99520038,,,,,,,,,,,,,,./stim/p05_syllable_1_faluduako_hit.wav,p05,faluduako,hit,fa-lu-ba-ko,fa-lu-dua-ko,fa-lu-du-a-ko, ,-0.312962956,-0.083333333,1,0,0,6.0502,text_option_1,,0,72,72,70,1
5b376f54cf5e6a00018309ef,63f3cfca20052e4ae7554ebf,6453c703568e34be7f8be055,2023-05-04_16h54.55.857,ga_syllabified_check,2022.2.5,Win32,59.99520038,,,,,,,,,,,,,,./stim/p05_syllable_1_lakaguaisto_hit.wav,p05,lakaguaisto,hit,la-ka-gais,la-ka-guais-to,la-ka-gu-ais-to,la-ka-gua-is-to,-0.011111083,-0.298148191,1,0,0,5.4497,text_option_other,lakakaisto,0,73,73,81,1
5b376f54cf5e6a00018309ef,63f3cfca20052e4ae7554ebf,6453c703568e34be7f8be055,2023-05-04_16h54.55.857,ga_syllabified_check,2022.2.5,Win32,59.99520038,,,,,,,,,,,,,,./stim/p06_syllable_1_lakapuaisto_hit.wav,p06,lakapuaisto,hit,la-ka-pu-a-is,la-ka-puais-to,la-ka-pu-ais-to,la-ka-pua-is-to,-0.026851866,-0.288888931,1,0,0,11.8163,text_option_other,la-ka-pu-a-is-to,0,74,74,119,1
5b376f54cf5e6a00018309ef,63f3cfca20052e4ae7554ebf,6453c703568e34be7f8be055,2023-05-04_16h54.55.857,ga_syllabified_check,2022.2.5,Win32,59.99520038,,,,,,,,,,,,,,./stim/p07_syllable_1_lakadiaisto_hit.wav,p07,lakadiaisto,hit,la-ka-dia-is-to,la-ka-diais-to,la-ka-di-ais-to,la-ka-dia-is-to,0.450925898,-0.093518504,1,0,0,5.4495,text_option_2,,0,75,75,144,1
5b376f54cf5e6a00018309ef,63f3cfca20052e4ae7554ebf,6453c703568e34be7f8be055,2023-05-04_16h54.55.857,ga_syllabified_check,2022.2.5,Win32,59.99520038,,,,,,,,,,,,,,./stim/p07_syllable_1_lakabuaisto_hit.wav,p07,lakabuaisto,hit,la-ka-buais-to,la-ka-buais-to,la-ka-bu-ais-to,la-ka-bua-is-to,-0.339814822,-0.104629658,1,0,0,2.2179,text_option_1,,0,76,76,143,1
5b376f54cf5e6a00018309ef,63f3cfca20052e4ae7554ebf,6453c703568e34be7f8be055,2023-05-04_16h54.55.857,ga_syllabified_check,2022.2.5,Win32,59.99520038,,,,,,,,,,,,,,./stim/p04_syllable_1_lakatuaisto_hit.wav,p04,lakatuaisto,hit,la-ka-kuais-to,la-ka-tuais-to,la-ka-tu-ais-to,la-ka-tua-is-to,-0.359259252,-0.111111111,1,0,0,1.0168,text_option_1,,0,77,77,53,1
5b376f54cf5e6a00018309ef,63f3cfca20052e4ae7554ebf,6453c703568e34be7f8be055,2023-05-04_16h54.55.857,ga_syllabified_check,2022.2.5,Win32,59.99520038,,,,,,,,,,,,,,./stim/p04_syllable_1_ruyiola_hit.wav,p04,ruyiola,hit,ru-yio-la,ru-yio-la,ru-yi-o-la, ,-0.390740748,-0.089814822,1,0,0,0.5829,text_option_1,,0,78,78,66,1
5b376f54cf5e6a00018309ef,63f3cfca20052e4ae7554ebf,6453c703568e34be7f8be055,2023-05-04_16h54.55.857,ga_syllabified_check,2022.2.5,Win32,59.99520038,,,,,,,,,,,,,,./stim/p07_syllable_1_lakapiaisto_hit.wav,p07,lakapiaisto,hit,la-ka-pia-sto,la-ka-piais-to,la-ka-pi-ais-to,la-ka-pia-is-to,-0.341666645,-0.102777764,1,0,0,5.3165,text_option_1,,0,79,79,152,1
5b376f54cf5e6a00018309ef,63f3cfca20052e4ae7554ebf,6453c703568e34be7f8be055,2023-05-04_16h54.55.857,ga_syllabified_check,2022.2.5,Win32,59.99520038,,,,,,,,,,,,,,./stim/p07_syllable_1_lliape_hit.wav,p07,lliape,hit,lliai-pe,llia-pe,lli-a-pe, ,-0.371296282,-0.109259288,1,0,0,1.2492,text_option_1,,0,80,80,156,1
5b376f54cf5e6a00018309ef,63f3cfca20052e4ae7554ebf,6453c703568e34be7f8be055,2023-05-04_16h54.55.857,ga_syllabified_check,2022.2.5,Win32,59.99520038,,,,,,,,,,,,,,./stim/p03_syllable_1_falutraigo_hit.wav,p03,falutraigo,hit,fa-lu-trai-go,fa-lu-trai-go,fa-lu-tra-i-go, ,-0.336111104,-0.107407393,1,0,0,2.8335,text_option_1,,0,81,81,4,1
5b376f54cf5e6a00018309ef,63f3cfca20052e4ae7554ebf,6453c703568e34be7f8be055,2023-05-04_16h54.55.857,ga_syllabified_check,2022.2.5,Win32,59.99520038,,,,,,,,,,,,,,./stim/p06_syllable_1_lakakiaisto_hit.wav,p06,lakakiaisto,hit,la-ka-kia-is-to,la-ka-kiais-to,la-ka-ki-ais-to,la-ka-kia-is-to,0.040740755,-0.106481481,1,0,0,4.7335,text_option_3,,0,82,82,116,1
5b376f54cf5e6a00018309ef,63f3cfca20052e4ae7554ebf,6453c703568e34be7f8be055,2023-05-04_16h54.55.857,ga_syllabified_check,2022.2.5,Win32,59.99520038,,,,,,,,,,,,,,./stim/p05_syllable_1_falufaisto_hit.wav,p05,falufaisto,hit,fa-lu-fais-to,fa-lu-fais-to,fa-lu-fa-is-to, ,-0.308333326,-0.109259288,1,0,0,2.6661,text_option_1,,0,83,83,71,1
5b376f54cf5e6a00018309ef,63f3cfca20052e4ae7554ebf,6453c703568e34be7f8be055,2023-05-04_16h54.55.857,ga_syllabified_check,2022.2.5,Win32,59.99520038,,,,,,,,,,,,,,./stim/p05_syllable_1_lliape_hit.wav,p05,lliape,hit,liai-pe,llia-pe,lli-a-pe, ,-0.384259259,-0.102777764,1,0,0,0.9,text_option_1,,0,84,84,88,1
5b376f54cf5e6a00018309ef,63f3cfca20052e4ae7554ebf,6453c703568e34be7f8be055,2023-05-04_16h54.55.857,ga_syllabified_check,2022.2.5,Win32,59.99520038,,,,,,,,,,,,,,./stim/p07_syllable_1_faluduako_hit.wav,p07,faluduako,hit,fa-lu-dua-ko,fa-lu-dua-ko,fa-lu-du-a-ko, ,-0.336111104,-0.107407393,1,0,0,3.1494,text_option_1,,0,85,85,138,1
5b376f54cf5e6a00018309ef,63f3cfca20052e4ae7554ebf,6453c703568e34be7f8be055,2023-05-04_16h54.55.857,ga_syllabified_check,2022.2.5,Win32,59.99520038,,,,,,,,,,,,,,./stim/p04_syllable_1_manhiala_hit.wav,p04,mañiala,hit,ma-nhia-la,ma-ñia-la,ma-ñi-a-la, ,-0.337037016,-0.102777764,1,0,0,1.2329,text_option_1,,0,86,86,55,1
5b376f54cf5e6a00018309ef,63f3cfca20052e4ae7554ebf,6453c703568e34be7f8be055,2023-05-04_16h54.55.857,ga_syllabified_check,2022.2.5,Win32,59.99520038,,,,,,,,,,,,,,./stim/p07_syllable_1_lakaguaisto_hit.wav,p07,lakaguaisto,hit,la-ka-guais-to,la-ka-guais-to,la-ka-gu-ais-to,la-ka-gua-is-to,-0.326851845,-0.108333376,1,0,0,2.0833,text_option_1,,0,87,87,149,1
5b376f54cf5e6a00018309ef,63f3cfca20052e4ae7554ebf,6453c703568e34be7f8be055,2023-05-04_16h54.55.857,ga_syllabified_check,2022.2.5,Win32,59.99520038,,,,,,,,,,,,,,./stim/p04_syllable_1_faluduako_hit.wav,p04,faluduako,hit,fa-lu-dua-ko,fa-lu-dua-ko,fa-lu-du-a-ko, ,-0.354629623,-0.093518504,1,0,0,1.4327,text_option_1,,0,88,88,36,1
5b376f54cf5e6a00018309ef,63f3cfca20052e4ae7554ebf,6453c703568e34be7f8be055,2023-05-04_16h54.55.857,ga_syllabified_check,2022.2.5,Win32,59.99520038,,,,,,,,,,,,,,./stim/p08_syllable_1_tuliafo_hit.wav,p08,tuliafo,hit,tu-li-a-fo,tu-lia-fo,tu-li-a-fo, ,-0.368518511,-0.114814829,1,0,0,6.1,text_option_1,,0,89,89,203,1
5b376f54cf5e6a00018309ef,63f3cfca20052e4ae7554ebf,6453c703568e34be7f8be055,2023-05-04_16h54.55.857,ga_syllabified_check,2022.2.5,Win32,59.99520038,,,,,,,,,,,,,,./stim/p04_syllable_1_costonhialo_hit.wav,p04,costoñialo,hit,cos-to-nhia-lo,cos-to-ñia-lo,cos-to-ñi-a-lo, ,-0.348148134,-0.099074116,1,0,0,1.4496,text_option_1,,0,90,90,35,1
5b376f54cf5e6a00018309ef,63f3cfca20052e4ae7554ebf,6453c703568e34be7f8be055,2023-05-04_16h54.55.857,ga_syllabified_check,2022.2.5,Win32,59.99520038,,,,,,,,,,,,,,./stim/p07_syllable_1_lakafiaisto_hit.wav,p07,lakafiaisto,hit,la-ka-fiais-to,la-ka-fiais-to,la-ka-fi-ais-to,la-ka-fia-is-to,-0.366666653,-0.109259288,1,0,0,1.3171,text_option_1,,0,91,91,146,1
5b376f54cf5e6a00018309ef,63f3cfca20052e4ae7554ebf,6453c703568e34be7f8be055,2023-05-04_16h54.55.857,ga_syllabified_check,2022.2.5,Win32,59.99520038,,,,,,,,,,,,,,./stim/p08_syllable_1_costonhialo_hit.wav,p08,costoñialo,hit,cos-to-nhia-lo,cos-to-ñia-lo,cos-to-ñi-a-lo, ,-0.341666645,-0.104629658,1,0,0,1.7666,text_option_1,,0,92,92,171,1
5b376f54cf5e6a00018309ef,63f3cfca20052e4ae7554ebf,6453c703568e34be7f8be055,2023-05-04_16h54.55.857,ga_syllabified_check,2022.2.5,Win32,59.99520038,,,,,,,,,,,,,,./stim/p05_syllable_1_lakafuaisto_hit.wav,p05,lakafuaisto,hit,la-ka-fais-to,la-ka-fuais-to,la-ka-fu-ais-to,la-ka-fua-is-to,0.010185171,-0.303703732,1,0,0,4.4163,text_option_other,lakafaisto,0,93,93,79,1
5b376f54cf5e6a00018309ef,63f3cfca20052e4ae7554ebf,6453c703568e34be7f8be055,2023-05-04_16h54.55.857,ga_syllabified_check,2022.2.5,Win32,59.99520038,,,,,,,,,,,,,,./stim/p08_syllable_1_flauro_hit.wav,p08,flauro,hit,flau-ro,flau-ro,fla-u-ro, ,-0.395370377,-0.09629631,1,0,0,1.6503,text_option_1,,0,94,94,175,1
5b376f54cf5e6a00018309ef,63f3cfca20052e4ae7554ebf,6453c703568e34be7f8be055,2023-05-04_16h54.55.857,ga_syllabified_check,2022.2.5,Win32,59.99520038,,,,,,,,,,,,,,./stim/p03_syllable_1_palumaisto_hit.wav,p03,palumaisto,hit,pa-lu-mais-to,pa-lu-mais-to,pa-lu-ma-is-to, ,-0.340740734,-0.103703746,1,0,0,1.0826,text_option_1,,0,95,95,28,1
5b376f54cf5e6a00018309ef,63f3cfca20052e4ae7554ebf,6453c703568e34be7f8be055,2023-05-04_16h54.55.857,ga_syllabified_check,2022.2.5,Win32,59.99520038,,,,,,,,,,,,,,./stim/p06_syllable_1_palumaisto_hit.wav,p06,palumaisto,hit,pa-lu-ma-is-to,pa-lu-mais-to,pa-lu-ma-is-to, ,0.425000085,-0.098148134,1,0,0,2.9502,text_option_2,,0,96,96,130,1
5b376f54cf5e6a00018309ef,63f3cfca20052e4ae7554ebf,6453c703568e34be7f8be055,2023-05-04_16h54.55.857,ga_syllabified_check,2022.2.5,Win32,59.99520038,,,,,,,,,,,,,,./stim/p08_syllable_1_palumaisto_hit.wav,p08,palumaisto,hit,pa-lu-mais-to,pa-lu-mais-to,pa-lu-ma-is-to, ,-0.375,-0.100000028,1,0,0,2.0837,text_option_1,,0,97,97,198,1
5b376f54cf5e6a00018309ef,63f3cfca20052e4ae7554ebf,6453c703568e34be7f8be055,2023-05-04_16h54.55.857,ga_syllabified_check,2022.2.5,Win32,59.99520038,,,,,,,,,,,,,,./stim/p08_syllable_1_lakapuaisto_hit.wav,p08,lakapuaisto,hit,la-ka-pu-as-to,la-ka-puais-to,la-ka-pu-ais-to,la-ka-pua-is-to,-0.012962977,-0.317592621,1,0,0,7.4337,text_option_other,lakapuasto,0,98,98,187,1
5b376f54cf5e6a00018309ef,63f3cfca20052e4ae7554ebf,6453c703568e34be7f8be055,2023-05-04_16h54.55.857,ga_syllabified_check,2022.2.5,Win32,59.99520038,,,,,,,,,,,,,,./stim/p06_syllable_1_lakakuaisto_hit.wav,p06,lakakuaisto,hit,la-ka-ku-a-is,la-ka-kuais-to,la-ka-ku-ais-to,la-ka-kua-is-to,0.021296325,-0.292592578,1,0,0,12.1337,text_option_other,la-ka-ku-a-is-to,0,99,99,117,1
5b376f54cf5e6a00018309ef,63f3cfca20052e4ae7554ebf,6453c703568e34be7f8be055,2023-05-04_16h54.55.857,ga_syllabified_check,2022.2.5,Win32,59.99520038,,,,,,,,,,,,,,./stim/p04_syllable_1_lakagiaisto_hit.wav,p04,lakagiaisto,hit,la-ka-giais-to,la-ka-giais-to,la-ka-gi-ais-to,la-ka-gia-is-to,-0.404629637,-0.08425928,1,0,0,2.5347,text_option_1,,0,100,100,46,1
5b376f54cf5e6a00018309ef,63f3cfca20052e4ae7554ebf,6453c703568e34be7f8be055,2023-05-04_16h54.55.857,ga_syllabified_check,2022.2.5,Win32,59.99520038,,,,,,,,,,,,,,./stim/p03_syllable_1_ruyiola_hit.wav,p03,ruyiola,hit,ru-yio-la,ru-yio-la,ru-yi-o-la, ,-0.3675926,-0.09629631,1,0,0,0.5833,text_option_1,,0,101,101,32,1
5b376f54cf5e6a00018309ef,63f3cfca20052e4ae7554ebf,6453c703568e34be7f8be055,2023-05-04_16h54.55.857,ga_syllabified_check,2022.2.5,Win32,59.99520038,,,,,,,,,,,,,,./stim/p08_syllable_1_lakatuaisto_hit.wav,p08,lakatuaisto,hit,la-ka-tu-i-jis,la-ka-tuais-to,la-ka-tu-ais-to,la-ka-tua-is-to,-0.006481453,-0.297222208,1,0,0,3.8362,text_option_other,lakatuisto,0,102,102,189,1
5b376f54cf5e6a00018309ef,63f3cfca20052e4ae7554ebf,6453c703568e34be7f8be055,2023-05-04_16h54.55.857,ga_syllabified_check,2022.2.5,Win32,59.99520038,,,,,,,,,,,,,,./stim/p05_syllable_1_flauro_hit.wav,p05,flauro,hit,fa-lu-ro,flau-ro,fla-u-ro, ,-0.014814801,-0.304629644,1,0,0,2.517,text_option_other,faludo,0,103,103,73,1
5b376f54cf5e6a00018309ef,63f3cfca20052e4ae7554ebf,6453c703568e34be7f8be055,2023-05-04_16h54.55.857,ga_syllabified_check,2022.2.5,Win32,59.99520038,,,,,,,,,,,,,,./stim/p04_syllable_1_lakafuaisto_hit.wav,p04,lakafuaisto,hit,la-ka-fuais-to,la-ka-fuais-to,la-ka-fu-ais-to,la-ka-fua-is-to,-0.324999986,-0.10555557,1,0,0,3.5489,text_option_1,,0,104,104,45,1
5b376f54cf5e6a00018309ef,63f3cfca20052e4ae7554ebf,6453c703568e34be7f8be055,2023-05-04_16h54.55.857,ga_syllabified_check,2022.2.5,Win32,59.99520038,,,,,,,,,,,,,,./stim/p03_syllable_1_palutrauco_hit.wav,p03,palutrauco,hit,pa-lu-trau-co,pa-lu-trau-co,pa-lu-tra-u-co, ,-0.361111111,-0.107407393,1,0,0,1.5846,text_option_1,,0,105,105,29,1
5b376f54cf5e6a00018309ef,63f3cfca20052e4ae7554ebf,6453c703568e34be7f8be055,2023-05-04_16h54.55.857,ga_syllabified_check,2022.2.5,Win32,59.99520038,,,,,,,,,,,,,,./stim/p04_syllable_1_lakabiaisto_hit.wav,p04,lakabiaisto,hit,la-ka-biais-to,la-ka-biais-to,la-ka-bi-ais-to,la-ka-bia-is-to,-0.356481481,-0.10092594,1,0,0,0.8551,text_option_1,,0,106,106,40,1
5b376f54cf5e6a00018309ef,63f3cfca20052e4ae7554ebf,6453c703568e34be7f8be055,2023-05-04_16h54.55.857,ga_syllabified_check,2022.2.5,Win32,59.99520038,,,,,,,,,,,,,,./stim/p07_syllable_1_palumaisto_hit.wav,p07,palumaisto,hit,pa-lu-mais-to,pa-lu-mais-to,pa-lu-ma-is-to, ,-0.326851845,-0.107407393,1,0,0,1.9723,text_option_1,,0,107,107,164,1
5b376f54cf5e6a00018309ef,63f3cfca20052e4ae7554ebf,6453c703568e34be7f8be055,2023-05-04_16h54.55.857,ga_syllabified_check,2022.2.5,Win32,59.99520038,,,,,,,,,,,,,,./stim/p03_syllable_1_lakapuaisto_hit.wav,p03,lakapuaisto,hit,la-ka-puais-to,la-ka-puais-to,la-ka-pu-ais-to,la-ka-pua-is-to,-0.339814822,-0.098148134,1,0,0,1.1844,text_option_1,,0,108,108,17,1
5b376f54cf5e6a00018309ef,63f3cfca20052e4ae7554ebf,6453c703568e34be7f8be055,2023-05-04_16h54.55.857,ga_syllabified_check,2022.2.5,Win32,59.99520038,,,,,,,,,,,,,,./stim/p04_syllable_1_pachialo_hit.wav,p04,pachialo,hit,pa-chia-lo,pa-chia-lo,pa-chi-a-lo, ,-0.341666645,-0.12037037,1,0,0,0.6665,text_option_1,,0,109,109,58,1
5b376f54cf5e6a00018309ef,63f3cfca20052e4ae7554ebf,6453c703568e34be7f8be055,2023-05-04_16h54.55.857,ga_syllabified_check,2022.2.5,Win32,59.99520038,,,,,,,,,,,,,,./stim/p07_syllable_1_pachialo_hit.wav,p07,pachialo,hit,pa-cha-lo,pa-chia-lo,pa-chi-a-lo, ,-0.008333347,-0.301851838,1,0,0,1.8443,text_option_other,pachalo,0,110,110,160,1
5b376f54cf5e6a00018309ef,63f3cfca20052e4ae7554ebf,6453c703568e34be7f8be055,2023-05-04_16h54.55.857,ga_syllabified_check,2022.2.5,Win32,59.99520038,,,,,,,,,,,,,,./stim/p06_syllable_1_lakagiaisto_hit.wav,p06,lakagiaisto,hit,la-ka-gia-is-to,la-ka-giais-to,la-ka-gi-ais-to,la-ka-gia-is-to,0.033333319,-0.101851852,1,0,0,4.8399,text_option_3,,0,111,111,114,1
5b376f54cf5e6a00018309ef,63f3cfca20052e4ae7554ebf,6453c703568e34be7f8be055,2023-05-04_16h54.55.857,ga_syllabified_check,2022.2.5,Win32,59.99520038,,,,,,,,,,,,,,./stim/p03_syllable_1_tuliafo_hit.wav,p03,tuliafo,hit,tu-lia-fo,tu-lia-fo,tu-li-a-fo, ,-0.432407414,-0.10092594,1,0,0,0.8673,text_option_1,,0,112,112,33,1
5b376f54cf5e6a00018309ef,63f3cfca20052e4ae7554ebf,6453c703568e34be7f8be055,2023-05-04_16h54.55.857,ga_syllabified_check,2022.2.5,Win32,59.99520038,,,,,,,,,,,,,,./stim/p03_syllable_1_lakabiaisto_hit.wav,p03,lakabiaisto,hit,la-ka-biais-to,la-ka-biais-to,la-ka-bi-ais-to,la-ka-bia-is-to,-0.346296275,-0.100000028,1,0,0,1.1709,text_option_1,,0,113,113,6,1
5b376f54cf5e6a00018309ef,63f3cfca20052e4ae7554ebf,6453c703568e34be7f8be055,2023-05-04_16h54.55.857,ga_syllabified_check,2022.2.5,Win32,59.99520038,,,,,,,,,,,,,,./stim/p05_syllable_1_lakakiaisto_hit.wav,p05,lakakiaisto,hit,la-ka-ki-ais-to,la-ka-kiais-to,la-ka-ki-ais-to,la-ka-kia-is-to,-0.328703704,-0.099074116,1,0,0,0.9672,text_option_1,,0,114,114,82,1
5b376f54cf5e6a00018309ef,63f3cfca20052e4ae7554ebf,6453c703568e34be7f8be055,2023-05-04_16h54.55.857,ga_syllabified_check,2022.2.5,Win32,59.99520038,,,,,,,,,,,,,,./stim/p08_syllable_1_lakaduaisto_hit.wav,p08,lakaduaisto,hit,la-ka-du-ais-to,la-ka-duais-to,la-ka-du-ais-to,la-ka-dua-is-to,0.034259302,-0.087962963,1,0,0,2.6495,text_option_3,,0,115,115,179,1
5b376f54cf5e6a00018309ef,63f3cfca20052e4ae7554ebf,6453c703568e34be7f8be055,2023-05-04_16h54.55.857,ga_syllabified_check,2022.2.5,Win32,59.99520038,,,,,,,,,,,,,,./stim/p04_syllable_1_lakakuaisto_hit.wav,p04,lakakuaisto,hit,la-ka-kuais-to,la-ka-kuais-to,la-ka-ku-ais-to,la-ka-kua-is-to,-0.374074053,-0.080555563,1,0,0,0.8831,text_option_1,,0,116,116,49,1
5b376f54cf5e6a00018309ef,63f3cfca20052e4ae7554ebf,6453c703568e34be7f8be055,2023-05-04_16h54.55.857,ga_syllabified_check,2022.2.5,Win32,59.99520038,,,,,,,,,,,,,,./stim/p07_syllable_1_lakakiaisto_hit.wav,p07,lakakiaisto,hit,la-ka-kais-to,la-ka-kiais-to,la-ka-ki-ais-to,la-ka-kia-is-to,-0.014814801,-0.297222208,1,0,0,3.0676,text_option_other,lakakaisto,0,117,117,150,1
5b376f54cf5e6a00018309ef,63f3cfca20052e4ae7554ebf,6453c703568e34be7f8be055,2023-05-04_16h54.55.857,ga_syllabified_check,2022.2.5,Win32,59.99520038,,,,,,,,,,,,,,./stim/p05_syllable_1_lakabuaisto_hit.wav,p05,lakabuaisto,hit,la-ka-buais-to,la-ka-buais-to,la-ka-bu-ais-to,la-ka-bua-is-to,-0.350925905,-0.107407393,1,0,0,3.6239,text_option_1,,0,118,118,75,1
5b376f54cf5e6a00018309ef,63f3cfca20052e4ae7554ebf,6453c703568e34be7f8be055,2023-05-04_16h54.55.857,ga_syllabified_check,2022.2.5,Win32,59.99520038,,,,,,,,,,,,,,./stim/p08_syllable_1_faluduako_hit.wav,p08,faluduako,hit,fa-lu-duai-ko,fa-lu-dua-ko,fa-lu-du-a-ko, ,-0.026851866,-0.300000014,1,0,0,3.5192,text_option_other,faludaiko,0,119,119,172,1
5b376f54cf5e6a00018309ef,63f3cfca20052e4ae7554ebf,6453c703568e34be7f8be055,2023-05-04_16h54.55.857,ga_syllabified_check,2022.2.5,Win32,59.99520038,,,,,,,,,,,,,,./stim/p06_syllable_1_lakatiaisto_hit.wav,p06,lakatiaisto,hit,la-ka-pia-is-to,la-ka-tiais-to,la-ka-ti-ais-to,la-ka-tia-is-to,0.008333347,-0.101851852,1,0,0,4.2685,text_option_3,,0,120,120,120,1
5b376f54cf5e6a00018309ef,63f3cfca20052e4ae7554ebf,6453c703568e34be7f8be055,2023-05-04_16h54.55.857,ga_syllabified_check,2022.2.5,Win32,59.99520038,,,,,,,,,,,,,,./stim/p07_syllable_1_lakatuaisto_hit.wav,p07,lakatuaisto,hit,la-ka-tuais-to,la-ka-tuais-to,la-ka-tu-ais-to,la-ka-tua-is-to,-0.355555534,-0.083333333,1,0,0,2.5326,text_option_1,,0,121,121,155,1
5b376f54cf5e6a00018309ef,63f3cfca20052e4ae7554ebf,6453c703568e34be7f8be055,2023-05-04_16h54.55.857,ga_syllabified_check,2022.2.5,Win32,59.99520038,,,,,,,,,,,,,,./stim/p06_syllable_1_chiaba_hit.wav,p06,chiaba,hit,chi-a-ba,chia-ba,chi-a-ba, ,-0.39166666,-0.092592593,1,0,0,2.0958,text_option_1,,0,122,122,102,1
5b376f54cf5e6a00018309ef,63f3cfca20052e4ae7554ebf,6453c703568e34be7f8be055,2023-05-04_16h54.55.857,ga_syllabified_check,2022.2.5,Win32,59.99520038,,,,,,,,,,,,,,./stim/p04_syllable_1_falutraigo_hit.wav,p04,falutraigo,hit,fa-lu-trai-go,fa-lu-trai-go,fa-lu-tra-i-go, ,-0.363888882,-0.098148134,1,0,0,1.5683,text_option_1,,0,123,123,38,1
5b376f54cf5e6a00018309ef,63f3cfca20052e4ae7554ebf,6453c703568e34be7f8be055,2023-05-04_16h54.55.857,ga_syllabified_check,2022.2.5,Win32,59.99520038,,,,,,,,,,,,,,./stim/p03_syllable_1_chiaba_hit.wav,p03,chiaba,hit,chia-ba,chia-ba,chi-a-ba, ,-0.376851859,-0.107407393,1,0,0,0.4841,text_option_1,,0,124,124,0,1
5b376f54cf5e6a00018309ef,63f3cfca20052e4ae7554ebf,6453c703568e34be7f8be055,2023-05-04_16h54.55.857,ga_syllabified_check,2022.2.5,Win32,59.99520038,,,,,,,,,,,,,,./stim/p05_syllable_1_chiaba_hit.wav,p05,chiaba,hit,chia-ba,chia-ba,chi-a-ba, ,-0.042592578,-0.294444473,1,0,0,2.0499,text_option_other,chaiba,0,125,125,68,1
5b376f54cf5e6a00018309ef,63f3cfca20052e4ae7554ebf,6453c703568e34be7f8be055,2023-05-04_16h54.55.857,ga_syllabified_check,2022.2.5,Win32,59.99520038,,,,,,,,,,,,,,./stim/p05_syllable_1_pachialo_hit.wav,p05,pachialo,hit,pan-chia-lo,pa-chia-lo,pa-chi-a-lo, ,-0.363888882,-0.099074116,1,0,0,1.45,text_option_1,,0,126,126,92,1
5b376f54cf5e6a00018309ef,63f3cfca20052e4ae7554ebf,6453c703568e34be7f8be055,2023-05-04_16h54.55.857,ga_syllabified_check,2022.2.5,Win32,59.99520038,,,,,,,,,,,,,,./stim/p08_syllable_1_nhiape_hit.wav,p08,ñiape,hit,ni-a-pe,ñia-pe,ñi-a-pe, ,0.407407407,-0.112963005,1,0,0,6.5188,text_option_2,,0,127,127,193,1
5b376f54cf5e6a00018309ef,63f3cfca20052e4ae7554ebf,6453c703568e34be7f8be055,2023-05-04_16h54.55.857,ga_syllabified_check,2022.2.5,Win32,59.99520038,,,,,,,,,,,,,,./stim/p03_syllable_1_lakakuaisto_hit.wav,p03,lakakuaisto,hit,la-ka-kuais-to,la-ka-kuais-to,la-ka-ku-ais-to,la-ka-kua-is-to,-0.369444423,-0.093518504,1,0,0,1.1328,text_option_1,,0,128,128,15,1
5b376f54cf5e6a00018309ef,63f3cfca20052e4ae7554ebf,6453c703568e34be7f8be055,2023-05-04_16h54.55.857,ga_syllabified_check,2022.2.5,Win32,59.99520038,,,,,,,,,,,,,,./stim/p04_syllable_1_lliape_hit.wav,p04,lliape,hit,lia-pe,llia-pe,lli-a-pe, ,-0.404629637,-0.121296282,1,0,0,0.3178,text_option_1,,0,129,129,54,1
5b376f54cf5e6a00018309ef,63f3cfca20052e4ae7554ebf,6453c703568e34be7f8be055,2023-05-04_16h54.55.857,ga_syllabified_check,2022.2.5,Win32,59.99520038,,,,,,,,,,,,,,./stim/p06_syllable_1_paluguato_hit.wav,p06,paluguato,hit,pa-lu-gua-to,pa-lu-gua-to,pa-lu-gu-a-to, ,-0.344444452,-0.100000028,1,0,0,1.772,text_option_1,,0,130,130,129,1
5b376f54cf5e6a00018309ef,63f3cfca20052e4ae7554ebf,6453c703568e34be7f8be055,2023-05-04_16h54.55.857,ga_syllabified_check,2022.2.5,Win32,59.99520038,,,,,,,,,,,,,,./stim/p06_syllable_1_falufaisto_hit.wav,p06,falufaisto,hit,fa-lu-fa-is-to,fa-lu-fais-to,fa-lu-fa-is-to, ,0.498148176,-0.090740734,1,0,0,2.6159,text_option_2,,0,131,131,105,1
5b376f54cf5e6a00018309ef,63f3cfca20052e4ae7554ebf,6453c703568e34be7f8be055,2023-05-04_16h54.55.857,ga_syllabified_check,2022.2.5,Win32,59.99520038,,,,,,,,,,,,,,./stim/p08_syllable_1_lakafuaisto_hit.wav,p08,lakafuaisto,hit,la-ka-fju-ais-to,la-ka-fuais-to,la-ka-fu-ais-to,la-ka-fua-is-to,-0.337037016,-0.103703746,1,0,0,5.3175,text_option_1,,0,132,132,181,1
5b376f54cf5e6a00018309ef,63f3cfca20052e4ae7554ebf,6453c703568e34be7f8be055,2023-05-04_16h54.55.857,ga_syllabified_check,2022.2.5,Win32,59.99520038,,,,,,,,,,,,,,./stim/p04_syllable_1_nhiape_hit.wav,p04,ñiape,hit,nhia-pe,ñia-pe,ñi-a-pe, ,-0.389814801,-0.104629658,1,0,0,0.3488,text_option_1,,0,133,133,57,1
5b376f54cf5e6a00018309ef,63f3cfca20052e4ae7554ebf,6453c703568e34be7f8be055,2023-05-04_16h54.55.857,ga_syllabified_check,2022.2.5,Win32,59.99520038,,,,,,,,,,,,,,./stim/p07_syllable_1_paluguato_hit.wav,p07,paluguato,hit,pa-lu-gua-to,pa-lu-gua-to,pa-lu-gu-a-to, ,-0.363888882,-0.10092594,1,0,0,1.4492,text_option_1,,0,134,134,163,1
5b376f54cf5e6a00018309ef,63f3cfca20052e4ae7554ebf,6453c703568e34be7f8be055,2023-05-04_16h54.55.857,ga_syllabified_check,2022.2.5,Win32,59.99520038,,,,,,,,,,,,,,./stim/p07_syllable_1_ruyiola_hit.wav,p07,ruyiola,hit,ru-yio-la,ru-yio-la,ru-yi-o-la, ,-0.361111111,-0.101851852,1,0,0,0.8517,text_option_1,,0,135,135,168,1
5b376f54cf5e6a00018309ef,63f3cfca20052e4ae7554ebf,6453c703568e34be7f8be055,2023-05-04_16h54.55.857,ga_syllabified_check,2022.2.5,Win32,59.99520038,,,,,,,,,,,,,,./stim/p04_syllable_1_mebochiana_hit.wav,p04,mebochiana,hit,me-bo-chia-na,me-bo-chia-na,me-bo-chi-a-na, ,-0.287962949,-0.104629658,1,0,0,1.1335,text_option_1,,0,136,136,56,1
5b376f54cf5e6a00018309ef,63f3cfca20052e4ae7554ebf,6453c703568e34be7f8be055,2023-05-04_16h54.55.857,ga_syllabified_check,2022.2.5,Win32,59.99520038,,,,,,,,,,,,,,./stim/p07_syllable_1_manhiala_hit.wav,p07,mañiala,hit,ma-nhia-la,ma-ñia-la,ma-ñi-a-la, ,-0.35833334,-0.112037023,1,0,0,1.2559,text_option_1,,0,137,137,157,1
5b376f54cf5e6a00018309ef,63f3cfca20052e4ae7554ebf,6453c703568e34be7f8be055,2023-05-04_16h54.55.857,ga_syllabified_check,2022.2.5,Win32,59.99520038,,,,,,,,,,,,,,./stim/p05_syllable_1_payielo_hit.wav,p05,payielo,hit,pai-yu-we-lo,pa-yie-lo,pa-yi-e-lo, ,-0.029629601,-0.290740755,1,0,0,1.6339,text_option_other,payuelo,0,138,138,98,1
5b376f54cf5e6a00018309ef,63f3cfca20052e4ae7554ebf,6453c703568e34be7f8be055,2023-05-04_16h54.55.857,ga_syllabified_check,2022.2.5,Win32,59.99520038,,,,,,,,,,,,,,./stim/p06_syllable_1_rausto_hit.wav,p06,rausto,hit,ra-us-to,raus-to,ra-us-to, ,0.438888974,-0.10092594,1,0,0,1.7333,text_option_2,,0,139,139,133,1
5b376f54cf5e6a00018309ef,63f3cfca20052e4ae7554ebf,6453c703568e34be7f8be055,2023-05-04_16h54.55.857,ga_syllabified_check,2022.2.5,Win32,59.99520038,,,,,,,,,,,,,,./stim/p05_syllable_1_paluguato_hit.wav,p05,paluguato,hit,pa-lu-gau-to,pa-lu-gua-to,pa-lu-gu-a-to, ,-0.037962949,-0.290740755,1,0,0,2.2183,text_option_other,palougato,0,140,140,95,1
5b376f54cf5e6a00018309ef,63f3cfca20052e4ae7554ebf,6453c703568e34be7f8be055,2023-05-04_16h54.55.857,ga_syllabified_check,2022.2.5,Win32,59.99520038,,,,,,,,,,,,,,./stim/p07_syllable_1_lakatiaisto_hit.wav,p07,lakatiaisto,hit,la-ka-tiai-sto,la-ka-tiais-to,la-ka-ti-ais-to,la-ka-tia-is-to,-0.344444452,-0.110185199,1,0,0,2.8848,text_option_1,,0,141,141,154,1
5b376f54cf5e6a00018309ef,63f3cfca20052e4ae7554ebf,6453c703568e34be7f8be055,2023-05-04_16h54.55.857,ga_syllabified_check,2022.2.5,Win32,59.99520038,,,,,,,,,,,,,,./stim/p05_syllable_1_lakagiaisto_hit.wav,p05,lakagiaisto,hit,la-ka-ki-ais-to,la-ka-giais-to,la-ka-gi-ais-to,la-ka-gia-is-to,-0.337037016,-0.117592635,1,0,0,1.0504,text_option_1,,0,142,142,80,1
5b376f54cf5e6a00018309ef,63f3cfca20052e4ae7554ebf,6453c703568e34be7f8be055,2023-05-04_16h54.55.857,ga_syllabified_check,2022.2.5,Win32,59.99520038,,,,,,,,,,,,,,./stim/p03_syllable_1_lakadiaisto_hit.wav,p03,lakadiaisto,hit,la-ka-diais-to,la-ka-diais-to,la-ka-di-ais-to,la-ka-dia-is-to,-0.336111104,-0.09629631,1,0,0,1.5175,text_option_1,,0,143,143,8,1
5b376f54cf5e6a00018309ef,63f3cfca20052e4ae7554ebf,6453c703568e34be7f8be055,2023-05-04_16h54.55.857,ga_syllabified_check,2022.2.5,Win32,59.99520038,,,,,,,,,,,,,,./stim/p04_syllable_1_tuliafo_hit.wav,p04,tuliafo,hit,tu-lia-fo,tu-lia-fo,tu-li-a-fo, ,-0.363888882,-0.100000028,1,0,0,0.8001,text_option_1,,0,144,144,67,1
5b376f54cf5e6a00018309ef,63f3cfca20052e4ae7554ebf,6453c703568e34be7f8be055,2023-05-04_16h54.55.857,ga_syllabified_check,2022.2.5,Win32,59.99520038,,,,,,,,,,,,,,./stim/p03_syllable_1_nhiape_hit.wav,p03,ñiape,hit,nhia-pe,ñia-pe,ñi-a-pe, ,-0.357407393,-0.108333376,1,0,0,0.4673,text_option_1,,0,145,145,23,1
5b376f54cf5e6a00018309ef,63f3cfca20052e4ae7554ebf,6453c703568e34be7f8be055,2023-05-04_16h54.55.857,ga_syllabified_check,2022.2.5,Win32,59.99520038,,,,,,,,,,,,,,./stim/p07_syllable_1_lakabiaisto_hit.wav,p07,lakabiaisto,hit,la-ka-bais-to,la-ka-biais-to,la-ka-bi-ais-to,la-ka-bia-is-to,0.020370413,-0.310185185,1,0,0,2.6683,text_option_other,lakabaisto,0,146,146,142,1
5b376f54cf5e6a00018309ef,63f3cfca20052e4ae7554ebf,6453c703568e34be7f8be055,2023-05-04_16h54.55.857,ga_syllabified_check,2022.2.5,Win32,59.99520038,,,,,,,,,,,,,,./stim/p08_syllable_1_payielo_hit.wav,p08,payielo,hit,pa-yie-lo,pa-yie-lo,pa-yi-e-lo, ,-0.413888896,-0.100000028,1,0,0,1.0833,text_option_1,,0,147,147,200,1
5b376f54cf5e6a00018309ef,63f3cfca20052e4ae7554ebf,6453c703568e34be7f8be055,2023-05-04_16h54.55.857,ga_syllabified_check,2022.2.5,Win32,59.99520038,,,,,,,,,,,,,,./stim/p04_syllable_1_lakadiaisto_hit.wav,p04,lakadiaisto,hit,la-ka-dias-to,la-ka-diais-to,la-ka-di-ais-to,la-ka-dia-is-to,-0.341666645,-0.10092594,1,0,0,0.9357,text_option_1,,0,148,148,42,1
5b376f54cf5e6a00018309ef,63f3cfca20052e4ae7554ebf,6453c703568e34be7f8be055,2023-05-04_16h54.55.857,ga_syllabified_check,2022.2.5,Win32,59.99520038,,,,,,,,,,,,,,./stim/p08_syllable_1_rausto_hit.wav,p08,rausto,hit,raus-to,raus-to,ra-us-to, ,-0.381481489,-0.090740734,1,0,0,0.5837,text_option_1,,0,149,149,201,1
5b376f54cf5e6a00018309ef,63f3cfca20052e4ae7554ebf,6453c703568e34be7f8be055,2023-05-04_16h54.55.857,ga_syllabified_check,2022.2.5,Win32,59.99520038,,,,,,,,,,,,,,./stim/p07_syllable_1_lakakuaisto_hit.wav,p07,lakakuaisto,hit,la-ka-kuais-to,la-ka-kuais-to,la-ka-ku-ais-to,la-ka-kua-is-to,-0.324074074,-0.10555557,1,0,0,2.1051,text_option_1,,0,150,150,151,1
5b376f54cf5e6a00018309ef,63f3cfca20052e4ae7554ebf,6453c703568e34be7f8be055,2023-05-04_16h54.55.857,ga_syllabified_check,2022.2.5,Win32,59.99520038,,,,,,,,,,,,,,./stim/p08_syllable_1_lakabiaisto_hit.wav,p08,lakabiaisto,hit,la-ka-bi-as-to,la-ka-biais-to,la-ka-bi-ais-to,la-ka-bia-is-to,0.02407406,-0.112963005,1,0,0,6.6005,text_option_3,,0,151,151,176,1
5b376f54cf5e6a00018309ef,63f3cfca20052e4ae7554ebf,6453c703568e34be7f8be055,2023-05-04_16h54.55.857,ga_syllabified_check,2022.2.5,Win32,59.99520038,,,,,,,,,,,,,,./stim/p08_syllable_1_pachialo_hit.wav,p08,pachialo,hit,pa-chi-ja-lo,pa-chia-lo,pa-chi-a-lo, ,0.391666695,-0.10555557,1,0,0,1.516,text_option_2,,0,152,152,194,1
5b376f54cf5e6a00018309ef,63f3cfca20052e4ae7554ebf,6453c703568e34be7f8be055,2023-05-04_16h54.55.857,ga_syllabified_check,2022.2.5,Win32,59.99520038,,,,,,,,,,,,,,./stim/p03_syllable_1_lakaguaisto_hit.wav,p03,lakaguaisto,hit,la-ka-guais-to,la-ka-guais-to,la-ka-gu-ais-to,la-ka-gua-is-to,-0.340740734,-0.109259288,1,0,0,2.8824,text_option_1,,0,153,153,13,1
5b376f54cf5e6a00018309ef,63f3cfca20052e4ae7554ebf,6453c703568e34be7f8be055,2023-05-04_16h54.55.857,ga_syllabified_check,2022.2.5,Win32,59.99520038,,,,,,,,,,,,,,./stim/p05_syllable_1_lakafiaisto_hit.wav,p05,lakafiaisto,hit,la-ka-fi-ais-to,la-ka-fiais-to,la-ka-fi-ais-to,la-ka-fia-is-to,0.372222194,-0.098148134,1,0,0,6.5176,text_option_2,,0,154,154,78,1
5b376f54cf5e6a00018309ef,63f3cfca20052e4ae7554ebf,6453c703568e34be7f8be055,2023-05-04_16h54.55.857,ga_syllabified_check,2022.2.5,Win32,59.99520038,,,,,,,,,,,,,,./stim/p08_syllable_1_lakadiaisto_hit.wav,p08,lakadiaisto,hit,la-ka-di-jas-to,la-ka-diais-to,la-ka-di-ais-to,la-ka-dia-is-to,0.063888903,-0.116666653,1,0,0,4.585,text_option_3,,0,155,155,178,1
5b376f54cf5e6a00018309ef,63f3cfca20052e4ae7554ebf,6453c703568e34be7f8be055,2023-05-04_16h54.55.857,ga_syllabified_check,2022.2.5,Win32,59.99520038,,,,,,,,,,,,,,./stim/p06_syllable_1_costonhialo_hit.wav,p06,costoñialo,hit,cos-to-nhia-lo,cos-to-ñia-lo,cos-to-ñi-a-lo, ,-0.333333333,-0.117592635,1,0,0,2.2843,text_option_1,,0,156,156,103,1
5b376f54cf5e6a00018309ef,63f3cfca20052e4ae7554ebf,6453c703568e34be7f8be055,2023-05-04_16h54.55.857,ga_syllabified_check,2022.2.5,Win32,59.99520038,,,,,,,,,,,,,,./stim/p08_syllable_1_ruyiola_hit.wav,p08,ruyiola,hit,ru-yio-la,ru-yio-la,ru-yi-o-la, ,-0.428703697,-0.10092594,1,0,0,1.0484,text_option_1,,0,157,157,202,1
5b376f54cf5e6a00018309ef,63f3cfca20052e4ae7554ebf,6453c703568e34be7f8be055,2023-05-04_16h54.55.857,ga_syllabified_check,2022.2.5,Win32,59.99520038,,,,,,,,,,,,,,./stim/p06_syllable_1_lakafuaisto_hit.wav,p06,lakafuaisto,hit,la-ka-fu-a-is,la-ka-fuais-to,la-ka-fu-ais-to,la-ka-fua-is-to,0.007407436,-0.108333376,1,0,0,6.7774,text_option_3,,0,158,158,113,1
5b376f54cf5e6a00018309ef,63f3cfca20052e4ae7554ebf,6453c703568e34be7f8be055,2023-05-04_16h54.55.857,ga_syllabified_check,2022.2.5,Win32,59.99520038,,,,,,,,,,,,,,./stim/p08_syllable_1_lakakuaisto_hit.wav,p08,lakakuaisto,hit,la-ka-ku-ais-to,la-ka-kuais-to,la-ka-ku-ais-to,la-ka-kua-is-to,-0.000925912,-0.104629658,1,0,0,4.0167,text_option_3,,0,159,159,185,1
5b376f54cf5e6a00018309ef,63f3cfca20052e4ae7554ebf,6453c703568e34be7f8be055,2023-05-04_16h54.55.857,ga_syllabified_check,2022.2.5,Win32,59.99520038,,,,,,,,,,,,,,./stim/p03_syllable_1_palufauro_hit.wav,p03,palufauro,hit,pa-lu-fau-ro,pa-lu-fau-ro,pa-lu-fa-u-ro, ,-0.389814801,-0.116666653,1,0,0,1.6003,text_option_1,,0,160,160,25,1
5b376f54cf5e6a00018309ef,63f3cfca20052e4ae7554ebf,6453c703568e34be7f8be055,2023-05-04_16h54.55.857,ga_syllabified_check,2022.2.5,Win32,59.99520038,,,,,,,,,,,,,,./stim/p08_syllable_1_mebochiana_hit.wav,p08,mebochiana,hit,me-bo-chi-a-na,me-bo-chia-na,me-bo-chi-a-na, ,0.419444473,-0.108333376,1,0,0,2.1345,text_option_2,,0,161,161,192,1
5b376f54cf5e6a00018309ef,63f3cfca20052e4ae7554ebf,6453c703568e34be7f8be055,2023-05-04_16h54.55.857,ga_syllabified_check,2022.2.5,Win32,59.99520038,,,,,,,,,,,,,,./stim/p05_syllable_1_lakatiaisto_hit.wav,p05,lakatiaisto,hit,la-ka-ti-ais-to,la-ka-tiais-to,la-ka-ti-ais-to,la-ka-tia-is-to,-0.314814815,-0.107407393,1,0,0,1.351,text_option_1,,0,162,162,86,1
5b376f54cf5e6a00018309ef,63f3cfca20052e4ae7554ebf,6453c703568e34be7f8be055,2023-05-04_16h54.55.857,ga_syllabified_check,2022.2.5,Win32,59.99520038,,,,,,,,,,,,,,./stim/p07_syllable_1_lakapuaisto_hit.wav,p07,lakapuaisto,hit,la-ka-puais-to,la-ka-puais-to,la-ka-pu-ais-to,la-ka-pua-is-to,-0.314814815,-0.121296282,1,0,0,2.3506,text_option_1,,0,163,163,153,1
5b376f54cf5e6a00018309ef,63f3cfca20052e4ae7554ebf,6453c703568e34be7f8be055,2023-05-04_16h54.55.857,ga_syllabified_check,2022.2.5,Win32,59.99520038,,,,,,,,,,,,,,./stim/p05_syllable_1_palufauto_hit.wav,p05,palufauto,hit,pa-lu-fau-to,pa-lu-fau-to,pa-lu-fa-u-to, ,-0.392592571,-0.110185199,1,0,0,1.3229,text_option_1,,0,164,164,94,1
5b376f54cf5e6a00018309ef,63f3cfca20052e4ae7554ebf,6453c703568e34be7f8be055,2023-05-04_16h54.55.857,ga_syllabified_check,2022.2.5,Win32,59.99520038,,,,,,,,,,,,,,./stim/p03_syllable_1_falufaisto_hit.wav,p03,falufaisto,hit,fa-lu-fais-to,fa-lu-fais-to,fa-lu-fa-is-to, ,-0.342592593,-0.101851852,1,0,0,1.2008,text_option_1,,0,165,165,3,1
5b376f54cf5e6a00018309ef,63f3cfca20052e4ae7554ebf,6453c703568e34be7f8be055,2023-05-04_16h54.55.857,ga_syllabified_check,2022.2.5,Win32,59.99520038,,,,,,,,,,,,,,./stim/p07_syllable_1_rausto_hit.wav,p07,rausto,hit,raus-to,raus-to,ra-us-to, ,-0.375,-0.093518504,1,0,0,1.1001,text_option_1,,0,166,166,167,1
5b376f54cf5e6a00018309ef,63f3cfca20052e4ae7554ebf,6453c703568e34be7f8be055,2023-05-04_16h54.55.857,ga_syllabified_check,2022.2.5,Win32,59.99520038,,,,,,,,,,,,,,./stim/p03_syllable_1_lakabuaisto_hit.wav,p03,lakabuaisto,hit,la-ka-buais-to,la-ka-buais-to,la-ka-bu-ais-to,la-ka-bua-is-to,-0.3675926,-0.086111104,1,0,0,1.1657,text_option_1,,0,167,167,7,1
5b376f54cf5e6a00018309ef,63f3cfca20052e4ae7554ebf,6453c703568e34be7f8be055,2023-05-04_16h54.55.857,ga_syllabified_check,2022.2.5,Win32,59.99520038,,,,,,,,,,,,,,./stim/p07_syllable_1_lakafuaisto_hit.wav,p07,lakafuaisto,hit,la-ka-fuais-to,la-ka-fuais-to,la-ka-fu-ais-to,la-ka-fua-is-to,-0.350925905,-0.094444487,1,0,0,1.9177,text_option_1,,0,168,168,147,1
5b376f54cf5e6a00018309ef,63f3cfca20052e4ae7554ebf,6453c703568e34be7f8be055,2023-05-04_16h54.55.857,ga_syllabified_check,2022.2.5,Win32,59.99520038,,,,,,,,,,,,,,./stim/p03_syllable_1_lakatiaisto_hit.wav,p03,lakatiaisto,hit,la-ka-tiais-to,la-ka-tiais-to,la-ka-ti-ais-to,la-ka-tia-is-to,-0.323148127,-0.109259288,1,0,0,1.2834,text_option_1,,0,169,169,18,1
5b376f54cf5e6a00018309ef,63f3cfca20052e4ae7554ebf,6453c703568e34be7f8be055,2023-05-04_16h54.55.857,ga_syllabified_check,2022.2.5,Win32,59.99520038,,,,,,,,,,,,,,./stim/p07_syllable_1_chiaba_hit.wav,p07,chiaba,hit,chia-ba,chia-ba,chi-a-ba, ,-0.368518511,-0.108333376,1,0,0,0.3569,text_option_1,,0,170,170,136,1
5b376f54cf5e6a00018309ef,63f3cfca20052e4ae7554ebf,6453c703568e34be7f8be055,2023-05-04_16h54.55.857,ga_syllabified_check,2022.2.5,Win32,59.99520038,,,,,,,,,,,,,,./stim/p04_syllable_1_lakabuaisto_hit.wav,p04,lakabuaisto,hit,la-ka-buais-to,la-ka-buais-to,la-ka-bu-ais-to,la-ka-bua-is-to,-0.314814815,-0.12037037,1,0,0,0.7179,text_option_1,,0,171,171,41,1
5b376f54cf5e6a00018309ef,63f3cfca20052e4ae7554ebf,6453c703568e34be7f8be055,2023-05-04_16h54.55.857,ga_syllabified_check,2022.2.5,Win32,59.99520038,,,,,,,,,,,,,,./stim/p04_syllable_1_chiaba_hit.wav,p04,chiaba,hit,chia-ba,chia-ba,chi-a-ba, ,-0.447222215,-0.110185199,1,0,0,0.1326,text_option_1,,0,172,172,34,1
5b376f54cf5e6a00018309ef,63f3cfca20052e4ae7554ebf,6453c703568e34be7f8be055,2023-05-04_16h54.55.857,ga_syllabified_check,2022.2.5,Win32,59.99520038,,,,,,,,,,,,,,./stim/p04_syllable_1_lakafiaisto_hit.wav,p04,lakafiaisto,hit,la-ka-fiais-to,la-ka-fiais-to,la-ka-fi-ais-to,la-ka-fia-is-to,-0.37037037,-0.08888891,1,0,0,1.367,text_option_1,,0,173,173,44,1
5b376f54cf5e6a00018309ef,63f3cfca20052e4ae7554ebf,6453c703568e34be7f8be055,2023-05-04_16h54.55.857,ga_syllabified_check,2022.2.5,Win32,59.99520038,,,,,,,,,,,,,,./stim/p03_syllable_1_lakapiaisto_hit.wav,p03,lakapiaisto,hit,la-ka-piais-to,la-ka-piais-to,la-ka-pi-ais-to,la-ka-pia-is-to,-0.337962963,-0.112963005,1,0,0,1.0713,text_option_1,,0,174,174,16,1
5b376f54cf5e6a00018309ef,63f3cfca20052e4ae7554ebf,6453c703568e34be7f8be055,2023-05-04_16h54.55.857,ga_syllabified_check,2022.2.5,Win32,59.99520038,,,,,,,,,,,,,,./stim/p04_syllable_1_palufauro_hit.wav,p04,palufauro,hit,pa-lu-fau-ro,pa-lu-fau-ro,pa-lu-fa-u-ro, ,-0.346296275,-0.103703746,1,0,0,0.9177,text_option_1,,0,175,175,59,1
5b376f54cf5e6a00018309ef,63f3cfca20052e4ae7554ebf,6453c703568e34be7f8be055,2023-05-04_16h54.55.857,ga_syllabified_check,2022.2.5,Win32,59.99520038,,,,,,,,,,,,,,./stim/p07_syllable_1_lakaduaisto_hit.wav,p07,lakaduaisto,hit,la-ka-duais-to,la-ka-duais-to,la-ka-du-ais-to,la-ka-dua-is-to,-0.334259245,-0.107407393,1,0,0,1.4339,text_option_1,,0,176,176,145,1
5b376f54cf5e6a00018309ef,63f3cfca20052e4ae7554ebf,6453c703568e34be7f8be055,2023-05-04_16h54.55.857,ga_syllabified_check,2022.2.5,Win32,59.99520038,,,,,,,,,,,,,,./stim/p06_syllable_1_tuliafo_hit.wav,p06,tuliafo,hit,tu-li-a-fo,tu-lia-fo,tu-li-a-fo, ,0.417592649,-0.110185199,1,0,0,2.8835,text_option_2,,0,177,177,135,1
5b376f54cf5e6a00018309ef,63f3cfca20052e4ae7554ebf,6453c703568e34be7f8be055,2023-05-04_16h54.55.857,ga_syllabified_check,2022.2.5,Win32,59.99520038,,,,,,,,,,,,,,./stim/p07_syllable_1_nhiape_hit.wav,p07,ñiape,hit,nhia-pe,ñia-pe,ñi-a-pe, ,-0.354629623,-0.107407393,1,0,0,0.5687,text_option_1,,0,178,178,159,1
5b376f54cf5e6a00018309ef,63f3cfca20052e4ae7554ebf,6453c703568e34be7f8be055,2023-05-04_16h54.55.857,ga_syllabified_check,2022.2.5,Win32,59.99520038,,,,,,,,,,,,,,./stim/p04_syllable_1_payielo_hit.wav,p04,payielo,hit,pa-yie-lo,pa-yie-lo,pa-yi-e-lo, ,-0.368518511,-0.108333376,1,0,0,0.5497,text_option_1,,0,179,179,64,1
5b376f54cf5e6a00018309ef,63f3cfca20052e4ae7554ebf,6453c703568e34be7f8be055,2023-05-04_16h54.55.857,ga_syllabified_check,2022.2.5,Win32,59.99520038,,,,,,,,,,,,,,./stim/p08_syllable_1_lakabuaisto_hit.wav,p08,lakabuaisto,hit,la-ka-bu-ais-to,la-ka-buais-to,la-ka-bu-ais-to,la-ka-bua-is-to,0.02407406,-0.099074116,1,0,0,4.6151,text_option_3,,0,180,180,177,1
5b376f54cf5e6a00018309ef,63f3cfca20052e4ae7554ebf,6453c703568e34be7f8be055,2023-05-04_16h54.55.857,ga_syllabified_check,2022.2.5,Win32,59.99520038,,,,,,,,,,,,,,./stim/p06_syllable_1_palufauro_hit.wav,p06,palufauro,hit,pa-lu-fau-ro,pa-lu-fau-ro,pa-lu-fa-u-ro, ,0.358333305,-0.100000028,1,0,0,5.6996,text_option_2,,0,181,181,127,1
5b376f54cf5e6a00018309ef,63f3cfca20052e4ae7554ebf,6453c703568e34be7f8be055,2023-05-04_16h54.55.857,ga_syllabified_check,2022.2.5,Win32,59.99520038,,,,,,,,,,,,,,./stim/p03_syllable_1_palufauto_hit.wav,p03,palufauto,hit,pa-lu-fau,pa-lu-fau-to,pa-lu-fa-u-to, ,-0.371296282,-0.102777764,1,0,0,2.984,text_option_1,,0,182,182,26,1
5b376f54cf5e6a00018309ef,63f3cfca20052e4ae7554ebf,6453c703568e34be7f8be055,2023-05-04_16h54.55.857,ga_syllabified_check,2022.2.5,Win32,59.99520038,,,,,,,,,,,,,,./stim/p06_syllable_1_flauro_hit.wav,p06,flauro,hit,fla-u-ro,flau-ro,fla-u-ro, ,0.417592649,-0.081481474,1,0,0,2.6006,text_option_2,,0,183,183,107,1
5b376f54cf5e6a00018309ef,63f3cfca20052e4ae7554ebf,6453c703568e34be7f8be055,2023-05-04_16h54.55.857,ga_syllabified_check,2022.2.5,Win32,59.99520038,,,,,,,,,,,,,,./stim/p07_syllable_1_costonhialo_hit.wav,p07,costoñialo,hit,cos-to-nhia-lo,cos-to-ñia-lo,cos-to-ñi-a-lo, ,-0.309259238,-0.106481481,1,0,0,1.6727,text_option_1,,0,184,184,137,1
5b376f54cf5e6a00018309ef,63f3cfca20052e4ae7554ebf,6453c703568e34be7f8be055,2023-05-04_16h54.55.857,ga_syllabified_check,2022.2.5,Win32,59.99520038,,,,,,,,,,,,,,./stim/p06_syllable_1_lakapiaisto_hit.wav,p06,lakapiaisto,hit,la-ka-pia-is-to,la-ka-piais-to,la-ka-pi-ais-to,la-ka-pia-is-to,-0.037037037,-0.111111111,1,0,0,4.3826,text_option_3,,0,185,185,118,1
5b376f54cf5e6a00018309ef,63f3cfca20052e4ae7554ebf,6453c703568e34be7f8be055,2023-05-04_16h54.55.857,ga_syllabified_check,2022.2.5,Win32,59.99520038,,,,,,,,,,,,,,./stim/p07_syllable_1_tuliafo_hit.wav,p07,tuliafo,hit,tu-lia-fo,tu-lia-fo,tu-li-a-fo, ,-0.377777771,-0.089814822,1,0,0,0.4677,text_option_1,,0,186,186,169,1
5b376f54cf5e6a00018309ef,63f3cfca20052e4ae7554ebf,6453c703568e34be7f8be055,2023-05-04_16h54.55.857,ga_syllabified_check,2022.2.5,Win32,59.99520038,,,,,,,,,,,,,,./stim/p07_syllable_1_falutraigo_hit.wav,p07,falutraigo,hit,fa-lu-trai-go,fa-lu-trai-go,fa-lu-tra-i-go, ,-0.324999986,-0.106481481,1,0,0,2.3066,text_option_1,,0,187,187,140,1
5b376f54cf5e6a00018309ef,63f3cfca20052e4ae7554ebf,6453c703568e34be7f8be055,2023-05-04_16h54.55.857,ga_syllabified_check,2022.2.5,Win32,59.99520038,,,,,,,,,,,,,,./stim/p08_syllable_1_palufauro_hit.wav,p08,palufauro,hit,pa-lu-fau-ro,pa-lu-fau-ro,pa-lu-fa-u-ro, ,-0.332407386,-0.106481481,1,0,0,4.2824,text_option_1,,0,188,188,195,1
5b376f54cf5e6a00018309ef,63f3cfca20052e4ae7554ebf,6453c703568e34be7f8be055,2023-05-04_16h54.55.857,ga_syllabified_check,2022.2.5,Win32,59.99520038,,,,,,,,,,,,,,./stim/p04_syllable_1_palufauto_hit.wav,p04,palufauto,hit,pa-lu-fau-to,pa-lu-fau-to,pa-lu-fa-u-to, ,-0.344444452,-0.10555557,1,0,0,0.9841,text_option_1,,0,189,189,60,1
5b376f54cf5e6a00018309ef,63f3cfca20052e4ae7554ebf,6453c703568e34be7f8be055,2023-05-04_16h54.55.857,ga_syllabified_check,2022.2.5,Win32,59.99520038,,,,,,,,,,,,,,./stim/p08_syllable_1_lakagiaisto_hit.wav,p08,lakagiaisto,hit,la-ka-gi-jas-to,la-ka-giais-to,la-ka-gi-ais-to,la-ka-gia-is-to,0.006481524,-0.112963005,1,0,0,5.3341,text_option_3,,0,190,190,182,1
5b376f54cf5e6a00018309ef,63f3cfca20052e4ae7554ebf,6453c703568e34be7f8be055,2023-05-04_16h54.55.857,ga_syllabified_check,2022.2.5,Win32,59.99520038,,,,,,,,,,,,,,./stim/p06_syllable_1_palutrauco_hit.wav,p06,palutrauco,hit,pa-lu-tra-u-co,pa-lu-trau-co,pa-lu-tra-u-co, ,0.373148176,-0.113888917,1,0,0,2.4661,text_option_2,,0,191,191,131,1
5b376f54cf5e6a00018309ef,63f3cfca20052e4ae7554ebf,6453c703568e34be7f8be055,2023-05-04_16h54.55.857,ga_syllabified_check,2022.2.5,Win32,59.99520038,,,,,,,,,,,,,,./stim/p06_syllable_1_payielo_hit.wav,p06,payielo,hit,pa-yi-e-lo,pa-yie-lo,pa-yi-e-lo, ,0.400925954,-0.118518547,1,0,0,1.5004,text_option_2,,0,192,192,132,1
5b376f54cf5e6a00018309ef,63f3cfca20052e4ae7554ebf,6453c703568e34be7f8be055,2023-05-04_16h54.55.857,ga_syllabified_check,2022.2.5,Win32,59.99520038,,,,,,,,,,,,,,./stim/p03_syllable_1_manhiala_hit.wav,p03,mañiala,hit,ma-nhia-la,ma-ñia-la,ma-ñi-a-la, ,-0.362037023,-0.121296282,1,0,0,0.9628,text_option_1,,0,193,193,21,1
5b376f54cf5e6a00018309ef,63f3cfca20052e4ae7554ebf,6453c703568e34be7f8be055,2023-05-04_16h54.55.857,ga_syllabified_check,2022.2.5,Win32,59.99520038,,,,,,,,,,,,,,./stim/p06_syllable_1_manhiala_hit.wav,p06,mañiala,hit,ma-nhi-a-la,ma-ñia-la,ma-ñi-a-la, ,0.37037037,-0.113888917,1,0,0,1.417,text_option_2,,0,194,194,123,1
5b376f54cf5e6a00018309ef,63f3cfca20052e4ae7554ebf,6453c703568e34be7f8be055,2023-05-04_16h54.55.857,ga_syllabified_check,2022.2.5,Win32,59.99520038,,,,,,,,,,,,,,./stim/p03_syllable_1_flauro_hit.wav,p03,flauro,hit,flau-ro,flau-ro,fla-u-ro, ,-0.353703711,-0.100000028,1,0,0,0.6994,text_option_1,,0,195,195,5,1
5b376f54cf5e6a00018309ef,63f3cfca20052e4ae7554ebf,6453c703568e34be7f8be055,2023-05-04_16h54.55.857,ga_syllabified_check,2022.2.5,Win32,59.99520038,,,,,,,,,,,,,,./stim/p05_syllable_1_tuliafo_hit.wav,p05,tuliafo,hit,tu-lai-fo,tu-lia-fo,tu-li-a-fo, ,-0.00462963,-0.299074102,1,0,0,3.3489,text_option_other,tulaifo,0,196,196,101,1
5b376f54cf5e6a00018309ef,63f3cfca20052e4ae7554ebf,6453c703568e34be7f8be055,2023-05-04_16h54.55.857,ga_syllabified_check,2022.2.5,Win32,59.99520038,,,,,,,,,,,,,,./stim/p03_syllable_1_lakagiaisto_hit.wav,p03,lakagiaisto,hit,la-ka-giais-to,la-ka-giais-to,la-ka-gi-ais-to,la-ka-gia-is-to,-0.344444452,-0.107407393,1,0,0,3.6504,text_option_1,,0,197,197,12,1
5b376f54cf5e6a00018309ef,63f3cfca20052e4ae7554ebf,6453c703568e34be7f8be055,2023-05-04_16h54.55.857,ga_syllabified_check,2022.2.5,Win32,59.99520038,,,,,,,,,,,,,,./stim/p08_syllable_1_lakaguaisto_hit.wav,p08,lakaguaisto,hit,la-ka-gu-ais-to,la-ka-guais-to,la-ka-gu-ais-to,la-ka-gua-is-to,0.412037037,-0.100000028,1,0,0,3.7009,text_option_2,,0,198,198,183,1
5b376f54cf5e6a00018309ef,63f3cfca20052e4ae7554ebf,6453c703568e34be7f8be055,2023-05-04_16h54.55.857,ga_syllabified_check,2022.2.5,Win32,59.99520038,,,,,,,,,,,,,,./stim/p07_syllable_1_mebochiana_hit.wav,p07,mebochiana,hit,me-bo-chia-na,me-bo-chia-na,me-bo-chi-a-na, ,-0.328703704,-0.103703746,1,0,0,2.0373,text_option_1,,0,199,199,158,1
5b376f54cf5e6a00018309ef,63f3cfca20052e4ae7554ebf,6453c703568e34be7f8be055,2023-05-04_16h54.55.857,ga_syllabified_check,2022.2.5,Win32,59.99520038,,,,,,,,,,,,,,./stim/p06_syllable_1_pachialo_hit.wav,p06,pachialo,hit,pa-shi-a-lo,pa-chia-lo,pa-chi-a-lo, ,0.412037037,-0.117592635,1,0,0,1.3845,text_option_2,,0,200,200,126,1
5b376f54cf5e6a00018309ef,63f3cfca20052e4ae7554ebf,6453c703568e34be7f8be055,2023-05-04_16h54.55.857,ga_syllabified_check,2022.2.5,Win32,59.99520038,,,,,,,,,,,,,,./stim/p05_syllable_1_lakatuaisto_hit.wav,p05,lakatuaisto,hit,la-ka-tais-to,la-ka-tuais-to,la-ka-tu-ais-to,la-ka-tua-is-to,0.043518561,-0.297222208,1,0,0,1.7057,text_option_other,lakataisto,0,201,201,87,1
5b376f54cf5e6a00018309ef,63f3cfca20052e4ae7554ebf,6453c703568e34be7f8be055,2023-05-04_16h54.55.857,ga_syllabified_check,2022.2.5,Win32,59.99520038,,,,,,,,,,,,,,./stim/p06_syllable_1_lakatuaisto_hit.wav,p06,lakatuaisto,hit,la-ka-tu-a-is,la-ka-tuais-to,la-ka-tu-ais-to,la-ka-tua-is-to,0.058333362,-0.297222208,1,0,0,15.1621,text_option_other,la-ka-tu-a-is-to,0,202,202,121,1
5b376f54cf5e6a00018309ef,63f3cfca20052e4ae7554ebf,6453c703568e34be7f8be055,2023-05-04_16h54.55.857,ga_syllabified_check,2022.2.5,Win32,59.99520038,,,,,,,,,,,,,,./stim/p06_syllable_1_lakaduaisto_hit.wav,p06,lakaduaisto,hit,la-ka-du-a-is,la-ka-duais-to,la-ka-du-ais-to,la-ka-dua-is-to,0.002777806,-0.296296296,1,0,0,6.0161,text_option_other,la-ka-is-a-to...se me olvido,0,203,203,111,1
5b376f54cf5e6a00018309ef,63f3cfca20052e4ae7554ebf,6453c703568e34be7f8be055,2023-05-04_16h54.55.857,ga_syllabified_check,2022.2.5,Win32,59.99520038,,,,,,,,,,,,,,,,,,,,,,,,,,,,,,,,,,
