participant,study,session,date,expName,psychopyVersion,OS,frameRate,mouse_practice.x,mouse_practice.y,mouse_practice.leftButton,mouse_practice.midButton,mouse_practice.rightButton,mouse_practice.time,mouse_practice.clicked_name,textbox_followup_practice.text,trials_practice.thisRepN,trials_practice.thisTrialN,trials_practice.thisN,trials_practice.thisIndex,trials_practice.ran,file_path,id,item,status,response,op1,op2,op3,mouse.x,mouse.y,mouse.leftButton,mouse.midButton,mouse.rightButton,mouse.time,mouse.clicked_name,textbox_followup.text,trials.thisRepN,trials.thisTrialN,trials.thisN,trials.thisIndex,trials.ran
5baa866b7c0ebe000127a8eb,63f3cfca20052e4ae7554ebf,6453cbd4b6d47ac993dd59f3,2023-05-04_17h14.52.241,ga_syllabified_check,2022.2.5,Win32,143.9263097,,,,,,,,,,,,,,,,,,,,,,,,,,,,,,,,,,
5baa866b7c0ebe000127a8eb,63f3cfca20052e4ae7554ebf,6453cbd4b6d47ac993dd59f3,2023-05-04_17h14.52.241,ga_syllabified_check,2022.2.5,Win32,143.9263097,-0.380555556,-0.112037037,1,0,0,2.5696,text_option_1_practice,,0,0,0,0,1,./stim/p03_syllable_1_liamo_hit.wav,p03,liamo,hit,lia-mo,lia-mo,li-a-mo, ,,,,,,,,,,,,,
5baa866b7c0ebe000127a8eb,63f3cfca20052e4ae7554ebf,6453cbd4b6d47ac993dd59f3,2023-05-04_17h14.52.241,ga_syllabified_check,2022.2.5,Win32,143.9263097,-0.405555556,-0.108333333,1,0,0,1.7156,text_option_1_practice,,0,1,1,1,1,./stim/p05_syllable_1_matio_hit.wav,p05,matio,hit,ma-tio,ma-tio,ma-ti-o, ,,,,,,,,,,,,,
5baa866b7c0ebe000127a8eb,63f3cfca20052e4ae7554ebf,6453cbd4b6d47ac993dd59f3,2023-05-04_17h14.52.241,ga_syllabified_check,2022.2.5,Win32,143.9263097,-0.393518519,-0.103703704,1,0,0,2.431,text_option_1_practice,,0,2,2,2,1,./stim/p08_syllable_1_liamo_hit.wav,p08,liamo,hit,ja-mo,lia-mo,li-a-mo, ,,,,,,,,,,,,,
5baa866b7c0ebe000127a8eb,63f3cfca20052e4ae7554ebf,6453cbd4b6d47ac993dd59f3,2023-05-04_17h14.52.241,ga_syllabified_check,2022.2.5,Win32,143.9263097,,,,,,,,,,,,,,,,,,,,,,,,,,,,,,,,,,
5baa866b7c0ebe000127a8eb,63f3cfca20052e4ae7554ebf,6453cbd4b6d47ac993dd59f3,2023-05-04_17h14.52.241,ga_syllabified_check,2022.2.5,Win32,143.9263097,,,,,,,,,,,,,,./stim/p03_syllable_1_lakatuaisto_hit.wav,p03,lakatuaisto,hit,la-ka-tuais-to,la-ka-tuais-to,la-ka-tu-ais-to,la-ka-tua-is-to,-0.381481481,-0.102777778,1,0,0,3.1882,text_option_1,,0,0,0,19,1
5baa866b7c0ebe000127a8eb,63f3cfca20052e4ae7554ebf,6453cbd4b6d47ac993dd59f3,2023-05-04_17h14.52.241,ga_syllabified_check,2022.2.5,Win32,143.9263097,,,,,,,,,,,,,,./stim/p03_syllable_1_lakakuaisto_hit.wav,p03,lakakuaisto,hit,la-ka-kuais-to,la-ka-kuais-to,la-ka-ku-ais-to,la-ka-kua-is-to,-0.372222222,-0.107407407,1,0,0,4.7172,text_option_1,,0,1,1,15,1
5baa866b7c0ebe000127a8eb,63f3cfca20052e4ae7554ebf,6453cbd4b6d47ac993dd59f3,2023-05-04_17h14.52.241,ga_syllabified_check,2022.2.5,Win32,143.9263097,,,,,,,,,,,,,,./stim/p04_syllable_1_faluduako_hit.wav,p04,faluduako,hit,fa-lu-dua-ko,fa-lu-dua-ko,fa-lu-du-a-ko, ,-0.372222222,-0.107407407,1,0,0,1.3294,text_option_1,,0,2,2,36,1
5baa866b7c0ebe000127a8eb,63f3cfca20052e4ae7554ebf,6453cbd4b6d47ac993dd59f3,2023-05-04_17h14.52.241,ga_syllabified_check,2022.2.5,Win32,143.9263097,,,,,,,,,,,,,,./stim/p06_syllable_1_palufauro_hit.wav,p06,palufauro,hit,pa-lu-fau-ro,pa-lu-fau-ro,pa-lu-fa-u-ro, ,-0.014814815,-0.294444444,1,0,0,5.8339,text_option_other,pa-lo-fao-u-ro,0,3,3,127,1
5baa866b7c0ebe000127a8eb,63f3cfca20052e4ae7554ebf,6453cbd4b6d47ac993dd59f3,2023-05-04_17h14.52.241,ga_syllabified_check,2022.2.5,Win32,143.9263097,,,,,,,,,,,,,,./stim/p04_syllable_1_lakabiaisto_hit.wav,p04,lakabiaisto,hit,la-ka-biais-to,la-ka-biais-to,la-ka-bi-ais-to,la-ka-bia-is-to,-0.346296296,-0.101851852,1,0,0,4.5239,text_option_1,,0,4,4,40,1
5baa866b7c0ebe000127a8eb,63f3cfca20052e4ae7554ebf,6453cbd4b6d47ac993dd59f3,2023-05-04_17h14.52.241,ga_syllabified_check,2022.2.5,Win32,143.9263097,,,,,,,,,,,,,,./stim/p08_syllable_1_palufauto_hit.wav,p08,palufauto,hit,pa-lu-fau-to,pa-lu-fau-to,pa-lu-fa-u-to, ,-0.325925926,-0.105555556,1,0,0,3.6467,text_option_1,,0,5,5,196,1
5baa866b7c0ebe000127a8eb,63f3cfca20052e4ae7554ebf,6453cbd4b6d47ac993dd59f3,2023-05-04_17h14.52.241,ga_syllabified_check,2022.2.5,Win32,143.9263097,,,,,,,,,,,,,,./stim/p05_syllable_1_pachialo_hit.wav,p05,pachialo,hit,pan-chia-lo,pa-chia-lo,pa-chi-a-lo, ,-0.321296296,-0.109259259,1,0,0,2.9725,text_option_1,,0,6,6,92,1
5baa866b7c0ebe000127a8eb,63f3cfca20052e4ae7554ebf,6453cbd4b6d47ac993dd59f3,2023-05-04_17h14.52.241,ga_syllabified_check,2022.2.5,Win32,143.9263097,,,,,,,,,,,,,,./stim/p04_syllable_1_lakakuaisto_hit.wav,p04,lakakuaisto,hit,la-ka-kuais-to,la-ka-kuais-to,la-ka-ku-ais-to,la-ka-kua-is-to,-0.389814815,-0.106481481,1,0,0,2.1059,text_option_1,,0,7,7,49,1
5baa866b7c0ebe000127a8eb,63f3cfca20052e4ae7554ebf,6453cbd4b6d47ac993dd59f3,2023-05-04_17h14.52.241,ga_syllabified_check,2022.2.5,Win32,143.9263097,,,,,,,,,,,,,,./stim/p08_syllable_1_flauro_hit.wav,p08,flauro,hit,flau-ro,flau-ro,fla-u-ro, ,-0.407407407,-0.096296296,1,0,0,1.1571,text_option_1,,0,8,8,175,1
5baa866b7c0ebe000127a8eb,63f3cfca20052e4ae7554ebf,6453cbd4b6d47ac993dd59f3,2023-05-04_17h14.52.241,ga_syllabified_check,2022.2.5,Win32,143.9263097,,,,,,,,,,,,,,./stim/p06_syllable_1_lakadiaisto_hit.wav,p06,lakadiaisto,hit,la-ka-dia-is-to,la-ka-diais-to,la-ka-di-ais-to,la-ka-dia-is-to,0.034259259,-0.102777778,1,0,0,5.6874,text_option_3,,0,9,9,110,1
5baa866b7c0ebe000127a8eb,63f3cfca20052e4ae7554ebf,6453cbd4b6d47ac993dd59f3,2023-05-04_17h14.52.241,ga_syllabified_check,2022.2.5,Win32,143.9263097,,,,,,,,,,,,,,./stim/p07_syllable_1_lakakiaisto_hit.wav,p07,lakakiaisto,hit,la-ka-kais-to,la-ka-kiais-to,la-ka-ki-ais-to,la-ka-kia-is-to,0.011111111,-0.299074074,1,0,0,5.7639,text_option_other,la-ka-kais-to,0,10,10,150,1
5baa866b7c0ebe000127a8eb,63f3cfca20052e4ae7554ebf,6453cbd4b6d47ac993dd59f3,2023-05-04_17h14.52.241,ga_syllabified_check,2022.2.5,Win32,143.9263097,,,,,,,,,,,,,,./stim/p07_syllable_1_chiaba_hit.wav,p07,chiaba,hit,chia-ba,chia-ba,chi-a-ba, ,-0.407407407,-0.10462963,1,0,0,1.7641,text_option_1,,0,11,11,136,1
5baa866b7c0ebe000127a8eb,63f3cfca20052e4ae7554ebf,6453cbd4b6d47ac993dd59f3,2023-05-04_17h14.52.241,ga_syllabified_check,2022.2.5,Win32,143.9263097,,,,,,,,,,,,,,./stim/p04_syllable_1_manhiala_hit.wav,p04,mañiala,hit,ma-nhia-la,ma-ñia-la,ma-ñi-a-la, ,-0.380555556,-0.100925926,1,0,0,2.889,text_option_1,,0,12,12,55,1
5baa866b7c0ebe000127a8eb,63f3cfca20052e4ae7554ebf,6453cbd4b6d47ac993dd59f3,2023-05-04_17h14.52.241,ga_syllabified_check,2022.2.5,Win32,143.9263097,,,,,,,,,,,,,,./stim/p08_syllable_1_mebochiana_hit.wav,p08,mebochiana,hit,me-bo-chi-a-na,me-bo-chia-na,me-bo-chi-a-na, ,0.361111111,-0.087962963,1,0,0,2.8681,text_option_2,,0,13,13,192,1
5baa866b7c0ebe000127a8eb,63f3cfca20052e4ae7554ebf,6453cbd4b6d47ac993dd59f3,2023-05-04_17h14.52.241,ga_syllabified_check,2022.2.5,Win32,143.9263097,,,,,,,,,,,,,,./stim/p06_syllable_1_lakafuaisto_hit.wav,p06,lakafuaisto,hit,la-ka-fu-a-is,la-ka-fuais-to,la-ka-fu-ais-to,la-ka-fua-is-to,0.018518519,-0.305555556,1,0,0,5.5769,text_option_other,la-ka-fu-ais-to,0,14,14,113,1
5baa866b7c0ebe000127a8eb,63f3cfca20052e4ae7554ebf,6453cbd4b6d47ac993dd59f3,2023-05-04_17h14.52.241,ga_syllabified_check,2022.2.5,Win32,143.9263097,,,,,,,,,,,,,,./stim/p06_syllable_1_lliape_hit.wav,p06,lliape,hit,lli-lla-pe,llia-pe,lli-a-pe, ,-0.010185185,-0.305555556,1,0,0,7.3473,text_option_other,i-lli-a-pe,0,15,15,122,1
5baa866b7c0ebe000127a8eb,63f3cfca20052e4ae7554ebf,6453cbd4b6d47ac993dd59f3,2023-05-04_17h14.52.241,ga_syllabified_check,2022.2.5,Win32,143.9263097,,,,,,,,,,,,,,./stim/p05_syllable_1_faluduako_hit.wav,p05,faluduako,hit,fa-lu-ba-ko,fa-lu-dua-ko,fa-lu-du-a-ko, ,-0.006481481,-0.313888889,1,0,0,5.7222,text_option_other,fa-lu-da-ko,0,16,16,70,1
5baa866b7c0ebe000127a8eb,63f3cfca20052e4ae7554ebf,6453cbd4b6d47ac993dd59f3,2023-05-04_17h14.52.241,ga_syllabified_check,2022.2.5,Win32,143.9263097,,,,,,,,,,,,,,./stim/p05_syllable_1_lakatiaisto_hit.wav,p05,lakatiaisto,hit,la-ka-ti-ais-to,la-ka-tiais-to,la-ka-ti-ais-to,la-ka-tia-is-to,-0.372222222,-0.087037037,1,0,0,3.7987,text_option_1,,0,17,17,86,1
5baa866b7c0ebe000127a8eb,63f3cfca20052e4ae7554ebf,6453cbd4b6d47ac993dd59f3,2023-05-04_17h14.52.241,ga_syllabified_check,2022.2.5,Win32,143.9263097,,,,,,,,,,,,,,./stim/p08_syllable_1_lakaguaisto_hit.wav,p08,lakaguaisto,hit,la-ka-gu-ais-to,la-ka-guais-to,la-ka-gu-ais-to,la-ka-gua-is-to,0.368518519,-0.096296296,1,0,0,4.9864,text_option_2,,0,18,18,183,1
5baa866b7c0ebe000127a8eb,63f3cfca20052e4ae7554ebf,6453cbd4b6d47ac993dd59f3,2023-05-04_17h14.52.241,ga_syllabified_check,2022.2.5,Win32,143.9263097,,,,,,,,,,,,,,./stim/p04_syllable_1_falufaisto_hit.wav,p04,falufaisto,hit,fa-lu-fais-to,fa-lu-fais-to,fa-lu-fa-is-to, ,-0.385185185,-0.106481481,1,0,0,3.5069,text_option_1,,0,19,19,37,1
5baa866b7c0ebe000127a8eb,63f3cfca20052e4ae7554ebf,6453cbd4b6d47ac993dd59f3,2023-05-04_17h14.52.241,ga_syllabified_check,2022.2.5,Win32,143.9263097,,,,,,,,,,,,,,./stim/p07_syllable_1_manhiala_hit.wav,p07,mañiala,hit,ma-nhia-la,ma-ñia-la,ma-ñi-a-la, ,-0.362962963,-0.103703704,1,0,0,1.8959,text_option_1,,0,20,20,157,1
5baa866b7c0ebe000127a8eb,63f3cfca20052e4ae7554ebf,6453cbd4b6d47ac993dd59f3,2023-05-04_17h14.52.241,ga_syllabified_check,2022.2.5,Win32,143.9263097,,,,,,,,,,,,,,./stim/p07_syllable_1_rausto_hit.wav,p07,rausto,hit,raus-to,raus-to,ra-us-to, ,-0.361111111,-0.110185185,1,0,0,2.014,text_option_1,,0,21,21,167,1
5baa866b7c0ebe000127a8eb,63f3cfca20052e4ae7554ebf,6453cbd4b6d47ac993dd59f3,2023-05-04_17h14.52.241,ga_syllabified_check,2022.2.5,Win32,143.9263097,,,,,,,,,,,,,,./stim/p05_syllable_1_rausto_hit.wav,p05,rausto,hit,raus-to,raus-to,ra-us-to, ,-0.377777778,-0.107407407,1,0,0,0.5834,text_option_1,,0,22,22,99,1
5baa866b7c0ebe000127a8eb,63f3cfca20052e4ae7554ebf,6453cbd4b6d47ac993dd59f3,2023-05-04_17h14.52.241,ga_syllabified_check,2022.2.5,Win32,143.9263097,,,,,,,,,,,,,,./stim/p05_syllable_1_lakapuaisto_hit.wav,p05,lakapuaisto,hit,la-ka-pais-to,la-ka-puais-to,la-ka-pu-ais-to,la-ka-pua-is-to,-0.025925926,-0.296296296,1,0,0,7.0427,text_option_other,la-ka-pais-to,0,23,23,85,1
5baa866b7c0ebe000127a8eb,63f3cfca20052e4ae7554ebf,6453cbd4b6d47ac993dd59f3,2023-05-04_17h14.52.241,ga_syllabified_check,2022.2.5,Win32,143.9263097,,,,,,,,,,,,,,./stim/p05_syllable_1_chiaba_hit.wav,p05,chiaba,hit,chia-ba,chia-ba,chi-a-ba, ,-0.032407407,-0.305555556,1,0,0,3.7947,text_option_other,chai-ba,0,24,24,68,1
5baa866b7c0ebe000127a8eb,63f3cfca20052e4ae7554ebf,6453cbd4b6d47ac993dd59f3,2023-05-04_17h14.52.241,ga_syllabified_check,2022.2.5,Win32,143.9263097,,,,,,,,,,,,,,./stim/p08_syllable_1_lakabuaisto_hit.wav,p08,lakabuaisto,hit,la-ka-bu-ais-to,la-ka-buais-to,la-ka-bu-ais-to,la-ka-bua-is-to,0.400925926,-0.100925926,1,0,0,3.348,text_option_2,,0,25,25,177,1
5baa866b7c0ebe000127a8eb,63f3cfca20052e4ae7554ebf,6453cbd4b6d47ac993dd59f3,2023-05-04_17h14.52.241,ga_syllabified_check,2022.2.5,Win32,143.9263097,,,,,,,,,,,,,,./stim/p03_syllable_1_lakafuaisto_hit.wav,p03,lakafuaisto,hit,la-ka-fuais-to,la-ka-fuais-to,la-ka-fu-ais-to,la-ka-fua-is-to,-0.337962963,-0.110185185,1,0,0,1.6113,text_option_1,,0,26,26,11,1
5baa866b7c0ebe000127a8eb,63f3cfca20052e4ae7554ebf,6453cbd4b6d47ac993dd59f3,2023-05-04_17h14.52.241,ga_syllabified_check,2022.2.5,Win32,143.9263097,,,,,,,,,,,,,,./stim/p03_syllable_1_nhiape_hit.wav,p03,ñiape,hit,nhia-pe,ñia-pe,ñi-a-pe, ,-0.37037037,-0.116666667,1,0,0,1.1179,text_option_1,,0,27,27,23,1
5baa866b7c0ebe000127a8eb,63f3cfca20052e4ae7554ebf,6453cbd4b6d47ac993dd59f3,2023-05-04_17h14.52.241,ga_syllabified_check,2022.2.5,Win32,143.9263097,,,,,,,,,,,,,,./stim/p07_syllable_1_lakatuaisto_hit.wav,p07,lakatuaisto,hit,la-ka-tuais-to,la-ka-tuais-to,la-ka-tu-ais-to,la-ka-tua-is-to,-0.335185185,-0.101851852,1,0,0,2.875,text_option_1,,0,28,28,155,1
5baa866b7c0ebe000127a8eb,63f3cfca20052e4ae7554ebf,6453cbd4b6d47ac993dd59f3,2023-05-04_17h14.52.241,ga_syllabified_check,2022.2.5,Win32,143.9263097,,,,,,,,,,,,,,./stim/p04_syllable_1_rausto_hit.wav,p04,rausto,hit,raus-to,raus-to,ra-us-to, ,-0.366666667,-0.105555556,1,0,0,0.528,text_option_1,,0,29,29,65,1
5baa866b7c0ebe000127a8eb,63f3cfca20052e4ae7554ebf,6453cbd4b6d47ac993dd59f3,2023-05-04_17h14.52.241,ga_syllabified_check,2022.2.5,Win32,143.9263097,,,,,,,,,,,,,,./stim/p04_syllable_1_palufauro_hit.wav,p04,palufauro,hit,pa-lu-fau-ro,pa-lu-fau-ro,pa-lu-fa-u-ro, ,-0.367592593,-0.105555556,1,0,0,2.5977,text_option_1,,0,30,30,59,1
5baa866b7c0ebe000127a8eb,63f3cfca20052e4ae7554ebf,6453cbd4b6d47ac993dd59f3,2023-05-04_17h14.52.241,ga_syllabified_check,2022.2.5,Win32,143.9263097,,,,,,,,,,,,,,./stim/p08_syllable_1_chiaba_hit.wav,p08,chiaba,hit,chi-a-ba,chia-ba,chi-a-ba, ,0.381481481,-0.096296296,1,0,0,1.0309,text_option_2,,0,31,31,170,1
5baa866b7c0ebe000127a8eb,63f3cfca20052e4ae7554ebf,6453cbd4b6d47ac993dd59f3,2023-05-04_17h14.52.241,ga_syllabified_check,2022.2.5,Win32,143.9263097,,,,,,,,,,,,,,./stim/p07_syllable_1_lakafiaisto_hit.wav,p07,lakafiaisto,hit,la-ka-fiais-to,la-ka-fiais-to,la-ka-fi-ais-to,la-ka-fia-is-to,-0.346296296,-0.103703704,1,0,0,1.9168,text_option_1,,0,32,32,146,1
5baa866b7c0ebe000127a8eb,63f3cfca20052e4ae7554ebf,6453cbd4b6d47ac993dd59f3,2023-05-04_17h14.52.241,ga_syllabified_check,2022.2.5,Win32,143.9263097,,,,,,,,,,,,,,./stim/p03_syllable_1_lakaguaisto_hit.wav,p03,lakaguaisto,hit,la-ka-guais-to,la-ka-guais-to,la-ka-gu-ais-to,la-ka-gua-is-to,-0.337962963,-0.107407407,1,0,0,1.6736,text_option_1,,0,33,33,13,1
5baa866b7c0ebe000127a8eb,63f3cfca20052e4ae7554ebf,6453cbd4b6d47ac993dd59f3,2023-05-04_17h14.52.241,ga_syllabified_check,2022.2.5,Win32,143.9263097,,,,,,,,,,,,,,./stim/p05_syllable_1_payielo_hit.wav,p05,payielo,hit,pai-yu-we-lo,pa-yie-lo,pa-yi-e-lo, ,0.025,-0.310185185,1,0,0,1.5002,text_option_other,pa-yue-lo,0,34,34,98,1
5baa866b7c0ebe000127a8eb,63f3cfca20052e4ae7554ebf,6453cbd4b6d47ac993dd59f3,2023-05-04_17h14.52.241,ga_syllabified_check,2022.2.5,Win32,143.9263097,,,,,,,,,,,,,,./stim/p04_syllable_1_lakapiaisto_hit.wav,p04,lakapiaisto,hit,la-ka-piais-to,la-ka-piais-to,la-ka-pi-ais-to,la-ka-pia-is-to,-0.326851852,-0.109259259,1,0,0,3.8126,text_option_1,,0,35,35,50,1
5baa866b7c0ebe000127a8eb,63f3cfca20052e4ae7554ebf,6453cbd4b6d47ac993dd59f3,2023-05-04_17h14.52.241,ga_syllabified_check,2022.2.5,Win32,143.9263097,,,,,,,,,,,,,,./stim/p04_syllable_1_lakafuaisto_hit.wav,p04,lakafuaisto,hit,la-ka-fuais-to,la-ka-fuais-to,la-ka-fu-ais-to,la-ka-fua-is-to,-0.32962963,-0.107407407,1,0,0,0.889,text_option_1,,0,36,36,45,1
5baa866b7c0ebe000127a8eb,63f3cfca20052e4ae7554ebf,6453cbd4b6d47ac993dd59f3,2023-05-04_17h14.52.241,ga_syllabified_check,2022.2.5,Win32,143.9263097,,,,,,,,,,,,,,./stim/p08_syllable_1_faluduako_hit.wav,p08,faluduako,hit,fa-lu-duai-ko,fa-lu-dua-ko,fa-lu-du-a-ko, ,-0.023148148,-0.307407407,1,0,0,2.7153,text_option_other,fa-lu-duai-ko,0,37,37,172,1
5baa866b7c0ebe000127a8eb,63f3cfca20052e4ae7554ebf,6453cbd4b6d47ac993dd59f3,2023-05-04_17h14.52.241,ga_syllabified_check,2022.2.5,Win32,143.9263097,,,,,,,,,,,,,,./stim/p06_syllable_1_palufauto_hit.wav,p06,palufauto,hit,pa-lu-fau-to,pa-lu-fau-to,pa-lu-fa-u-to, ,-0.366666667,-0.102777778,1,0,0,3.2222,text_option_1,,0,38,38,128,1
5baa866b7c0ebe000127a8eb,63f3cfca20052e4ae7554ebf,6453cbd4b6d47ac993dd59f3,2023-05-04_17h14.52.241,ga_syllabified_check,2022.2.5,Win32,143.9263097,,,,,,,,,,,,,,./stim/p08_syllable_1_lakapuaisto_hit.wav,p08,lakapuaisto,hit,la-ka-pu-as-to,la-ka-puais-to,la-ka-pu-ais-to,la-ka-pua-is-to,-0.05,-0.311111111,1,0,0,6.1806,text_option_other,la-ka-pu-as-to,0,39,39,187,1
5baa866b7c0ebe000127a8eb,63f3cfca20052e4ae7554ebf,6453cbd4b6d47ac993dd59f3,2023-05-04_17h14.52.241,ga_syllabified_check,2022.2.5,Win32,143.9263097,,,,,,,,,,,,,,./stim/p03_syllable_1_mebochiana_hit.wav,p03,mebochiana,hit,me-bo-chia-na,me-bo-chia-na,me-bo-chi-a-na, ,-0.382407407,-0.097222222,1,0,0,2.892,text_option_1,,0,40,40,22,1
5baa866b7c0ebe000127a8eb,63f3cfca20052e4ae7554ebf,6453cbd4b6d47ac993dd59f3,2023-05-04_17h14.52.241,ga_syllabified_check,2022.2.5,Win32,143.9263097,,,,,,,,,,,,,,./stim/p05_syllable_1_tuliafo_hit.wav,p05,tuliafo,hit,tu-lai-fo,tu-lia-fo,tu-li-a-fo, ,-0.049074074,-0.312962963,1,0,0,2.5975,text_option_other,tu-lai-fo,0,41,41,101,1
5baa866b7c0ebe000127a8eb,63f3cfca20052e4ae7554ebf,6453cbd4b6d47ac993dd59f3,2023-05-04_17h14.52.241,ga_syllabified_check,2022.2.5,Win32,143.9263097,,,,,,,,,,,,,,./stim/p07_syllable_1_mebochiana_hit.wav,p07,mebochiana,hit,me-bo-chia-na,me-bo-chia-na,me-bo-chi-a-na, ,-0.334259259,-0.097222222,1,0,0,2.3967,text_option_1,,0,42,42,158,1
5baa866b7c0ebe000127a8eb,63f3cfca20052e4ae7554ebf,6453cbd4b6d47ac993dd59f3,2023-05-04_17h14.52.241,ga_syllabified_check,2022.2.5,Win32,143.9263097,,,,,,,,,,,,,,./stim/p08_syllable_1_falutraigo_hit.wav,p08,falutraigo,hit,fa-lu-trai-go,fa-lu-trai-go,fa-lu-tra-i-go, ,-0.315740741,-0.097222222,1,0,0,2.4584,text_option_1,,0,43,43,174,1
5baa866b7c0ebe000127a8eb,63f3cfca20052e4ae7554ebf,6453cbd4b6d47ac993dd59f3,2023-05-04_17h14.52.241,ga_syllabified_check,2022.2.5,Win32,143.9263097,,,,,,,,,,,,,,./stim/p06_syllable_1_lakatiaisto_hit.wav,p06,lakatiaisto,hit,la-ka-pia-is-to,la-ka-tiais-to,la-ka-ti-ais-to,la-ka-tia-is-to,0.009259259,-0.109259259,1,0,0,3.7638,text_option_3,,0,44,44,120,1
5baa866b7c0ebe000127a8eb,63f3cfca20052e4ae7554ebf,6453cbd4b6d47ac993dd59f3,2023-05-04_17h14.52.241,ga_syllabified_check,2022.2.5,Win32,143.9263097,,,,,,,,,,,,,,./stim/p03_syllable_1_lakadiaisto_hit.wav,p03,lakadiaisto,hit,la-ka-diais-to,la-ka-diais-to,la-ka-di-ais-to,la-ka-dia-is-to,-0.342592593,-0.109259259,1,0,0,1.6249,text_option_1,,0,45,45,8,1
5baa866b7c0ebe000127a8eb,63f3cfca20052e4ae7554ebf,6453cbd4b6d47ac993dd59f3,2023-05-04_17h14.52.241,ga_syllabified_check,2022.2.5,Win32,143.9263097,,,,,,,,,,,,,,./stim/p03_syllable_1_palufauto_hit.wav,p03,palufauto,hit,pa-lu-fau,pa-lu-fau-to,pa-lu-fa-u-to, ,-0.332407407,-0.105555556,1,0,0,0.9167,text_option_1,,0,46,46,26,1
5baa866b7c0ebe000127a8eb,63f3cfca20052e4ae7554ebf,6453cbd4b6d47ac993dd59f3,2023-05-04_17h14.52.241,ga_syllabified_check,2022.2.5,Win32,143.9263097,,,,,,,,,,,,,,./stim/p06_syllable_1_nhiape_hit.wav,p06,ñiape,hit,nhi-a-pe,ñia-pe,ñi-a-pe, ,0.409259259,-0.098148148,1,0,0,1.3055,text_option_2,,0,47,47,125,1
5baa866b7c0ebe000127a8eb,63f3cfca20052e4ae7554ebf,6453cbd4b6d47ac993dd59f3,2023-05-04_17h14.52.241,ga_syllabified_check,2022.2.5,Win32,143.9263097,,,,,,,,,,,,,,./stim/p08_syllable_1_payielo_hit.wav,p08,payielo,hit,pa-yie-lo,pa-yie-lo,pa-yi-e-lo, ,0.049074074,-0.305555556,1,0,0,1.3754,text_option_other,pai-ye-lo,0,48,48,200,1
5baa866b7c0ebe000127a8eb,63f3cfca20052e4ae7554ebf,6453cbd4b6d47ac993dd59f3,2023-05-04_17h14.52.241,ga_syllabified_check,2022.2.5,Win32,143.9263097,,,,,,,,,,,,,,./stim/p06_syllable_1_palumaisto_hit.wav,p06,palumaisto,hit,pa-lu-ma-is-to,pa-lu-mais-to,pa-lu-ma-is-to, ,0.389814815,-0.094444444,1,0,0,3.2014,text_option_2,,0,49,49,130,1
5baa866b7c0ebe000127a8eb,63f3cfca20052e4ae7554ebf,6453cbd4b6d47ac993dd59f3,2023-05-04_17h14.52.241,ga_syllabified_check,2022.2.5,Win32,143.9263097,,,,,,,,,,,,,,./stim/p05_syllable_1_paluguato_hit.wav,p05,paluguato,hit,pa-lu-gau-to,pa-lu-gua-to,pa-lu-gu-a-to, ,0.086111111,-0.291666667,1,0,0,3.6486,text_option_other,pa-lu-gau-to,0,50,50,95,1
5baa866b7c0ebe000127a8eb,63f3cfca20052e4ae7554ebf,6453cbd4b6d47ac993dd59f3,2023-05-04_17h14.52.241,ga_syllabified_check,2022.2.5,Win32,143.9263097,,,,,,,,,,,,,,./stim/p05_syllable_1_palufauto_hit.wav,p05,palufauto,hit,pa-lu-fau-to,pa-lu-fau-to,pa-lu-fa-u-to, ,-0.328703704,-0.103703704,1,0,0,0.9375,text_option_1,,0,51,51,94,1
5baa866b7c0ebe000127a8eb,63f3cfca20052e4ae7554ebf,6453cbd4b6d47ac993dd59f3,2023-05-04_17h14.52.241,ga_syllabified_check,2022.2.5,Win32,143.9263097,,,,,,,,,,,,,,./stim/p03_syllable_1_lliape_hit.wav,p03,lliape,hit,llia,llia-pe,lli-a-pe, ,-0.365740741,-0.107407407,1,0,0,3.1838,text_option_1,,0,52,52,20,1
5baa866b7c0ebe000127a8eb,63f3cfca20052e4ae7554ebf,6453cbd4b6d47ac993dd59f3,2023-05-04_17h14.52.241,ga_syllabified_check,2022.2.5,Win32,143.9263097,,,,,,,,,,,,,,./stim/p03_syllable_1_lakapiaisto_hit.wav,p03,lakapiaisto,hit,la-ka-piais-to,la-ka-piais-to,la-ka-pi-ais-to,la-ka-pia-is-to,-0.371296296,-0.108333333,1,0,0,1.834,text_option_1,,0,53,53,16,1
5baa866b7c0ebe000127a8eb,63f3cfca20052e4ae7554ebf,6453cbd4b6d47ac993dd59f3,2023-05-04_17h14.52.241,ga_syllabified_check,2022.2.5,Win32,143.9263097,,,,,,,,,,,,,,./stim/p07_syllable_1_costonhialo_hit.wav,p07,costoñialo,hit,cos-to-nhia-lo,cos-to-ñia-lo,cos-to-ñi-a-lo, ,-0.35,-0.101851852,1,0,0,2.0796,text_option_1,,0,54,54,137,1
5baa866b7c0ebe000127a8eb,63f3cfca20052e4ae7554ebf,6453cbd4b6d47ac993dd59f3,2023-05-04_17h14.52.241,ga_syllabified_check,2022.2.5,Win32,143.9263097,,,,,,,,,,,,,,./stim/p03_syllable_1_lakabiaisto_hit.wav,p03,lakabiaisto,hit,la-ka-biais-to,la-ka-biais-to,la-ka-bi-ais-to,la-ka-bia-is-to,-0.334259259,-0.112962963,1,0,0,2.0486,text_option_1,,0,55,55,6,1
5baa866b7c0ebe000127a8eb,63f3cfca20052e4ae7554ebf,6453cbd4b6d47ac993dd59f3,2023-05-04_17h14.52.241,ga_syllabified_check,2022.2.5,Win32,143.9263097,,,,,,,,,,,,,,./stim/p03_syllable_1_lakagiaisto_hit.wav,p03,lakagiaisto,hit,la-ka-giais-to,la-ka-giais-to,la-ka-gi-ais-to,la-ka-gia-is-to,0.057407407,-0.292592593,1,0,0,3.2641,text_option_other,la-ka-guiais-to,0,56,56,12,1
5baa866b7c0ebe000127a8eb,63f3cfca20052e4ae7554ebf,6453cbd4b6d47ac993dd59f3,2023-05-04_17h14.52.241,ga_syllabified_check,2022.2.5,Win32,143.9263097,,,,,,,,,,,,,,./stim/p07_syllable_1_lakabuaisto_hit.wav,p07,lakabuaisto,hit,la-ka-buais-to,la-ka-buais-to,la-ka-bu-ais-to,la-ka-bua-is-to,-0.002777778,-0.3,1,0,0,2.4306,text_option_other,la-ka-guais-to,0,57,57,143,1
5baa866b7c0ebe000127a8eb,63f3cfca20052e4ae7554ebf,6453cbd4b6d47ac993dd59f3,2023-05-04_17h14.52.241,ga_syllabified_check,2022.2.5,Win32,143.9263097,,,,,,,,,,,,,,./stim/p04_syllable_1_lakatuaisto_hit.wav,p04,lakatuaisto,hit,la-ka-kuais-to,la-ka-tuais-to,la-ka-tu-ais-to,la-ka-tua-is-to,-0.328703704,-0.087037037,1,0,0,1.2013,text_option_1,,0,58,58,53,1
5baa866b7c0ebe000127a8eb,63f3cfca20052e4ae7554ebf,6453cbd4b6d47ac993dd59f3,2023-05-04_17h14.52.241,ga_syllabified_check,2022.2.5,Win32,143.9263097,,,,,,,,,,,,,,./stim/p03_syllable_1_paluguato_hit.wav,p03,paluguato,hit,pa-lu-gua,pa-lu-gua-to,pa-lu-gu-a-to, ,-0.328703704,-0.09537037,1,0,0,1.25,text_option_1,,0,59,59,27,1
5baa866b7c0ebe000127a8eb,63f3cfca20052e4ae7554ebf,6453cbd4b6d47ac993dd59f3,2023-05-04_17h14.52.241,ga_syllabified_check,2022.2.5,Win32,143.9263097,,,,,,,,,,,,,,./stim/p03_syllable_1_ruyiola_hit.wav,p03,ruyiola,hit,ru-yio-la,ru-yio-la,ru-yi-o-la, ,-0.358333333,-0.103703704,1,0,0,0.6599,text_option_1,,0,60,60,32,1
5baa866b7c0ebe000127a8eb,63f3cfca20052e4ae7554ebf,6453cbd4b6d47ac993dd59f3,2023-05-04_17h14.52.241,ga_syllabified_check,2022.2.5,Win32,143.9263097,,,,,,,,,,,,,,./stim/p03_syllable_1_faluduako_hit.wav,p03,faluduako,hit,fa-lu-dua-ko,fa-lu-dua-ko,fa-lu-du-a-ko, ,0.081481481,-0.298148148,1,0,0,2.2014,text_option_other,fa-lu-dua-ko,0,61,61,2,1
5baa866b7c0ebe000127a8eb,63f3cfca20052e4ae7554ebf,6453cbd4b6d47ac993dd59f3,2023-05-04_17h14.52.241,ga_syllabified_check,2022.2.5,Win32,143.9263097,,,,,,,,,,,,,,./stim/p03_syllable_1_lakaduaisto_hit.wav,p03,lakaduaisto,hit,la-ka-duais-to,la-ka-duais-to,la-ka-du-ais-to,la-ka-dua-is-to,-0.349074074,-0.110185185,1,0,0,1.57,text_option_1,,0,62,62,9,1
5baa866b7c0ebe000127a8eb,63f3cfca20052e4ae7554ebf,6453cbd4b6d47ac993dd59f3,2023-05-04_17h14.52.241,ga_syllabified_check,2022.2.5,Win32,143.9263097,,,,,,,,,,,,,,./stim/p07_syllable_1_nhiape_hit.wav,p07,ñiape,hit,nhia-pe,ñia-pe,ñi-a-pe, ,-0.357407407,-0.105555556,1,0,0,0.6253,text_option_1,,0,63,63,159,1
5baa866b7c0ebe000127a8eb,63f3cfca20052e4ae7554ebf,6453cbd4b6d47ac993dd59f3,2023-05-04_17h14.52.241,ga_syllabified_check,2022.2.5,Win32,143.9263097,,,,,,,,,,,,,,./stim/p04_syllable_1_ruyiola_hit.wav,p04,ruyiola,hit,ru-yio-la,ru-yio-la,ru-yi-o-la, ,-0.381481481,-0.091666667,1,0,0,0.6875,text_option_1,,0,64,64,66,1
5baa866b7c0ebe000127a8eb,63f3cfca20052e4ae7554ebf,6453cbd4b6d47ac993dd59f3,2023-05-04_17h14.52.241,ga_syllabified_check,2022.2.5,Win32,143.9263097,,,,,,,,,,,,,,./stim/p04_syllable_1_chiaba_hit.wav,p04,chiaba,hit,chia-ba,chia-ba,chi-a-ba, ,-0.359259259,-0.114814815,1,0,0,0.4302,text_option_1,,0,65,65,34,1
5baa866b7c0ebe000127a8eb,63f3cfca20052e4ae7554ebf,6453cbd4b6d47ac993dd59f3,2023-05-04_17h14.52.241,ga_syllabified_check,2022.2.5,Win32,143.9263097,,,,,,,,,,,,,,./stim/p04_syllable_1_palufauto_hit.wav,p04,palufauto,hit,pa-lu-fau-to,pa-lu-fau-to,pa-lu-fa-u-to, ,-0.344444444,-0.10462963,1,0,0,0.5486,text_option_1,,0,66,66,60,1
5baa866b7c0ebe000127a8eb,63f3cfca20052e4ae7554ebf,6453cbd4b6d47ac993dd59f3,2023-05-04_17h14.52.241,ga_syllabified_check,2022.2.5,Win32,143.9263097,,,,,,,,,,,,,,./stim/p08_syllable_1_palumaisto_hit.wav,p08,palumaisto,hit,pa-lu-mais-to,pa-lu-mais-to,pa-lu-ma-is-to, ,-0.35,-0.105555556,1,0,0,2.1527,text_option_1,,0,67,67,198,1
5baa866b7c0ebe000127a8eb,63f3cfca20052e4ae7554ebf,6453cbd4b6d47ac993dd59f3,2023-05-04_17h14.52.241,ga_syllabified_check,2022.2.5,Win32,143.9263097,,,,,,,,,,,,,,./stim/p03_syllable_1_lakapuaisto_hit.wav,p03,lakapuaisto,hit,la-ka-puais-to,la-ka-puais-to,la-ka-pu-ais-to,la-ka-pua-is-to,-0.35,-0.105555556,1,0,0,1.3124,text_option_1,,0,68,68,17,1
5baa866b7c0ebe000127a8eb,63f3cfca20052e4ae7554ebf,6453cbd4b6d47ac993dd59f3,2023-05-04_17h14.52.241,ga_syllabified_check,2022.2.5,Win32,143.9263097,,,,,,,,,,,,,,./stim/p08_syllable_1_lakakiaisto_hit.wav,p08,lakakiaisto,hit,la-ka-ki-jas-to,la-ka-kiais-to,la-ka-ki-ais-to,la-ka-kia-is-to,0.088888889,-0.308333333,1,0,0,2.8678,text_option_other,la-ka-kias-to,0,69,69,184,1
5baa866b7c0ebe000127a8eb,63f3cfca20052e4ae7554ebf,6453cbd4b6d47ac993dd59f3,2023-05-04_17h14.52.241,ga_syllabified_check,2022.2.5,Win32,143.9263097,,,,,,,,,,,,,,./stim/p04_syllable_1_lliape_hit.wav,p04,lliape,hit,lia-pe,llia-pe,lli-a-pe, ,-0.37037037,-0.107407407,1,0,0,0.924,text_option_1,,0,70,70,54,1
5baa866b7c0ebe000127a8eb,63f3cfca20052e4ae7554ebf,6453cbd4b6d47ac993dd59f3,2023-05-04_17h14.52.241,ga_syllabified_check,2022.2.5,Win32,143.9263097,,,,,,,,,,,,,,./stim/p07_syllable_1_lakadiaisto_hit.wav,p07,lakadiaisto,hit,la-ka-dia-is-to,la-ka-diais-to,la-ka-di-ais-to,la-ka-dia-is-to,0.042592593,-0.1,1,0,0,2.5279,text_option_3,,0,71,71,144,1
5baa866b7c0ebe000127a8eb,63f3cfca20052e4ae7554ebf,6453cbd4b6d47ac993dd59f3,2023-05-04_17h14.52.241,ga_syllabified_check,2022.2.5,Win32,143.9263097,,,,,,,,,,,,,,./stim/p08_syllable_1_pachialo_hit.wav,p08,pachialo,hit,pa-chi-ja-lo,pa-chia-lo,pa-chi-a-lo, ,0.387037037,-0.105555556,1,0,0,1.0836,text_option_2,,0,72,72,194,1
5baa866b7c0ebe000127a8eb,63f3cfca20052e4ae7554ebf,6453cbd4b6d47ac993dd59f3,2023-05-04_17h14.52.241,ga_syllabified_check,2022.2.5,Win32,143.9263097,,,,,,,,,,,,,,./stim/p07_syllable_1_falutraigo_hit.wav,p07,falutraigo,hit,fa-lu-trai-go,fa-lu-trai-go,fa-lu-tra-i-go, ,-0.357407407,-0.108333333,1,0,0,2.3334,text_option_1,,0,73,73,140,1
5baa866b7c0ebe000127a8eb,63f3cfca20052e4ae7554ebf,6453cbd4b6d47ac993dd59f3,2023-05-04_17h14.52.241,ga_syllabified_check,2022.2.5,Win32,143.9263097,,,,,,,,,,,,,,./stim/p06_syllable_1_payielo_hit.wav,p06,payielo,hit,pa-yi-e-lo,pa-yie-lo,pa-yi-e-lo, ,0.393518519,-0.101851852,1,0,0,1.8196,text_option_2,,0,74,74,132,1
5baa866b7c0ebe000127a8eb,63f3cfca20052e4ae7554ebf,6453cbd4b6d47ac993dd59f3,2023-05-04_17h14.52.241,ga_syllabified_check,2022.2.5,Win32,143.9263097,,,,,,,,,,,,,,./stim/p08_syllable_1_manhiala_hit.wav,p08,mañiala,hit,ma-nhia-la,ma-ñia-la,ma-ñi-a-la, ,-0.381481481,-0.099074074,1,0,0,1.3886,text_option_1,,0,75,75,191,1
5baa866b7c0ebe000127a8eb,63f3cfca20052e4ae7554ebf,6453cbd4b6d47ac993dd59f3,2023-05-04_17h14.52.241,ga_syllabified_check,2022.2.5,Win32,143.9263097,,,,,,,,,,,,,,./stim/p05_syllable_1_costonhialo_hit.wav,p05,costoñialo,hit,cos-to-nhia-lo,cos-to-ñia-lo,cos-to-ñi-a-lo, ,-0.378703704,-0.101851852,1,0,0,1.7711,text_option_1,,0,76,76,69,1
5baa866b7c0ebe000127a8eb,63f3cfca20052e4ae7554ebf,6453cbd4b6d47ac993dd59f3,2023-05-04_17h14.52.241,ga_syllabified_check,2022.2.5,Win32,143.9263097,,,,,,,,,,,,,,./stim/p05_syllable_1_lliape_hit.wav,p05,lliape,hit,liai-pe,llia-pe,lli-a-pe, ,0.050925926,-0.30462963,1,0,0,3.489,text_option_other,lliai-pe,0,77,77,88,1
5baa866b7c0ebe000127a8eb,63f3cfca20052e4ae7554ebf,6453cbd4b6d47ac993dd59f3,2023-05-04_17h14.52.241,ga_syllabified_check,2022.2.5,Win32,143.9263097,,,,,,,,,,,,,,./stim/p05_syllable_1_lakaduaisto_hit.wav,p05,lakaduaisto,hit,la-ka-dais-to,la-ka-duais-to,la-ka-du-ais-to,la-ka-dua-is-to,0.005555556,-0.292592593,1,0,0,1.0943,text_option_other,la-ka-dais-to,0,78,78,77,1
5baa866b7c0ebe000127a8eb,63f3cfca20052e4ae7554ebf,6453cbd4b6d47ac993dd59f3,2023-05-04_17h14.52.241,ga_syllabified_check,2022.2.5,Win32,143.9263097,,,,,,,,,,,,,,./stim/p05_syllable_1_falutraigo_hit.wav,p05,falutraigo,hit,fa-lu-trai-go,fa-lu-trai-go,fa-lu-tra-i-go, ,-0.34537037,-0.099074074,1,0,0,0.8999,text_option_1,,0,79,79,72,1
5baa866b7c0ebe000127a8eb,63f3cfca20052e4ae7554ebf,6453cbd4b6d47ac993dd59f3,2023-05-04_17h14.52.241,ga_syllabified_check,2022.2.5,Win32,143.9263097,,,,,,,,,,,,,,./stim/p07_syllable_1_lakapuaisto_hit.wav,p07,lakapuaisto,hit,la-ka-puais-to,la-ka-puais-to,la-ka-pu-ais-to,la-ka-pua-is-to,-0.314814815,-0.094444444,1,0,0,2.5212,text_option_1,,0,80,80,153,1
5baa866b7c0ebe000127a8eb,63f3cfca20052e4ae7554ebf,6453cbd4b6d47ac993dd59f3,2023-05-04_17h14.52.241,ga_syllabified_check,2022.2.5,Win32,143.9263097,,,,,,,,,,,,,,./stim/p06_syllable_1_lakafiaisto_hit.wav,p06,lakafiaisto,hit,la-ka-fia-is-to,la-ka-fiais-to,la-ka-fi-ais-to,la-ka-fia-is-to,0.026851852,-0.102777778,1,0,0,3.2779,text_option_3,,0,81,81,112,1
5baa866b7c0ebe000127a8eb,63f3cfca20052e4ae7554ebf,6453cbd4b6d47ac993dd59f3,2023-05-04_17h14.52.241,ga_syllabified_check,2022.2.5,Win32,143.9263097,,,,,,,,,,,,,,./stim/p04_syllable_1_lakadiaisto_hit.wav,p04,lakadiaisto,hit,la-ka-dias-to,la-ka-diais-to,la-ka-di-ais-to,la-ka-dia-is-to,-0.356481481,-0.09537037,1,0,0,1.1597,text_option_1,,0,82,82,42,1
5baa866b7c0ebe000127a8eb,63f3cfca20052e4ae7554ebf,6453cbd4b6d47ac993dd59f3,2023-05-04_17h14.52.241,ga_syllabified_check,2022.2.5,Win32,143.9263097,,,,,,,,,,,,,,./stim/p06_syllable_1_lakakiaisto_hit.wav,p06,lakakiaisto,hit,la-ka-kia-is-to,la-ka-kiais-to,la-ka-ki-ais-to,la-ka-kia-is-to,-0.057407407,-0.098148148,1,0,0,4.1418,text_option_3,,0,83,83,116,1
5baa866b7c0ebe000127a8eb,63f3cfca20052e4ae7554ebf,6453cbd4b6d47ac993dd59f3,2023-05-04_17h14.52.241,ga_syllabified_check,2022.2.5,Win32,143.9263097,,,,,,,,,,,,,,./stim/p07_syllable_1_lakabiaisto_hit.wav,p07,lakabiaisto,hit,la-ka-bais-to,la-ka-biais-to,la-ka-bi-ais-to,la-ka-bia-is-to,0.034259259,-0.291666667,1,0,0,2.0427,text_option_other,la-ka-bais-to,0,84,84,142,1
5baa866b7c0ebe000127a8eb,63f3cfca20052e4ae7554ebf,6453cbd4b6d47ac993dd59f3,2023-05-04_17h14.52.241,ga_syllabified_check,2022.2.5,Win32,143.9263097,,,,,,,,,,,,,,./stim/p04_syllable_1_lakatiaisto_hit.wav,p04,lakatiaisto,hit,la-ka-kiais-to,la-ka-tiais-to,la-ka-ti-ais-to,la-ka-tia-is-to,-0.326851852,-0.109259259,1,0,0,0.9376,text_option_1,,0,85,85,52,1
5baa866b7c0ebe000127a8eb,63f3cfca20052e4ae7554ebf,6453cbd4b6d47ac993dd59f3,2023-05-04_17h14.52.241,ga_syllabified_check,2022.2.5,Win32,143.9263097,,,,,,,,,,,,,,./stim/p06_syllable_1_paluguato_hit.wav,p06,paluguato,hit,pa-lu-gua-to,pa-lu-gua-to,pa-lu-gu-a-to, ,-0.337962963,-0.096296296,1,0,0,2.2707,text_option_1,,0,86,86,129,1
5baa866b7c0ebe000127a8eb,63f3cfca20052e4ae7554ebf,6453cbd4b6d47ac993dd59f3,2023-05-04_17h14.52.241,ga_syllabified_check,2022.2.5,Win32,143.9263097,,,,,,,,,,,,,,./stim/p03_syllable_1_costonhialo_hit.wav,p03,costoñialo,hit,cos-to-nhia-lo,cos-to-ñia-lo,cos-to-ñi-a-lo, ,-0.361111111,-0.090740741,1,0,0,1.1791,text_option_1,,0,87,87,1,1
5baa866b7c0ebe000127a8eb,63f3cfca20052e4ae7554ebf,6453cbd4b6d47ac993dd59f3,2023-05-04_17h14.52.241,ga_syllabified_check,2022.2.5,Win32,143.9263097,,,,,,,,,,,,,,./stim/p06_syllable_1_flauro_hit.wav,p06,flauro,hit,fla-u-ro,flau-ro,fla-u-ro, ,0.421296296,-0.091666667,1,0,0,1.0733,text_option_2,,0,88,88,107,1
5baa866b7c0ebe000127a8eb,63f3cfca20052e4ae7554ebf,6453cbd4b6d47ac993dd59f3,2023-05-04_17h14.52.241,ga_syllabified_check,2022.2.5,Win32,143.9263097,,,,,,,,,,,,,,./stim/p05_syllable_1_lakafiaisto_hit.wav,p05,lakafiaisto,hit,la-ka-fi-ais-to,la-ka-fiais-to,la-ka-fi-ais-to,la-ka-fia-is-to,0.019444444,-0.098148148,1,0,0,2.792,text_option_3,,0,89,89,78,1
5baa866b7c0ebe000127a8eb,63f3cfca20052e4ae7554ebf,6453cbd4b6d47ac993dd59f3,2023-05-04_17h14.52.241,ga_syllabified_check,2022.2.5,Win32,143.9263097,,,,,,,,,,,,,,./stim/p05_syllable_1_falufaisto_hit.wav,p05,falufaisto,hit,fa-lu-fais-to,fa-lu-fais-to,fa-lu-fa-is-to, ,-0.364814815,-0.098148148,1,0,0,2.2777,text_option_1,,0,90,90,71,1
5baa866b7c0ebe000127a8eb,63f3cfca20052e4ae7554ebf,6453cbd4b6d47ac993dd59f3,2023-05-04_17h14.52.241,ga_syllabified_check,2022.2.5,Win32,143.9263097,,,,,,,,,,,,,,./stim/p07_syllable_1_flauro_hit.wav,p07,flauro,hit,flau-ro,flau-ro,fla-u-ro, ,-0.363888889,-0.109259259,1,0,0,1.0209,text_option_1,,0,91,91,141,1
5baa866b7c0ebe000127a8eb,63f3cfca20052e4ae7554ebf,6453cbd4b6d47ac993dd59f3,2023-05-04_17h14.52.241,ga_syllabified_check,2022.2.5,Win32,143.9263097,,,,,,,,,,,,,,./stim/p04_syllable_1_lakapuaisto_hit.wav,p04,lakapuaisto,hit,la-ka-puais-to,la-ka-puais-to,la-ka-pu-ais-to,la-ka-pua-is-to,-0.39537037,-0.1,1,0,0,2.0348,text_option_1,,0,92,92,51,1
5baa866b7c0ebe000127a8eb,63f3cfca20052e4ae7554ebf,6453cbd4b6d47ac993dd59f3,2023-05-04_17h14.52.241,ga_syllabified_check,2022.2.5,Win32,143.9263097,,,,,,,,,,,,,,./stim/p06_syllable_1_rausto_hit.wav,p06,rausto,hit,ra-us-to,raus-to,ra-us-to, ,0.391666667,-0.109259259,1,0,0,1.632,text_option_2,,0,93,93,133,1
5baa866b7c0ebe000127a8eb,63f3cfca20052e4ae7554ebf,6453cbd4b6d47ac993dd59f3,2023-05-04_17h14.52.241,ga_syllabified_check,2022.2.5,Win32,143.9263097,,,,,,,,,,,,,,./stim/p04_syllable_1_payielo_hit.wav,p04,payielo,hit,pa-yie-lo,pa-yie-lo,pa-yi-e-lo, ,-0.385185185,-0.10462963,1,0,0,0.8333,text_option_1,,0,94,94,64,1
5baa866b7c0ebe000127a8eb,63f3cfca20052e4ae7554ebf,6453cbd4b6d47ac993dd59f3,2023-05-04_17h14.52.241,ga_syllabified_check,2022.2.5,Win32,143.9263097,,,,,,,,,,,,,,./stim/p05_syllable_1_lakapiaisto_hit.wav,p05,lakapiaisto,hit,la-ka-pais-to,la-ka-piais-to,la-ka-pi-ais-to,la-ka-pia-is-to,0.052777778,-0.314814815,1,0,0,2.0903,text_option_other,la-ka-pais-to,0,95,95,84,1
5baa866b7c0ebe000127a8eb,63f3cfca20052e4ae7554ebf,6453cbd4b6d47ac993dd59f3,2023-05-04_17h14.52.241,ga_syllabified_check,2022.2.5,Win32,143.9263097,,,,,,,,,,,,,,./stim/p03_syllable_1_flauro_hit.wav,p03,flauro,hit,flau-ro,flau-ro,fla-u-ro, ,-0.375925926,-0.1,1,0,0,0.5765,text_option_1,,0,96,96,5,1
5baa866b7c0ebe000127a8eb,63f3cfca20052e4ae7554ebf,6453cbd4b6d47ac993dd59f3,2023-05-04_17h14.52.241,ga_syllabified_check,2022.2.5,Win32,143.9263097,,,,,,,,,,,,,,./stim/p06_syllable_1_palutrauco_hit.wav,p06,palutrauco,hit,pa-lu-tra-u-co,pa-lu-trau-co,pa-lu-tra-u-co, ,0.393518519,-0.099074074,1,0,0,2.2085,text_option_2,,0,97,97,131,1
5baa866b7c0ebe000127a8eb,63f3cfca20052e4ae7554ebf,6453cbd4b6d47ac993dd59f3,2023-05-04_17h14.52.241,ga_syllabified_check,2022.2.5,Win32,143.9263097,,,,,,,,,,,,,,./stim/p07_syllable_1_falufaisto_hit.wav,p07,falufaisto,hit,fa-lu-fais-to,fa-lu-fais-to,fa-lu-fa-is-to, ,-0.319444444,-0.105555556,1,0,0,2.0418,text_option_1,,0,98,98,139,1
5baa866b7c0ebe000127a8eb,63f3cfca20052e4ae7554ebf,6453cbd4b6d47ac993dd59f3,2023-05-04_17h14.52.241,ga_syllabified_check,2022.2.5,Win32,143.9263097,,,,,,,,,,,,,,./stim/p04_syllable_1_lakaduaisto_hit.wav,p04,lakaduaisto,hit,la-ka-duais-to,la-ka-duais-to,la-ka-du-ais-to,la-ka-dua-is-to,-0.340740741,-0.103703704,1,0,0,1.0214,text_option_1,,0,99,99,43,1
5baa866b7c0ebe000127a8eb,63f3cfca20052e4ae7554ebf,6453cbd4b6d47ac993dd59f3,2023-05-04_17h14.52.241,ga_syllabified_check,2022.2.5,Win32,143.9263097,,,,,,,,,,,,,,./stim/p04_syllable_1_lakabuaisto_hit.wav,p04,lakabuaisto,hit,la-ka-buais-to,la-ka-buais-to,la-ka-bu-ais-to,la-ka-bua-is-to,-0.330555556,-0.106481481,1,0,0,0.7908,text_option_1,,0,100,100,41,1
5baa866b7c0ebe000127a8eb,63f3cfca20052e4ae7554ebf,6453cbd4b6d47ac993dd59f3,2023-05-04_17h14.52.241,ga_syllabified_check,2022.2.5,Win32,143.9263097,,,,,,,,,,,,,,./stim/p06_syllable_1_lakaduaisto_hit.wav,p06,lakaduaisto,hit,la-ka-du-a-is,la-ka-duais-to,la-ka-du-ais-to,la-ka-dua-is-to,0.088888889,-0.30462963,1,0,0,3.4726,text_option_other,la-ka-du-a-is-to,0,101,101,111,1
5baa866b7c0ebe000127a8eb,63f3cfca20052e4ae7554ebf,6453cbd4b6d47ac993dd59f3,2023-05-04_17h14.52.241,ga_syllabified_check,2022.2.5,Win32,143.9263097,,,,,,,,,,,,,,./stim/p06_syllable_1_lakapuaisto_hit.wav,p06,lakapuaisto,hit,la-ka-pu-a-is,la-ka-puais-to,la-ka-pu-ais-to,la-ka-pua-is-to,0.047222222,-0.292592593,1,0,0,4.4933,text_option_other,la-ka-pu-a-is-to,0,102,102,119,1
5baa866b7c0ebe000127a8eb,63f3cfca20052e4ae7554ebf,6453cbd4b6d47ac993dd59f3,2023-05-04_17h14.52.241,ga_syllabified_check,2022.2.5,Win32,143.9263097,,,,,,,,,,,,,,./stim/p06_syllable_1_lakaguaisto_hit.wav,p06,lakaguaisto,hit,la-ka-gu-a-is,la-ka-guais-to,la-ka-gu-ais-to,la-ka-gua-is-to,0.040740741,-0.297222222,1,0,0,5.0349,text_option_other,la-ka-gu-a-is-to,0,103,103,115,1
5baa866b7c0ebe000127a8eb,63f3cfca20052e4ae7554ebf,6453cbd4b6d47ac993dd59f3,2023-05-04_17h14.52.241,ga_syllabified_check,2022.2.5,Win32,143.9263097,,,,,,,,,,,,,,./stim/p06_syllable_1_chiaba_hit.wav,p06,chiaba,hit,chi-a-ba,chia-ba,chi-a-ba, ,-0.37962963,-0.105555556,1,0,0,1.5624,text_option_1,,0,104,104,102,1
5baa866b7c0ebe000127a8eb,63f3cfca20052e4ae7554ebf,6453cbd4b6d47ac993dd59f3,2023-05-04_17h14.52.241,ga_syllabified_check,2022.2.5,Win32,143.9263097,,,,,,,,,,,,,,./stim/p07_syllable_1_lakaguaisto_hit.wav,p07,lakaguaisto,hit,la-ka-guais-to,la-ka-guais-to,la-ka-gu-ais-to,la-ka-gua-is-to,-0.377777778,-0.105555556,1,0,0,1.7915,text_option_1,,0,105,105,149,1
5baa866b7c0ebe000127a8eb,63f3cfca20052e4ae7554ebf,6453cbd4b6d47ac993dd59f3,2023-05-04_17h14.52.241,ga_syllabified_check,2022.2.5,Win32,143.9263097,,,,,,,,,,,,,,./stim/p07_syllable_1_lakafuaisto_hit.wav,p07,lakafuaisto,hit,la-ka-fuais-to,la-ka-fuais-to,la-ka-fu-ais-to,la-ka-fua-is-to,-0.376851852,-0.108333333,1,0,0,1.8474,text_option_1,,0,106,106,147,1
5baa866b7c0ebe000127a8eb,63f3cfca20052e4ae7554ebf,6453cbd4b6d47ac993dd59f3,2023-05-04_17h14.52.241,ga_syllabified_check,2022.2.5,Win32,143.9263097,,,,,,,,,,,,,,./stim/p03_syllable_1_lakatiaisto_hit.wav,p03,lakatiaisto,hit,la-ka-tiais-to,la-ka-tiais-to,la-ka-ti-ais-to,la-ka-tia-is-to,-0.376851852,-0.107407407,1,0,0,1.4305,text_option_1,,0,107,107,18,1
5baa866b7c0ebe000127a8eb,63f3cfca20052e4ae7554ebf,6453cbd4b6d47ac993dd59f3,2023-05-04_17h14.52.241,ga_syllabified_check,2022.2.5,Win32,143.9263097,,,,,,,,,,,,,,./stim/p07_syllable_1_lakagiaisto_hit.wav,p07,lakagiaisto,hit,la-ka-gais-to,la-ka-giais-to,la-ka-gi-ais-to,la-ka-gia-is-to,0.036111111,-0.315740741,1,0,0,2.0001,text_option_other,la-ka-gais-to,0,108,108,148,1
5baa866b7c0ebe000127a8eb,63f3cfca20052e4ae7554ebf,6453cbd4b6d47ac993dd59f3,2023-05-04_17h14.52.241,ga_syllabified_check,2022.2.5,Win32,143.9263097,,,,,,,,,,,,,,./stim/p07_syllable_1_payielo_hit.wav,p07,payielo,hit,pa-yie-lo,pa-yie-lo,pa-yi-e-lo, ,-0.34537037,-0.100925926,1,0,0,1.4794,text_option_1,,0,109,109,166,1
5baa866b7c0ebe000127a8eb,63f3cfca20052e4ae7554ebf,6453cbd4b6d47ac993dd59f3,2023-05-04_17h14.52.241,ga_syllabified_check,2022.2.5,Win32,143.9263097,,,,,,,,,,,,,,./stim/p03_syllable_1_falutraigo_hit.wav,p03,falutraigo,hit,fa-lu-trai-go,fa-lu-trai-go,fa-lu-tra-i-go, ,-0.321296296,-0.110185185,1,0,0,1.5,text_option_1,,0,110,110,4,1
5baa866b7c0ebe000127a8eb,63f3cfca20052e4ae7554ebf,6453cbd4b6d47ac993dd59f3,2023-05-04_17h14.52.241,ga_syllabified_check,2022.2.5,Win32,143.9263097,,,,,,,,,,,,,,./stim/p03_syllable_1_palutrauco_hit.wav,p03,palutrauco,hit,pa-lu-trau-co,pa-lu-trau-co,pa-lu-tra-u-co, ,-0.319444444,-0.100925926,1,0,0,0.9375,text_option_1,,0,111,111,29,1
5baa866b7c0ebe000127a8eb,63f3cfca20052e4ae7554ebf,6453cbd4b6d47ac993dd59f3,2023-05-04_17h14.52.241,ga_syllabified_check,2022.2.5,Win32,143.9263097,,,,,,,,,,,,,,./stim/p07_syllable_1_lakatiaisto_hit.wav,p07,lakatiaisto,hit,la-ka-tiai-sto,la-ka-tiais-to,la-ka-ti-ais-to,la-ka-tia-is-to,0.062037037,-0.29537037,1,0,0,2.9519,text_option_other,la-ka-tiai-s-to,0,112,112,154,1
5baa866b7c0ebe000127a8eb,63f3cfca20052e4ae7554ebf,6453cbd4b6d47ac993dd59f3,2023-05-04_17h14.52.241,ga_syllabified_check,2022.2.5,Win32,143.9263097,,,,,,,,,,,,,,./stim/p07_syllable_1_faluduako_hit.wav,p07,faluduako,hit,fa-lu-dua-ko,fa-lu-dua-ko,fa-lu-du-a-ko, ,-0.308333333,-0.102777778,1,0,0,2.3403,text_option_1,,0,113,113,138,1
5baa866b7c0ebe000127a8eb,63f3cfca20052e4ae7554ebf,6453cbd4b6d47ac993dd59f3,2023-05-04_17h14.52.241,ga_syllabified_check,2022.2.5,Win32,143.9263097,,,,,,,,,,,,,,./stim/p05_syllable_1_mebochiana_hit.wav,p05,mebochiana,hit,me-cho-chai-na,me-bo-chia-na,me-bo-chi-a-na, ,0.074074074,-0.292592593,1,0,0,2.24,text_option_other,me-cho-chai-na,0,114,114,90,1
5baa866b7c0ebe000127a8eb,63f3cfca20052e4ae7554ebf,6453cbd4b6d47ac993dd59f3,2023-05-04_17h14.52.241,ga_syllabified_check,2022.2.5,Win32,143.9263097,,,,,,,,,,,,,,./stim/p06_syllable_1_falufaisto_hit.wav,p06,falufaisto,hit,fa-lu-fa-is-to,fa-lu-fais-to,fa-lu-fa-is-to, ,0.360185185,-0.112962963,1,0,0,2.3265,text_option_2,,0,115,115,105,1
5baa866b7c0ebe000127a8eb,63f3cfca20052e4ae7554ebf,6453cbd4b6d47ac993dd59f3,2023-05-04_17h14.52.241,ga_syllabified_check,2022.2.5,Win32,143.9263097,,,,,,,,,,,,,,./stim/p03_syllable_1_rausto_hit.wav,p03,rausto,hit,raus-to,raus-to,ra-us-to, ,-0.373148148,-0.106481481,1,0,0,0.6876,text_option_1,,0,116,116,31,1
5baa866b7c0ebe000127a8eb,63f3cfca20052e4ae7554ebf,6453cbd4b6d47ac993dd59f3,2023-05-04_17h14.52.241,ga_syllabified_check,2022.2.5,Win32,143.9263097,,,,,,,,,,,,,,./stim/p08_syllable_1_lakapiaisto_hit.wav,p08,lakapiaisto,hit,la-ka-pi-as-to,la-ka-piais-to,la-ka-pi-ais-to,la-ka-pia-is-to,-0.026851852,-0.316666667,1,0,0,5.931,text_option_other,la-ka-pi-as-to,0,117,117,186,1
5baa866b7c0ebe000127a8eb,63f3cfca20052e4ae7554ebf,6453cbd4b6d47ac993dd59f3,2023-05-04_17h14.52.241,ga_syllabified_check,2022.2.5,Win32,143.9263097,,,,,,,,,,,,,,./stim/p04_syllable_1_tuliafo_hit.wav,p04,tuliafo,hit,tu-lia-fo,tu-lia-fo,tu-li-a-fo, ,-0.407407407,-0.102777778,1,0,0,2.7709,text_option_1,,0,118,118,67,1
5baa866b7c0ebe000127a8eb,63f3cfca20052e4ae7554ebf,6453cbd4b6d47ac993dd59f3,2023-05-04_17h14.52.241,ga_syllabified_check,2022.2.5,Win32,143.9263097,,,,,,,,,,,,,,./stim/p04_syllable_1_costonhialo_hit.wav,p04,costoñialo,hit,cos-to-nhia-lo,cos-to-ñia-lo,cos-to-ñi-a-lo, ,-0.35462963,-0.102777778,1,0,0,1.9029,text_option_1,,0,119,119,35,1
5baa866b7c0ebe000127a8eb,63f3cfca20052e4ae7554ebf,6453cbd4b6d47ac993dd59f3,2023-05-04_17h14.52.241,ga_syllabified_check,2022.2.5,Win32,143.9263097,,,,,,,,,,,,,,./stim/p03_syllable_1_manhiala_hit.wav,p03,mañiala,hit,ma-nhia-la,ma-ñia-la,ma-ñi-a-la, ,-0.372222222,-0.106481481,1,0,0,0.6738,text_option_1,,0,120,120,21,1
5baa866b7c0ebe000127a8eb,63f3cfca20052e4ae7554ebf,6453cbd4b6d47ac993dd59f3,2023-05-04_17h14.52.241,ga_syllabified_check,2022.2.5,Win32,143.9263097,,,,,,,,,,,,,,./stim/p06_syllable_1_ruyiola_hit.wav,p06,ruyiola,hit,ru-yi-o-la,ru-yio-la,ru-yi-o-la, ,0.386111111,-0.103703704,1,0,0,1.4586,text_option_2,,0,121,121,134,1
5baa866b7c0ebe000127a8eb,63f3cfca20052e4ae7554ebf,6453cbd4b6d47ac993dd59f3,2023-05-04_17h14.52.241,ga_syllabified_check,2022.2.5,Win32,143.9263097,,,,,,,,,,,,,,./stim/p07_syllable_1_tuliafo_hit.wav,p07,tuliafo,hit,tu-lia-fo,tu-lia-fo,tu-li-a-fo, ,-0.367592593,-0.094444444,1,0,0,0.6988,text_option_1,,0,122,122,169,1
5baa866b7c0ebe000127a8eb,63f3cfca20052e4ae7554ebf,6453cbd4b6d47ac993dd59f3,2023-05-04_17h14.52.241,ga_syllabified_check,2022.2.5,Win32,143.9263097,,,,,,,,,,,,,,./stim/p04_syllable_1_lakakiaisto_hit.wav,p04,lakakiaisto,hit,la-ka-kiais-to,la-ka-kiais-to,la-ka-ki-ais-to,la-ka-kia-is-to,-0.34537037,-0.111111111,1,0,0,1.3546,text_option_1,,0,123,123,48,1
5baa866b7c0ebe000127a8eb,63f3cfca20052e4ae7554ebf,6453cbd4b6d47ac993dd59f3,2023-05-04_17h14.52.241,ga_syllabified_check,2022.2.5,Win32,143.9263097,,,,,,,,,,,,,,./stim/p03_syllable_1_lakafiaisto_hit.wav,p03,lakafiaisto,hit,la-ka-fiais-to,la-ka-fiais-to,la-ka-fi-ais-to,la-ka-fia-is-to,-0.355555556,-0.107407407,1,0,0,1.0836,text_option_1,,0,124,124,10,1
5baa866b7c0ebe000127a8eb,63f3cfca20052e4ae7554ebf,6453cbd4b6d47ac993dd59f3,2023-05-04_17h14.52.241,ga_syllabified_check,2022.2.5,Win32,143.9263097,,,,,,,,,,,,,,./stim/p03_syllable_1_lakabuaisto_hit.wav,p03,lakabuaisto,hit,la-ka-buais-to,la-ka-buais-to,la-ka-bu-ais-to,la-ka-bua-is-to,-0.356481481,-0.106481481,1,0,0,1.063,text_option_1,,0,125,125,7,1
5baa866b7c0ebe000127a8eb,63f3cfca20052e4ae7554ebf,6453cbd4b6d47ac993dd59f3,2023-05-04_17h14.52.241,ga_syllabified_check,2022.2.5,Win32,143.9263097,,,,,,,,,,,,,,./stim/p03_syllable_1_falufaisto_hit.wav,p03,falufaisto,hit,fa-lu-fais-to,fa-lu-fais-to,fa-lu-fa-is-to, ,-0.351851852,-0.109259259,1,0,0,1.1096,text_option_1,,0,126,126,3,1
5baa866b7c0ebe000127a8eb,63f3cfca20052e4ae7554ebf,6453cbd4b6d47ac993dd59f3,2023-05-04_17h14.52.241,ga_syllabified_check,2022.2.5,Win32,143.9263097,,,,,,,,,,,,,,./stim/p04_syllable_1_falutraigo_hit.wav,p04,falutraigo,hit,fa-lu-trai-go,fa-lu-trai-go,fa-lu-tra-i-go, ,-0.351851852,-0.109259259,1,0,0,0.5837,text_option_1,,0,127,127,38,1
5baa866b7c0ebe000127a8eb,63f3cfca20052e4ae7554ebf,6453cbd4b6d47ac993dd59f3,2023-05-04_17h14.52.241,ga_syllabified_check,2022.2.5,Win32,143.9263097,,,,,,,,,,,,,,./stim/p04_syllable_1_flauro_hit.wav,p04,flauro,hit,flau-ro,flau-ro,fla-u-ro, ,-0.369444444,-0.109259259,1,0,0,0.1736,text_option_1,,0,128,128,39,1
5baa866b7c0ebe000127a8eb,63f3cfca20052e4ae7554ebf,6453cbd4b6d47ac993dd59f3,2023-05-04_17h14.52.241,ga_syllabified_check,2022.2.5,Win32,143.9263097,,,,,,,,,,,,,,./stim/p04_syllable_1_lakafiaisto_hit.wav,p04,lakafiaisto,hit,la-ka-fiais-to,la-ka-fiais-to,la-ka-fi-ais-to,la-ka-fia-is-to,-0.369444444,-0.107407407,1,0,0,1.3472,text_option_1,,0,129,129,44,1
5baa866b7c0ebe000127a8eb,63f3cfca20052e4ae7554ebf,6453cbd4b6d47ac993dd59f3,2023-05-04_17h14.52.241,ga_syllabified_check,2022.2.5,Win32,143.9263097,,,,,,,,,,,,,,./stim/p08_syllable_1_lakadiaisto_hit.wav,p08,lakadiaisto,hit,la-ka-di-jas-to,la-ka-diais-to,la-ka-di-ais-to,la-ka-dia-is-to,0.059259259,-0.297222222,1,0,0,3.2644,text_option_other,la-ka-di-as-to,0,130,130,178,1
5baa866b7c0ebe000127a8eb,63f3cfca20052e4ae7554ebf,6453cbd4b6d47ac993dd59f3,2023-05-04_17h14.52.241,ga_syllabified_check,2022.2.5,Win32,143.9263097,,,,,,,,,,,,,,./stim/p06_syllable_1_costonhialo_hit.wav,p06,costoñialo,hit,cos-to-nhia-lo,cos-to-ñia-lo,cos-to-ñi-a-lo, ,-0.341666667,-0.107407407,1,0,0,2.493,text_option_1,,0,131,131,103,1
5baa866b7c0ebe000127a8eb,63f3cfca20052e4ae7554ebf,6453cbd4b6d47ac993dd59f3,2023-05-04_17h14.52.241,ga_syllabified_check,2022.2.5,Win32,143.9263097,,,,,,,,,,,,,,./stim/p05_syllable_1_lakakiaisto_hit.wav,p05,lakakiaisto,hit,la-ka-ki-ais-to,la-ka-kiais-to,la-ka-ki-ais-to,la-ka-kia-is-to,-0.353703704,-0.109259259,1,0,0,1.1946,text_option_1,,0,132,132,82,1
5baa866b7c0ebe000127a8eb,63f3cfca20052e4ae7554ebf,6453cbd4b6d47ac993dd59f3,2023-05-04_17h14.52.241,ga_syllabified_check,2022.2.5,Win32,143.9263097,,,,,,,,,,,,,,./stim/p06_syllable_1_lakatuaisto_hit.wav,p06,lakatuaisto,hit,la-ka-tu-a-is,la-ka-tuais-to,la-ka-tu-ais-to,la-ka-tua-is-to,0.046296296,-0.313888889,1,0,0,3.1293,text_option_other,la-ka-tu-a-is-to,0,133,133,121,1
5baa866b7c0ebe000127a8eb,63f3cfca20052e4ae7554ebf,6453cbd4b6d47ac993dd59f3,2023-05-04_17h14.52.241,ga_syllabified_check,2022.2.5,Win32,143.9263097,,,,,,,,,,,,,,./stim/p08_syllable_1_lliape_hit.wav,p08,lliape,hit,li-a-pe,llia-pe,lli-a-pe, ,0.422222222,-0.087037037,1,0,0,2.8057,text_option_2,,0,134,134,190,1
5baa866b7c0ebe000127a8eb,63f3cfca20052e4ae7554ebf,6453cbd4b6d47ac993dd59f3,2023-05-04_17h14.52.241,ga_syllabified_check,2022.2.5,Win32,143.9263097,,,,,,,,,,,,,,./stim/p07_syllable_1_lakakuaisto_hit.wav,p07,lakakuaisto,hit,la-ka-kuais-to,la-ka-kuais-to,la-ka-ku-ais-to,la-ka-kua-is-to,-0.327777778,-0.106481481,1,0,0,2.0972,text_option_1,,0,135,135,151,1
5baa866b7c0ebe000127a8eb,63f3cfca20052e4ae7554ebf,6453cbd4b6d47ac993dd59f3,2023-05-04_17h14.52.241,ga_syllabified_check,2022.2.5,Win32,143.9263097,,,,,,,,,,,,,,./stim/p08_syllable_1_tuliafo_hit.wav,p08,tuliafo,hit,tu-li-a-fo,tu-lia-fo,tu-li-a-fo, ,0.402777778,-0.105555556,1,0,0,1.3195,text_option_2,,0,136,136,203,1
5baa866b7c0ebe000127a8eb,63f3cfca20052e4ae7554ebf,6453cbd4b6d47ac993dd59f3,2023-05-04_17h14.52.241,ga_syllabified_check,2022.2.5,Win32,143.9263097,,,,,,,,,,,,,,./stim/p05_syllable_1_manhiala_hit.wav,p05,mañiala,hit,ma-nhia-la,ma-ñia-la,ma-ñi-a-la, ,-0.387962963,-0.105555556,1,0,0,0.4442,text_option_1,,0,137,137,89,1
5baa866b7c0ebe000127a8eb,63f3cfca20052e4ae7554ebf,6453cbd4b6d47ac993dd59f3,2023-05-04_17h14.52.241,ga_syllabified_check,2022.2.5,Win32,143.9263097,,,,,,,,,,,,,,./stim/p05_syllable_1_lakakuaisto_hit.wav,p05,lakakuaisto,hit,la-ka-kais-to,la-ka-kuais-to,la-ka-ku-ais-to,la-ka-kua-is-to,0.024074074,-0.298148148,1,0,0,1.0209,text_option_other,la-ka-kais-to,0,138,138,83,1
5baa866b7c0ebe000127a8eb,63f3cfca20052e4ae7554ebf,6453cbd4b6d47ac993dd59f3,2023-05-04_17h14.52.241,ga_syllabified_check,2022.2.5,Win32,143.9263097,,,,,,,,,,,,,,./stim/p08_syllable_1_lakatiaisto_hit.wav,p08,lakatiaisto,hit,la-ka-ti-as-to,la-ka-tiais-to,la-ka-ti-ais-to,la-ka-tia-is-to,0.05,-0.312037037,1,0,0,5.0904,text_option_other,la-ka-tias-to,0,139,139,188,1
5baa866b7c0ebe000127a8eb,63f3cfca20052e4ae7554ebf,6453cbd4b6d47ac993dd59f3,2023-05-04_17h14.52.241,ga_syllabified_check,2022.2.5,Win32,143.9263097,,,,,,,,,,,,,,./stim/p08_syllable_1_lakakuaisto_hit.wav,p08,lakakuaisto,hit,la-ka-ku-ais-to,la-ka-kuais-to,la-ka-ku-ais-to,la-ka-kua-is-to,0.385185185,-0.108333333,1,0,0,3.375,text_option_2,,0,140,140,185,1
5baa866b7c0ebe000127a8eb,63f3cfca20052e4ae7554ebf,6453cbd4b6d47ac993dd59f3,2023-05-04_17h14.52.241,ga_syllabified_check,2022.2.5,Win32,143.9263097,,,,,,,,,,,,,,./stim/p08_syllable_1_costonhialo_hit.wav,p08,costoñialo,hit,cos-to-nhia-lo,cos-to-ñia-lo,cos-to-ñi-a-lo, ,-0.317592593,-0.112962963,1,0,0,1.3334,text_option_1,,0,141,141,171,1
5baa866b7c0ebe000127a8eb,63f3cfca20052e4ae7554ebf,6453cbd4b6d47ac993dd59f3,2023-05-04_17h14.52.241,ga_syllabified_check,2022.2.5,Win32,143.9263097,,,,,,,,,,,,,,./stim/p04_syllable_1_paluguato_hit.wav,p04,paluguato,hit,pa-lu-gua,pa-lu-gua-to,pa-lu-gu-a-to, ,-0.006481481,-0.294444444,1,0,0,2.6739,text_option_other,pa-lu-gua,0,142,142,61,1
5baa866b7c0ebe000127a8eb,63f3cfca20052e4ae7554ebf,6453cbd4b6d47ac993dd59f3,2023-05-04_17h14.52.241,ga_syllabified_check,2022.2.5,Win32,143.9263097,,,,,,,,,,,,,,./stim/p03_syllable_1_pachialo_hit.wav,p03,pachialo,hit,pa-chia-lo,pa-chia-lo,pa-chi-a-lo, ,-0.32962963,-0.098148148,1,0,0,1.4584,text_option_1,,0,143,143,24,1
5baa866b7c0ebe000127a8eb,63f3cfca20052e4ae7554ebf,6453cbd4b6d47ac993dd59f3,2023-05-04_17h14.52.241,ga_syllabified_check,2022.2.5,Win32,143.9263097,,,,,,,,,,,,,,./stim/p05_syllable_1_lakadiaisto_hit.wav,p05,lakadiaisto,hit,la-ka-di-ais-to,la-ka-diais-to,la-ka-di-ais-to,la-ka-dia-is-to,-0.35,-0.098148148,1,0,0,2.3472,text_option_1,,0,144,144,76,1
5baa866b7c0ebe000127a8eb,63f3cfca20052e4ae7554ebf,6453cbd4b6d47ac993dd59f3,2023-05-04_17h14.52.241,ga_syllabified_check,2022.2.5,Win32,143.9263097,,,,,,,,,,,,,,./stim/p04_syllable_1_mebochiana_hit.wav,p04,mebochiana,hit,me-bo-chia-na,me-bo-chia-na,me-bo-chi-a-na, ,-0.348148148,-0.107407407,1,0,0,1.0486,text_option_1,,0,145,145,56,1
5baa866b7c0ebe000127a8eb,63f3cfca20052e4ae7554ebf,6453cbd4b6d47ac993dd59f3,2023-05-04_17h14.52.241,ga_syllabified_check,2022.2.5,Win32,143.9263097,,,,,,,,,,,,,,./stim/p06_syllable_1_mebochiana_hit.wav,p06,mebochiana,hit,me-bo-shi-a-na,me-bo-chia-na,me-bo-chi-a-na, ,0.412962963,-0.096296296,1,0,0,2.8544,text_option_2,,0,146,146,124,1
5baa866b7c0ebe000127a8eb,63f3cfca20052e4ae7554ebf,6453cbd4b6d47ac993dd59f3,2023-05-04_17h14.52.241,ga_syllabified_check,2022.2.5,Win32,143.9263097,,,,,,,,,,,,,,./stim/p06_syllable_1_lakakuaisto_hit.wav,p06,lakakuaisto,hit,la-ka-ku-a-is,la-ka-kuais-to,la-ka-ku-ais-to,la-ka-kua-is-to,0.010185185,-0.310185185,1,0,0,2.8125,text_option_other,la-ka-ku-a-is-to,0,147,147,117,1
5baa866b7c0ebe000127a8eb,63f3cfca20052e4ae7554ebf,6453cbd4b6d47ac993dd59f3,2023-05-04_17h14.52.241,ga_syllabified_check,2022.2.5,Win32,143.9263097,,,,,,,,,,,,,,./stim/p05_syllable_1_lakaguaisto_hit.wav,p05,lakaguaisto,hit,la-ka-gais,la-ka-guais-to,la-ka-gu-ais-to,la-ka-gua-is-to,-0.02962963,-0.302777778,1,0,0,1.9722,text_option_other,la-ka-gais-to,0,148,148,81,1
5baa866b7c0ebe000127a8eb,63f3cfca20052e4ae7554ebf,6453cbd4b6d47ac993dd59f3,2023-05-04_17h14.52.241,ga_syllabified_check,2022.2.5,Win32,143.9263097,,,,,,,,,,,,,,./stim/p07_syllable_1_palufauto_hit.wav,p07,palufauto,hit,pa-lu-fau-to,pa-lu-fau-to,pa-lu-fa-u-to, ,-0.341666667,-0.105555556,1,0,0,1.4445,text_option_1,,0,149,149,162,1
5baa866b7c0ebe000127a8eb,63f3cfca20052e4ae7554ebf,6453cbd4b6d47ac993dd59f3,2023-05-04_17h14.52.241,ga_syllabified_check,2022.2.5,Win32,143.9263097,,,,,,,,,,,,,,./stim/p06_syllable_1_manhiala_hit.wav,p06,mañiala,hit,ma-nhi-a-la,ma-ñia-la,ma-ñi-a-la, ,0.382407407,-0.101851852,1,0,0,1.7361,text_option_2,,0,150,150,123,1
5baa866b7c0ebe000127a8eb,63f3cfca20052e4ae7554ebf,6453cbd4b6d47ac993dd59f3,2023-05-04_17h14.52.241,ga_syllabified_check,2022.2.5,Win32,143.9263097,,,,,,,,,,,,,,./stim/p08_syllable_1_paluguato_hit.wav,p08,paluguato,hit,pa-lu-gua-to,pa-lu-gua-to,pa-lu-gu-a-to, ,-0.337962963,-0.106481481,1,0,0,1.514,text_option_1,,0,151,151,197,1
5baa866b7c0ebe000127a8eb,63f3cfca20052e4ae7554ebf,6453cbd4b6d47ac993dd59f3,2023-05-04_17h14.52.241,ga_syllabified_check,2022.2.5,Win32,143.9263097,,,,,,,,,,,,,,./stim/p07_syllable_1_lakapiaisto_hit.wav,p07,lakapiaisto,hit,la-ka-pia-sto,la-ka-piais-to,la-ka-pi-ais-to,la-ka-pia-is-to,0.036111111,-0.290740741,1,0,0,3.2514,text_option_other,la-ka-pia-s-to,0,152,152,152,1
5baa866b7c0ebe000127a8eb,63f3cfca20052e4ae7554ebf,6453cbd4b6d47ac993dd59f3,2023-05-04_17h14.52.241,ga_syllabified_check,2022.2.5,Win32,143.9263097,,,,,,,,,,,,,,./stim/p06_syllable_1_faluduako_hit.wav,p06,faluduako,hit,fa-lu-dua-ko,fa-lu-dua-ko,fa-lu-du-a-ko, ,0.413888889,-0.103703704,1,0,0,4.1109,text_option_2,,0,153,153,104,1
5baa866b7c0ebe000127a8eb,63f3cfca20052e4ae7554ebf,6453cbd4b6d47ac993dd59f3,2023-05-04_17h14.52.241,ga_syllabified_check,2022.2.5,Win32,143.9263097,,,,,,,,,,,,,,./stim/p06_syllable_1_tuliafo_hit.wav,p06,tuliafo,hit,tu-li-a-fo,tu-lia-fo,tu-li-a-fo, ,0.375925926,-0.105555556,1,0,0,1.6322,text_option_2,,0,154,154,135,1
5baa866b7c0ebe000127a8eb,63f3cfca20052e4ae7554ebf,6453cbd4b6d47ac993dd59f3,2023-05-04_17h14.52.241,ga_syllabified_check,2022.2.5,Win32,143.9263097,,,,,,,,,,,,,,./stim/p07_syllable_1_ruyiola_hit.wav,p07,ruyiola,hit,ru-yio-la,ru-yio-la,ru-yi-o-la, ,-0.35,-0.109259259,1,0,0,0.9375,text_option_1,,0,155,155,168,1
5baa866b7c0ebe000127a8eb,63f3cfca20052e4ae7554ebf,6453cbd4b6d47ac993dd59f3,2023-05-04_17h14.52.241,ga_syllabified_check,2022.2.5,Win32,143.9263097,,,,,,,,,,,,,,./stim/p03_syllable_1_palumaisto_hit.wav,p03,palumaisto,hit,pa-lu-mais-to,pa-lu-mais-to,pa-lu-ma-is-to, ,-0.362962963,-0.107407407,1,0,0,0.8127,text_option_1,,0,156,156,28,1
5baa866b7c0ebe000127a8eb,63f3cfca20052e4ae7554ebf,6453cbd4b6d47ac993dd59f3,2023-05-04_17h14.52.241,ga_syllabified_check,2022.2.5,Win32,143.9263097,,,,,,,,,,,,,,./stim/p06_syllable_1_lakapiaisto_hit.wav,p06,lakapiaisto,hit,la-ka-pia-is-to,la-ka-piais-to,la-ka-pi-ais-to,la-ka-pia-is-to,0.02962963,-0.105555556,1,0,0,4.5486,text_option_3,,0,157,157,118,1
5baa866b7c0ebe000127a8eb,63f3cfca20052e4ae7554ebf,6453cbd4b6d47ac993dd59f3,2023-05-04_17h14.52.241,ga_syllabified_check,2022.2.5,Win32,143.9263097,,,,,,,,,,,,,,./stim/p03_syllable_1_payielo_hit.wav,p03,payielo,hit,pa-yie-lo,pa-yie-lo,pa-yi-e-lo, ,-0.407407407,-0.112037037,1,0,0,0.8683,text_option_1,,0,158,158,30,1
5baa866b7c0ebe000127a8eb,63f3cfca20052e4ae7554ebf,6453cbd4b6d47ac993dd59f3,2023-05-04_17h14.52.241,ga_syllabified_check,2022.2.5,Win32,143.9263097,,,,,,,,,,,,,,./stim/p08_syllable_1_lakatuaisto_hit.wav,p08,lakatuaisto,hit,la-ka-tu-i-jis,la-ka-tuais-to,la-ka-tu-ais-to,la-ka-tua-is-to,0.036111111,-0.30462963,1,0,0,3.5142,text_option_other,la-ka-tu-yis-to,0,159,159,189,1
5baa866b7c0ebe000127a8eb,63f3cfca20052e4ae7554ebf,6453cbd4b6d47ac993dd59f3,2023-05-04_17h14.52.241,ga_syllabified_check,2022.2.5,Win32,143.9263097,,,,,,,,,,,,,,./stim/p04_syllable_1_pachialo_hit.wav,p04,pachialo,hit,pa-chia-lo,pa-chia-lo,pa-chi-a-lo, ,-0.364814815,-0.110185185,1,0,0,0.5487,text_option_1,,0,160,160,58,1
5baa866b7c0ebe000127a8eb,63f3cfca20052e4ae7554ebf,6453cbd4b6d47ac993dd59f3,2023-05-04_17h14.52.241,ga_syllabified_check,2022.2.5,Win32,143.9263097,,,,,,,,,,,,,,./stim/p05_syllable_1_palumaisto_hit.wav,p05,palumaisto,hit,pa-lu-mais-to,pa-lu-mais-to,pa-lu-ma-is-to, ,-0.353703704,-0.110185185,1,0,0,0.9517,text_option_1,,0,161,161,96,1
5baa866b7c0ebe000127a8eb,63f3cfca20052e4ae7554ebf,6453cbd4b6d47ac993dd59f3,2023-05-04_17h14.52.241,ga_syllabified_check,2022.2.5,Win32,143.9263097,,,,,,,,,,,,,,./stim/p05_syllable_1_lakabuaisto_hit.wav,p05,lakabuaisto,hit,la-ka-buais-to,la-ka-buais-to,la-ka-bu-ais-to,la-ka-bua-is-to,-0.327777778,-0.106481481,1,0,0,1.1739,text_option_1,,0,162,162,75,1
5baa866b7c0ebe000127a8eb,63f3cfca20052e4ae7554ebf,6453cbd4b6d47ac993dd59f3,2023-05-04_17h14.52.241,ga_syllabified_check,2022.2.5,Win32,143.9263097,,,,,,,,,,,,,,./stim/p05_syllable_1_lakabiaisto_hit.wav,p05,lakabiaisto,hit,la-ka-bi-ais-to,la-ka-biais-to,la-ka-bi-ais-to,la-ka-bia-is-to,0.407407407,-0.108333333,1,0,0,2.2114,text_option_2,,0,163,163,74,1
5baa866b7c0ebe000127a8eb,63f3cfca20052e4ae7554ebf,6453cbd4b6d47ac993dd59f3,2023-05-04_17h14.52.241,ga_syllabified_check,2022.2.5,Win32,143.9263097,,,,,,,,,,,,,,./stim/p07_syllable_1_palumaisto_hit.wav,p07,palumaisto,hit,pa-lu-mais-to,pa-lu-mais-to,pa-lu-ma-is-to, ,-0.343518519,-0.108333333,1,0,0,2.3334,text_option_1,,0,164,164,164,1
5baa866b7c0ebe000127a8eb,63f3cfca20052e4ae7554ebf,6453cbd4b6d47ac993dd59f3,2023-05-04_17h14.52.241,ga_syllabified_check,2022.2.5,Win32,143.9263097,,,,,,,,,,,,,,./stim/p08_syllable_1_lakabiaisto_hit.wav,p08,lakabiaisto,hit,la-ka-bi-as-to,la-ka-biais-to,la-ka-bi-ais-to,la-ka-bia-is-to,0.082407407,-0.299074074,1,0,0,2.7983,text_option_other,la-ka-bi-as-to,0,165,165,176,1
5baa866b7c0ebe000127a8eb,63f3cfca20052e4ae7554ebf,6453cbd4b6d47ac993dd59f3,2023-05-04_17h14.52.241,ga_syllabified_check,2022.2.5,Win32,143.9263097,,,,,,,,,,,,,,./stim/p08_syllable_1_lakafiaisto_hit.wav,p08,lakafiaisto,hit,la-ka-fi-as-to,la-ka-fiais-to,la-ka-fi-ais-to,la-ka-fia-is-to,0.033333333,-0.3,1,0,0,2.9306,text_option_other,la-ka-fi-as-to,0,166,166,180,1
5baa866b7c0ebe000127a8eb,63f3cfca20052e4ae7554ebf,6453cbd4b6d47ac993dd59f3,2023-05-04_17h14.52.241,ga_syllabified_check,2022.2.5,Win32,143.9263097,,,,,,,,,,,,,,./stim/p05_syllable_1_lakatuaisto_hit.wav,p05,lakatuaisto,hit,la-ka-tais-to,la-ka-tuais-to,la-ka-tu-ais-to,la-ka-tua-is-to,0.059259259,-0.307407407,1,0,0,2.771,text_option_other,la-ka-tais-to,0,167,167,87,1
5baa866b7c0ebe000127a8eb,63f3cfca20052e4ae7554ebf,6453cbd4b6d47ac993dd59f3,2023-05-04_17h14.52.241,ga_syllabified_check,2022.2.5,Win32,143.9263097,,,,,,,,,,,,,,./stim/p07_syllable_1_lliape_hit.wav,p07,lliape,hit,lliai-pe,llia-pe,lli-a-pe, ,0.030555556,-0.302777778,1,0,0,2.6249,text_option_other,lliai-pe,0,168,168,156,1
5baa866b7c0ebe000127a8eb,63f3cfca20052e4ae7554ebf,6453cbd4b6d47ac993dd59f3,2023-05-04_17h14.52.241,ga_syllabified_check,2022.2.5,Win32,143.9263097,,,,,,,,,,,,,,./stim/p08_syllable_1_rausto_hit.wav,p08,rausto,hit,raus-to,raus-to,ra-us-to, ,-0.371296296,-0.092592593,1,0,0,0.523,text_option_1,,0,169,169,201,1
5baa866b7c0ebe000127a8eb,63f3cfca20052e4ae7554ebf,6453cbd4b6d47ac993dd59f3,2023-05-04_17h14.52.241,ga_syllabified_check,2022.2.5,Win32,143.9263097,,,,,,,,,,,,,,./stim/p05_syllable_1_palutrauco_hit.wav,p05,palutrauco,hit,pa-lu-trai-co,pa-lu-trau-co,pa-lu-tra-u-co, ,0.041666667,-0.29537037,1,0,0,1.8644,text_option_other,pa-lu-trai-co,0,170,170,97,1
5baa866b7c0ebe000127a8eb,63f3cfca20052e4ae7554ebf,6453cbd4b6d47ac993dd59f3,2023-05-04_17h14.52.241,ga_syllabified_check,2022.2.5,Win32,143.9263097,,,,,,,,,,,,,,./stim/p08_syllable_1_nhiape_hit.wav,p08,ñiape,hit,ni-a-pe,ñia-pe,ñi-a-pe, ,0.408333333,-0.117592593,1,0,0,1.2291,text_option_2,,0,171,171,193,1
5baa866b7c0ebe000127a8eb,63f3cfca20052e4ae7554ebf,6453cbd4b6d47ac993dd59f3,2023-05-04_17h14.52.241,ga_syllabified_check,2022.2.5,Win32,143.9263097,,,,,,,,,,,,,,./stim/p03_syllable_1_tuliafo_hit.wav,p03,tuliafo,hit,tu-lia-fo,tu-lia-fo,tu-li-a-fo, ,-0.375925926,-0.105555556,1,0,0,0.6017,text_option_1,,0,172,172,33,1
5baa866b7c0ebe000127a8eb,63f3cfca20052e4ae7554ebf,6453cbd4b6d47ac993dd59f3,2023-05-04_17h14.52.241,ga_syllabified_check,2022.2.5,Win32,143.9263097,,,,,,,,,,,,,,./stim/p07_syllable_1_paluguato_hit.wav,p07,paluguato,hit,pa-lu-gua-to,pa-lu-gua-to,pa-lu-gu-a-to, ,-0.336111111,-0.108333333,1,0,0,1.4109,text_option_1,,0,173,173,163,1
5baa866b7c0ebe000127a8eb,63f3cfca20052e4ae7554ebf,6453cbd4b6d47ac993dd59f3,2023-05-04_17h14.52.241,ga_syllabified_check,2022.2.5,Win32,143.9263097,,,,,,,,,,,,,,./stim/p05_syllable_1_ruyiola_hit.wav,p05,ruyiola,hit,ru-yio-la,ru-yio-la,ru-yi-o-la, ,-0.386111111,-0.091666667,1,0,0,0.4444,text_option_1,,0,174,174,100,1
5baa866b7c0ebe000127a8eb,63f3cfca20052e4ae7554ebf,6453cbd4b6d47ac993dd59f3,2023-05-04_17h14.52.241,ga_syllabified_check,2022.2.5,Win32,143.9263097,,,,,,,,,,,,,,./stim/p06_syllable_1_lakabuaisto_hit.wav,p06,lakabuaisto,hit,la-ka-bu-a-is,la-ka-buais-to,la-ka-bu-ais-to,la-ka-bua-is-to,0.074074074,-0.296296296,1,0,0,3.9236,text_option_other,la-ka-bu-a-is-to,0,175,175,109,1
5baa866b7c0ebe000127a8eb,63f3cfca20052e4ae7554ebf,6453cbd4b6d47ac993dd59f3,2023-05-04_17h14.52.241,ga_syllabified_check,2022.2.5,Win32,143.9263097,,,,,,,,,,,,,,./stim/p06_syllable_1_pachialo_hit.wav,p06,pachialo,hit,pa-shi-a-lo,pa-chia-lo,pa-chi-a-lo, ,0.396296296,-0.102777778,1,0,0,1.1595,text_option_2,,0,176,176,126,1
5baa866b7c0ebe000127a8eb,63f3cfca20052e4ae7554ebf,6453cbd4b6d47ac993dd59f3,2023-05-04_17h14.52.241,ga_syllabified_check,2022.2.5,Win32,143.9263097,,,,,,,,,,,,,,./stim/p08_syllable_1_lakagiaisto_hit.wav,p08,lakagiaisto,hit,la-ka-gi-jas-to,la-ka-giais-to,la-ka-gi-ais-to,la-ka-gia-is-to,0.087037037,-0.297222222,1,0,0,4.9586,text_option_other,la-ka-gi-as-to,0,177,177,182,1
5baa866b7c0ebe000127a8eb,63f3cfca20052e4ae7554ebf,6453cbd4b6d47ac993dd59f3,2023-05-04_17h14.52.241,ga_syllabified_check,2022.2.5,Win32,143.9263097,,,,,,,,,,,,,,./stim/p04_syllable_1_palutrauco_hit.wav,p04,palutrauco,hit,pa-lu-trau-co,pa-lu-trau-co,pa-lu-tra-u-co, ,-0.359259259,-0.10462963,1,0,0,1.0689,text_option_1,,0,178,178,63,1
5baa866b7c0ebe000127a8eb,63f3cfca20052e4ae7554ebf,6453cbd4b6d47ac993dd59f3,2023-05-04_17h14.52.241,ga_syllabified_check,2022.2.5,Win32,143.9263097,,,,,,,,,,,,,,./stim/p05_syllable_1_lakafuaisto_hit.wav,p05,lakafuaisto,hit,la-ka-fais-to,la-ka-fuais-to,la-ka-fu-ais-to,la-ka-fua-is-to,0.011111111,-0.29537037,1,0,0,1.042,text_option_other,la-ka-fais-to,0,179,179,79,1
5baa866b7c0ebe000127a8eb,63f3cfca20052e4ae7554ebf,6453cbd4b6d47ac993dd59f3,2023-05-04_17h14.52.241,ga_syllabified_check,2022.2.5,Win32,143.9263097,,,,,,,,,,,,,,./stim/p08_syllable_1_falufaisto_hit.wav,p08,falufaisto,hit,fa-lu-fais-to,fa-lu-fais-to,fa-lu-fa-is-to, ,-0.348148148,-0.1,1,0,0,1.7014,text_option_1,,0,180,180,173,1
5baa866b7c0ebe000127a8eb,63f3cfca20052e4ae7554ebf,6453cbd4b6d47ac993dd59f3,2023-05-04_17h14.52.241,ga_syllabified_check,2022.2.5,Win32,143.9263097,,,,,,,,,,,,,,./stim/p05_syllable_1_flauro_hit.wav,p05,flauro,hit,fa-lu-ro,flau-ro,fla-u-ro, ,0.075925926,-0.29537037,1,0,0,1.1182,text_option_other,fa-lu-ro,0,181,181,73,1
5baa866b7c0ebe000127a8eb,63f3cfca20052e4ae7554ebf,6453cbd4b6d47ac993dd59f3,2023-05-04_17h14.52.241,ga_syllabified_check,2022.2.5,Win32,143.9263097,,,,,,,,,,,,,,./stim/p07_syllable_1_pachialo_hit.wav,p07,pachialo,hit,pa-cha-lo,pa-chia-lo,pa-chi-a-lo, ,-0.347222222,-0.111111111,1,0,0,1.2363,text_option_1,,0,182,182,160,1
5baa866b7c0ebe000127a8eb,63f3cfca20052e4ae7554ebf,6453cbd4b6d47ac993dd59f3,2023-05-04_17h14.52.241,ga_syllabified_check,2022.2.5,Win32,143.9263097,,,,,,,,,,,,,,./stim/p06_syllable_1_lakabiaisto_hit.wav,p06,lakabiaisto,hit,la-ka-bia-is-to,la-ka-biais-to,la-ka-bi-ais-to,la-ka-bia-is-to,-0.034259259,-0.105555556,1,0,0,4.0211,text_option_3,,0,183,183,108,1
5baa866b7c0ebe000127a8eb,63f3cfca20052e4ae7554ebf,6453cbd4b6d47ac993dd59f3,2023-05-04_17h14.52.241,ga_syllabified_check,2022.2.5,Win32,143.9263097,,,,,,,,,,,,,,./stim/p08_syllable_1_lakaduaisto_hit.wav,p08,lakaduaisto,hit,la-ka-du-ais-to,la-ka-duais-to,la-ka-du-ais-to,la-ka-dua-is-to,0.409259259,-0.119444444,1,0,0,2.8392,text_option_2,,0,184,184,179,1
5baa866b7c0ebe000127a8eb,63f3cfca20052e4ae7554ebf,6453cbd4b6d47ac993dd59f3,2023-05-04_17h14.52.241,ga_syllabified_check,2022.2.5,Win32,143.9263097,,,,,,,,,,,,,,./stim/p04_syllable_1_lakagiaisto_hit.wav,p04,lakagiaisto,hit,la-ka-giais-to,la-ka-giais-to,la-ka-gi-ais-to,la-ka-gia-is-to,-0.326851852,-0.098148148,1,0,0,1.6944,text_option_1,,0,185,185,46,1
5baa866b7c0ebe000127a8eb,63f3cfca20052e4ae7554ebf,6453cbd4b6d47ac993dd59f3,2023-05-04_17h14.52.241,ga_syllabified_check,2022.2.5,Win32,143.9263097,,,,,,,,,,,,,,./stim/p08_syllable_1_ruyiola_hit.wav,p08,ruyiola,hit,ru-yio-la,ru-yio-la,ru-yi-o-la, ,-0.369444444,-0.102777778,1,0,0,0.7085,text_option_1,,0,186,186,202,1
5baa866b7c0ebe000127a8eb,63f3cfca20052e4ae7554ebf,6453cbd4b6d47ac993dd59f3,2023-05-04_17h14.52.241,ga_syllabified_check,2022.2.5,Win32,143.9263097,,,,,,,,,,,,,,./stim/p08_syllable_1_palufauro_hit.wav,p08,palufauro,hit,pa-lu-fau-ro,pa-lu-fau-ro,pa-lu-fa-u-ro, ,-0.315740741,-0.103703704,1,0,0,3.2165,text_option_1,,0,187,187,195,1
5baa866b7c0ebe000127a8eb,63f3cfca20052e4ae7554ebf,6453cbd4b6d47ac993dd59f3,2023-05-04_17h14.52.241,ga_syllabified_check,2022.2.5,Win32,143.9263097,,,,,,,,,,,,,,./stim/p04_syllable_1_lakaguaisto_hit.wav,p04,lakaguaisto,hit,la-ka-guais-to,la-ka-guais-to,la-ka-gu-ais-to,la-ka-gua-is-to,-0.368518519,-0.106481481,1,0,0,1.4862,text_option_1,,0,188,188,47,1
5baa866b7c0ebe000127a8eb,63f3cfca20052e4ae7554ebf,6453cbd4b6d47ac993dd59f3,2023-05-04_17h14.52.241,ga_syllabified_check,2022.2.5,Win32,143.9263097,,,,,,,,,,,,,,./stim/p03_syllable_1_chiaba_hit.wav,p03,chiaba,hit,chia-ba,chia-ba,chi-a-ba, ,-0.368518519,-0.106481481,1,0,0,0.6875,text_option_1,,0,189,189,0,1
5baa866b7c0ebe000127a8eb,63f3cfca20052e4ae7554ebf,6453cbd4b6d47ac993dd59f3,2023-05-04_17h14.52.241,ga_syllabified_check,2022.2.5,Win32,143.9263097,,,,,,,,,,,,,,./stim/p03_syllable_1_palufauro_hit.wav,p03,palufauro,hit,pa-lu-fau-ro,pa-lu-fau-ro,pa-lu-fa-u-ro, ,-0.35,-0.109259259,1,0,0,1.0069,text_option_1,,0,190,190,25,1
5baa866b7c0ebe000127a8eb,63f3cfca20052e4ae7554ebf,6453cbd4b6d47ac993dd59f3,2023-05-04_17h14.52.241,ga_syllabified_check,2022.2.5,Win32,143.9263097,,,,,,,,,,,,,,./stim/p07_syllable_1_lakaduaisto_hit.wav,p07,lakaduaisto,hit,la-ka-duais-to,la-ka-duais-to,la-ka-du-ais-to,la-ka-dua-is-to,-0.340740741,-0.10462963,1,0,0,1.6875,text_option_1,,0,191,191,145,1
5baa866b7c0ebe000127a8eb,63f3cfca20052e4ae7554ebf,6453cbd4b6d47ac993dd59f3,2023-05-04_17h14.52.241,ga_syllabified_check,2022.2.5,Win32,143.9263097,,,,,,,,,,,,,,./stim/p06_syllable_1_falutraigo_hit.wav,p06,falutraigo,hit,fa-lu-tra-i-go,fa-lu-trai-go,fa-lu-tra-i-go, ,0.399074074,-0.102777778,1,0,0,3.7014,text_option_2,,0,192,192,106,1
5baa866b7c0ebe000127a8eb,63f3cfca20052e4ae7554ebf,6453cbd4b6d47ac993dd59f3,2023-05-04_17h14.52.241,ga_syllabified_check,2022.2.5,Win32,143.9263097,,,,,,,,,,,,,,./stim/p08_syllable_1_lakafuaisto_hit.wav,p08,lakafuaisto,hit,la-ka-fju-ais-to,la-ka-fuais-to,la-ka-fu-ais-to,la-ka-fua-is-to,0.016666667,-0.301851852,1,0,0,2.1033,text_option_other,la-ka-fiuais-to,0,193,193,181,1
5baa866b7c0ebe000127a8eb,63f3cfca20052e4ae7554ebf,6453cbd4b6d47ac993dd59f3,2023-05-04_17h14.52.241,ga_syllabified_check,2022.2.5,Win32,143.9263097,,,,,,,,,,,,,,./stim/p08_syllable_1_palutrauco_hit.wav,p08,palutrauco,hit,pa-lu-trau-ko,pa-lu-trau-co,pa-lu-tra-u-co, ,-0.386111111,-0.091666667,1,0,0,2.0971,text_option_1,,0,194,194,199,1
5baa866b7c0ebe000127a8eb,63f3cfca20052e4ae7554ebf,6453cbd4b6d47ac993dd59f3,2023-05-04_17h14.52.241,ga_syllabified_check,2022.2.5,Win32,143.9263097,,,,,,,,,,,,,,./stim/p04_syllable_1_palumaisto_hit.wav,p04,palumaisto,hit,pa-lu-mais-to,pa-lu-mais-to,pa-lu-ma-is-to, ,-0.35462963,-0.101851852,1,0,0,0.8891,text_option_1,,0,195,195,62,1
5baa866b7c0ebe000127a8eb,63f3cfca20052e4ae7554ebf,6453cbd4b6d47ac993dd59f3,2023-05-04_17h14.52.241,ga_syllabified_check,2022.2.5,Win32,143.9263097,,,,,,,,,,,,,,./stim/p07_syllable_1_palutrauco_hit.wav,p07,palutrauco,hit,pa-lu-trau-co,pa-lu-trau-co,pa-lu-tra-u-co, ,-0.356481481,-0.112962963,1,0,0,0.8264,text_option_1,,0,196,196,165,1
5baa866b7c0ebe000127a8eb,63f3cfca20052e4ae7554ebf,6453cbd4b6d47ac993dd59f3,2023-05-04_17h14.52.241,ga_syllabified_check,2022.2.5,Win32,143.9263097,,,,,,,,,,,,,,./stim/p05_syllable_1_nhiape_hit.wav,p05,ñiape,hit,nhia-pe,ñia-pe,ñi-a-pe, ,-0.39537037,-0.116666667,1,0,0,0.1524,text_option_1,,0,197,197,91,1
5baa866b7c0ebe000127a8eb,63f3cfca20052e4ae7554ebf,6453cbd4b6d47ac993dd59f3,2023-05-04_17h14.52.241,ga_syllabified_check,2022.2.5,Win32,143.9263097,,,,,,,,,,,,,,./stim/p04_syllable_1_nhiape_hit.wav,p04,ñiape,hit,nhia-pe,ñia-pe,ñi-a-pe, ,-0.406481481,-0.098148148,1,0,0,0.6459,text_option_1,,0,198,198,57,1
5baa866b7c0ebe000127a8eb,63f3cfca20052e4ae7554ebf,6453cbd4b6d47ac993dd59f3,2023-05-04_17h14.52.241,ga_syllabified_check,2022.2.5,Win32,143.9263097,,,,,,,,,,,,,,./stim/p05_syllable_1_palufauro_hit.wav,p05,palufauro,hit,pa-lu-fau-ro,pa-lu-fau-ro,pa-lu-fa-u-ro, ,-0.378703704,-0.09537037,1,0,0,0.7013,text_option_1,,0,199,199,93,1
5baa866b7c0ebe000127a8eb,63f3cfca20052e4ae7554ebf,6453cbd4b6d47ac993dd59f3,2023-05-04_17h14.52.241,ga_syllabified_check,2022.2.5,Win32,143.9263097,,,,,,,,,,,,,,./stim/p07_syllable_1_palufauro_hit.wav,p07,palufauro,hit,pa-lu-fau-ro,pa-lu-fau-ro,pa-lu-fa-u-ro, ,-0.385185185,-0.097222222,1,0,0,1.3894,text_option_1,,0,200,200,161,1
5baa866b7c0ebe000127a8eb,63f3cfca20052e4ae7554ebf,6453cbd4b6d47ac993dd59f3,2023-05-04_17h14.52.241,ga_syllabified_check,2022.2.5,Win32,143.9263097,,,,,,,,,,,,,,./stim/p05_syllable_1_lakagiaisto_hit.wav,p05,lakagiaisto,hit,la-ka-ki-ais-to,la-ka-giais-to,la-ka-gi-ais-to,la-ka-gia-is-to,-0.362037037,-0.112962963,1,0,0,1.0353,text_option_1,,0,201,201,80,1
5baa866b7c0ebe000127a8eb,63f3cfca20052e4ae7554ebf,6453cbd4b6d47ac993dd59f3,2023-05-04_17h14.52.241,ga_syllabified_check,2022.2.5,Win32,143.9263097,,,,,,,,,,,,,,./stim/p03_syllable_1_lakakiaisto_hit.wav,p03,lakakiaisto,hit,la-ka-kiais-to,la-ka-kiais-to,la-ka-ki-ais-to,la-ka-kia-is-to,-0.348148148,-0.107407407,1,0,0,1.5356,text_option_1,,0,202,202,14,1
5baa866b7c0ebe000127a8eb,63f3cfca20052e4ae7554ebf,6453cbd4b6d47ac993dd59f3,2023-05-04_17h14.52.241,ga_syllabified_check,2022.2.5,Win32,143.9263097,,,,,,,,,,,,,,./stim/p06_syllable_1_lakagiaisto_hit.wav,p06,lakagiaisto,hit,la-ka-gia-is-to,la-ka-giais-to,la-ka-gi-ais-to,la-ka-gia-is-to,0.046296296,-0.107407407,1,0,0,3.7711,text_option_3,,0,203,203,114,1
5baa866b7c0ebe000127a8eb,63f3cfca20052e4ae7554ebf,6453cbd4b6d47ac993dd59f3,2023-05-04_17h14.52.241,ga_syllabified_check,2022.2.5,Win32,143.9263097,,,,,,,,,,,,,,,,,,,,,,,,,,,,,,,,,,
