participant,study,session,date,expName,psychopyVersion,OS,frameRate,mouse_practice.x,mouse_practice.y,mouse_practice.leftButton,mouse_practice.midButton,mouse_practice.rightButton,mouse_practice.time,mouse_practice.clicked_name,textbox_followup_practice.text,trials_practice.thisRepN,trials_practice.thisTrialN,trials_practice.thisN,trials_practice.thisIndex,trials_practice.ran,file_path,id,item,status,response,op1,op2,op3,mouse.x,mouse.y,mouse.leftButton,mouse.midButton,mouse.rightButton,mouse.time,mouse.clicked_name,textbox_followup.text,trials.thisRepN,trials.thisTrialN,trials.thisN,trials.thisIndex,trials.ran
5bb2a0148f3bd70001e5633f,63f3cfca20052e4ae7554ebf,6453cdbaf259ef00ca36c44e,2023-05-04_17h29.10.790,ga_syllabified_check,2022.2.5,Win32,71.42857143,,,,,,,,,,,,,,,,,,,,,,,,,,,,,,,,,,
5bb2a0148f3bd70001e5633f,63f3cfca20052e4ae7554ebf,6453cdbaf259ef00ca36c44e,2023-05-04_17h29.10.790,ga_syllabified_check,2022.2.5,Win32,71.42857143,-0.3828125,-0.103515625,1,0,0,5.062,text_option_1_practice,,0,0,0,0,1,./stim/p03_syllable_1_liamo_hit.wav,p03,liamo,hit,lia-mo,lia-mo,li-a-mo, ,,,,,,,,,,,,,
5bb2a0148f3bd70001e5633f,63f3cfca20052e4ae7554ebf,6453cdbaf259ef00ca36c44e,2023-05-04_17h29.10.790,ga_syllabified_check,2022.2.5,Win32,71.42857143,-0.3828125,-0.1015625,1,0,0,2.781,text_option_1_practice,,0,1,1,1,1,./stim/p05_syllable_1_matio_hit.wav,p05,matio,hit,ma-tio,ma-tio,ma-ti-o, ,,,,,,,,,,,,,
5bb2a0148f3bd70001e5633f,63f3cfca20052e4ae7554ebf,6453cdbaf259ef00ca36c44e,2023-05-04_17h29.10.790,ga_syllabified_check,2022.2.5,Win32,71.42857143,0.396484375,-0.100585938,1,0,0,6.471,text_option_2_practice,,0,2,2,2,1,./stim/p08_syllable_1_liamo_hit.wav,p08,liamo,hit,ja-mo,lia-mo,li-a-mo, ,,,,,,,,,,,,,
5bb2a0148f3bd70001e5633f,63f3cfca20052e4ae7554ebf,6453cdbaf259ef00ca36c44e,2023-05-04_17h29.10.790,ga_syllabified_check,2022.2.5,Win32,71.42857143,,,,,,,,,,,,,,,,,,,,,,,,,,,,,,,,,,
5bb2a0148f3bd70001e5633f,63f3cfca20052e4ae7554ebf,6453cdbaf259ef00ca36c44e,2023-05-04_17h29.10.790,ga_syllabified_check,2022.2.5,Win32,71.42857143,,,,,,,,,,,,,,./stim/p08_syllable_1_lakatiaisto_hit.wav,p08,lakatiaisto,hit,la-ka-ti-as-to,la-ka-tiais-to,la-ka-ti-ais-to,la-ka-tia-is-to,-0.364257813,-0.11328125,1,0,0,8.092,text_option_1,,0,0,0,188,1
5bb2a0148f3bd70001e5633f,63f3cfca20052e4ae7554ebf,6453cdbaf259ef00ca36c44e,2023-05-04_17h29.10.790,ga_syllabified_check,2022.2.5,Win32,71.42857143,,,,,,,,,,,,,,./stim/p06_syllable_1_lakafuaisto_hit.wav,p06,lakafuaisto,hit,la-ka-fu-a-is,la-ka-fuais-to,la-ka-fu-ais-to,la-ka-fua-is-to,0.416992188,-0.110351563,1,0,0,5.867,text_option_2,,0,1,1,113,1
5bb2a0148f3bd70001e5633f,63f3cfca20052e4ae7554ebf,6453cdbaf259ef00ca36c44e,2023-05-04_17h29.10.790,ga_syllabified_check,2022.2.5,Win32,71.42857143,,,,,,,,,,,,,,./stim/p06_syllable_1_costonhialo_hit.wav,p06,costoñialo,hit,cos-to-nhia-lo,cos-to-ñia-lo,cos-to-ñi-a-lo, ,-0.392578125,-0.109375,1,0,0,2.696,text_option_1,,0,2,2,103,1
5bb2a0148f3bd70001e5633f,63f3cfca20052e4ae7554ebf,6453cdbaf259ef00ca36c44e,2023-05-04_17h29.10.790,ga_syllabified_check,2022.2.5,Win32,71.42857143,,,,,,,,,,,,,,./stim/p06_syllable_1_lakatiaisto_hit.wav,p06,lakatiaisto,hit,la-ka-pia-is-to,la-ka-tiais-to,la-ka-ti-ais-to,la-ka-tia-is-to,0.004882813,-0.1015625,1,0,0,4.116,text_option_3,,0,3,3,120,1
5bb2a0148f3bd70001e5633f,63f3cfca20052e4ae7554ebf,6453cdbaf259ef00ca36c44e,2023-05-04_17h29.10.790,ga_syllabified_check,2022.2.5,Win32,71.42857143,,,,,,,,,,,,,,./stim/p05_syllable_1_chiaba_hit.wav,p05,chiaba,hit,chia-ba,chia-ba,chi-a-ba, ,-0.43359375,-0.095703125,1,0,0,2.05,text_option_1,,0,4,4,68,1
5bb2a0148f3bd70001e5633f,63f3cfca20052e4ae7554ebf,6453cdbaf259ef00ca36c44e,2023-05-04_17h29.10.790,ga_syllabified_check,2022.2.5,Win32,71.42857143,,,,,,,,,,,,,,./stim/p07_syllable_1_pachialo_hit.wav,p07,pachialo,hit,pa-cha-lo,pa-chia-lo,pa-chi-a-lo, ,-0.43359375,-0.095703125,1,0,0,1.473,text_option_1,,0,5,5,160,1
5bb2a0148f3bd70001e5633f,63f3cfca20052e4ae7554ebf,6453cdbaf259ef00ca36c44e,2023-05-04_17h29.10.790,ga_syllabified_check,2022.2.5,Win32,71.42857143,,,,,,,,,,,,,,./stim/p06_syllable_1_flauro_hit.wav,p06,flauro,hit,fla-u-ro,flau-ro,fla-u-ro, ,0.36328125,-0.095703125,1,0,0,2.142,text_option_2,,0,6,6,107,1
5bb2a0148f3bd70001e5633f,63f3cfca20052e4ae7554ebf,6453cdbaf259ef00ca36c44e,2023-05-04_17h29.10.790,ga_syllabified_check,2022.2.5,Win32,71.42857143,,,,,,,,,,,,,,./stim/p08_syllable_1_lakakuaisto_hit.wav,p08,lakakuaisto,hit,la-ka-ku-ais-to,la-ka-kuais-to,la-ka-ku-ais-to,la-ka-kua-is-to,-0.358398438,-0.109375,1,0,0,5.053,text_option_1,,0,7,7,185,1
5bb2a0148f3bd70001e5633f,63f3cfca20052e4ae7554ebf,6453cdbaf259ef00ca36c44e,2023-05-04_17h29.10.790,ga_syllabified_check,2022.2.5,Win32,71.42857143,,,,,,,,,,,,,,./stim/p05_syllable_1_lakafiaisto_hit.wav,p05,lakafiaisto,hit,la-ka-fi-ais-to,la-ka-fiais-to,la-ka-fi-ais-to,la-ka-fia-is-to,0.349609375,-0.111328125,1,0,0,4.804,text_option_2,,0,8,8,78,1
5bb2a0148f3bd70001e5633f,63f3cfca20052e4ae7554ebf,6453cdbaf259ef00ca36c44e,2023-05-04_17h29.10.790,ga_syllabified_check,2022.2.5,Win32,71.42857143,,,,,,,,,,,,,,./stim/p04_syllable_1_lakabiaisto_hit.wav,p04,lakabiaisto,hit,la-ka-biais-to,la-ka-biais-to,la-ka-bi-ais-to,la-ka-bia-is-to,-0.302734375,-0.10546875,1,0,0,2.306,text_option_1,,0,9,9,40,1
5bb2a0148f3bd70001e5633f,63f3cfca20052e4ae7554ebf,6453cdbaf259ef00ca36c44e,2023-05-04_17h29.10.790,ga_syllabified_check,2022.2.5,Win32,71.42857143,,,,,,,,,,,,,,./stim/p05_syllable_1_pachialo_hit.wav,p05,pachialo,hit,pan-chia-lo,pa-chia-lo,pa-chi-a-lo, ,0.072265625,-0.301757813,1,0,0,4.259,text_option_other,pan-chialo,0,10,10,92,1
5bb2a0148f3bd70001e5633f,63f3cfca20052e4ae7554ebf,6453cdbaf259ef00ca36c44e,2023-05-04_17h29.10.790,ga_syllabified_check,2022.2.5,Win32,71.42857143,,,,,,,,,,,,,,./stim/p04_syllable_1_falufaisto_hit.wav,p04,falufaisto,hit,fa-lu-fais-to,fa-lu-fais-to,fa-lu-fa-is-to, ,-0.434570313,-0.091796875,1,0,0,2.181,text_option_1,,0,11,11,37,1
5bb2a0148f3bd70001e5633f,63f3cfca20052e4ae7554ebf,6453cdbaf259ef00ca36c44e,2023-05-04_17h29.10.790,ga_syllabified_check,2022.2.5,Win32,71.42857143,,,,,,,,,,,,,,./stim/p07_syllable_1_lakagiaisto_hit.wav,p07,lakagiaisto,hit,la-ka-gais-to,la-ka-giais-to,la-ka-gi-ais-to,la-ka-gia-is-to,0.061523438,-0.302734375,1,0,0,8.376,text_option_other,la-ka-gais-to,0,12,12,148,1
5bb2a0148f3bd70001e5633f,63f3cfca20052e4ae7554ebf,6453cdbaf259ef00ca36c44e,2023-05-04_17h29.10.790,ga_syllabified_check,2022.2.5,Win32,71.42857143,,,,,,,,,,,,,,./stim/p08_syllable_1_lakaguaisto_hit.wav,p08,lakaguaisto,hit,la-ka-gu-ais-to,la-ka-guais-to,la-ka-gu-ais-to,la-ka-gua-is-to,0.041015625,-0.10546875,1,0,0,5.97,text_option_3,,0,13,13,183,1
5bb2a0148f3bd70001e5633f,63f3cfca20052e4ae7554ebf,6453cdbaf259ef00ca36c44e,2023-05-04_17h29.10.790,ga_syllabified_check,2022.2.5,Win32,71.42857143,,,,,,,,,,,,,,./stim/p04_syllable_1_mebochiana_hit.wav,p04,mebochiana,hit,me-bo-chia-na,me-bo-chia-na,me-bo-chi-a-na, ,-0.374023438,-0.099609375,1,0,0,3.267,text_option_1,,0,14,14,56,1
5bb2a0148f3bd70001e5633f,63f3cfca20052e4ae7554ebf,6453cdbaf259ef00ca36c44e,2023-05-04_17h29.10.790,ga_syllabified_check,2022.2.5,Win32,71.42857143,,,,,,,,,,,,,,./stim/p06_syllable_1_pachialo_hit.wav,p06,pachialo,hit,pa-shi-a-lo,pa-chia-lo,pa-chi-a-lo, ,0.447265625,-0.114257813,1,0,0,1.949,text_option_2,,0,15,15,126,1
5bb2a0148f3bd70001e5633f,63f3cfca20052e4ae7554ebf,6453cdbaf259ef00ca36c44e,2023-05-04_17h29.10.790,ga_syllabified_check,2022.2.5,Win32,71.42857143,,,,,,,,,,,,,,./stim/p07_syllable_1_palumaisto_hit.wav,p07,palumaisto,hit,pa-lu-mais-to,pa-lu-mais-to,pa-lu-ma-is-to, ,-0.3046875,-0.107421875,1,0,0,2.735,text_option_1,,0,16,16,164,1
5bb2a0148f3bd70001e5633f,63f3cfca20052e4ae7554ebf,6453cdbaf259ef00ca36c44e,2023-05-04_17h29.10.790,ga_syllabified_check,2022.2.5,Win32,71.42857143,,,,,,,,,,,,,,./stim/p06_syllable_1_chiaba_hit.wav,p06,chiaba,hit,chi-a-ba,chia-ba,chi-a-ba, ,-0.408203125,-0.104492188,1,0,0,1.907,text_option_1,,0,17,17,102,1
5bb2a0148f3bd70001e5633f,63f3cfca20052e4ae7554ebf,6453cdbaf259ef00ca36c44e,2023-05-04_17h29.10.790,ga_syllabified_check,2022.2.5,Win32,71.42857143,,,,,,,,,,,,,,./stim/p07_syllable_1_palufauto_hit.wav,p07,palufauto,hit,pa-lu-fau-to,pa-lu-fau-to,pa-lu-fa-u-to, ,-0.408203125,-0.104492188,1,0,0,2.137,text_option_1,,0,18,18,162,1
5bb2a0148f3bd70001e5633f,63f3cfca20052e4ae7554ebf,6453cdbaf259ef00ca36c44e,2023-05-04_17h29.10.790,ga_syllabified_check,2022.2.5,Win32,71.42857143,,,,,,,,,,,,,,./stim/p06_syllable_1_rausto_hit.wav,p06,rausto,hit,ra-us-to,raus-to,ra-us-to, ,0.435546875,-0.106445313,1,0,0,1.675,text_option_2,,0,19,19,133,1
5bb2a0148f3bd70001e5633f,63f3cfca20052e4ae7554ebf,6453cdbaf259ef00ca36c44e,2023-05-04_17h29.10.790,ga_syllabified_check,2022.2.5,Win32,71.42857143,,,,,,,,,,,,,,./stim/p06_syllable_1_lakaguaisto_hit.wav,p06,lakaguaisto,hit,la-ka-gu-a-is,la-ka-guais-to,la-ka-gu-ais-to,la-ka-gua-is-to,0.344726563,-0.092773438,1,0,0,10.936,text_option_2,,0,20,20,115,1
5bb2a0148f3bd70001e5633f,63f3cfca20052e4ae7554ebf,6453cdbaf259ef00ca36c44e,2023-05-04_17h29.10.790,ga_syllabified_check,2022.2.5,Win32,71.42857143,,,,,,,,,,,,,,./stim/p08_syllable_1_rausto_hit.wav,p08,rausto,hit,raus-to,raus-to,ra-us-to, ,-0.4140625,-0.112304688,1,0,0,3.757,text_option_1,,0,21,21,201,1
5bb2a0148f3bd70001e5633f,63f3cfca20052e4ae7554ebf,6453cdbaf259ef00ca36c44e,2023-05-04_17h29.10.790,ga_syllabified_check,2022.2.5,Win32,71.42857143,,,,,,,,,,,,,,./stim/p04_syllable_1_palumaisto_hit.wav,p04,palumaisto,hit,pa-lu-mais-to,pa-lu-mais-to,pa-lu-ma-is-to, ,-0.397460938,-0.109375,1,0,0,1.276,text_option_1,,0,22,22,62,1
5bb2a0148f3bd70001e5633f,63f3cfca20052e4ae7554ebf,6453cdbaf259ef00ca36c44e,2023-05-04_17h29.10.790,ga_syllabified_check,2022.2.5,Win32,71.42857143,,,,,,,,,,,,,,./stim/p08_syllable_1_palufauro_hit.wav,p08,palufauro,hit,pa-lu-fau-ro,pa-lu-fau-ro,pa-lu-fa-u-ro, ,-0.397460938,-0.109375,1,0,0,2.956,text_option_1,,0,23,23,195,1
5bb2a0148f3bd70001e5633f,63f3cfca20052e4ae7554ebf,6453cdbaf259ef00ca36c44e,2023-05-04_17h29.10.790,ga_syllabified_check,2022.2.5,Win32,71.42857143,,,,,,,,,,,,,,./stim/p07_syllable_1_lakafiaisto_hit.wav,p07,lakafiaisto,hit,la-ka-fiais-to,la-ka-fiais-to,la-ka-fi-ais-to,la-ka-fia-is-to,-0.397460938,-0.109375,1,0,0,1.8,text_option_1,,0,24,24,146,1
5bb2a0148f3bd70001e5633f,63f3cfca20052e4ae7554ebf,6453cdbaf259ef00ca36c44e,2023-05-04_17h29.10.790,ga_syllabified_check,2022.2.5,Win32,71.42857143,,,,,,,,,,,,,,./stim/p06_syllable_1_lakapuaisto_hit.wav,p06,lakapuaisto,hit,la-ka-pu-a-is,la-ka-puais-to,la-ka-pu-ais-to,la-ka-pua-is-to,0.029296875,-0.307617188,1,0,0,6.556,text_option_other,la-ka-pu-a-is-to,0,25,25,119,1
5bb2a0148f3bd70001e5633f,63f3cfca20052e4ae7554ebf,6453cdbaf259ef00ca36c44e,2023-05-04_17h29.10.790,ga_syllabified_check,2022.2.5,Win32,71.42857143,,,,,,,,,,,,,,./stim/p08_syllable_1_faluduako_hit.wav,p08,faluduako,hit,fa-lu-duai-ko,fa-lu-dua-ko,fa-lu-du-a-ko, ,-0.014648438,-0.297851563,1,0,0,2.953,text_option_other,fa-lu-duai-ko,0,26,26,172,1
5bb2a0148f3bd70001e5633f,63f3cfca20052e4ae7554ebf,6453cdbaf259ef00ca36c44e,2023-05-04_17h29.10.790,ga_syllabified_check,2022.2.5,Win32,71.42857143,,,,,,,,,,,,,,./stim/p05_syllable_1_lakaguaisto_hit.wav,p05,lakaguaisto,hit,la-ka-gais,la-ka-guais-to,la-ka-gu-ais-to,la-ka-gua-is-to,-0.010742188,-0.297851563,1,0,0,5.175,text_option_other,la-ka-gais-to,0,27,27,81,1
5bb2a0148f3bd70001e5633f,63f3cfca20052e4ae7554ebf,6453cdbaf259ef00ca36c44e,2023-05-04_17h29.10.790,ga_syllabified_check,2022.2.5,Win32,71.42857143,,,,,,,,,,,,,,./stim/p07_syllable_1_palufauro_hit.wav,p07,palufauro,hit,pa-lu-fau-ro,pa-lu-fau-ro,pa-lu-fa-u-ro, ,-0.32421875,-0.08984375,1,0,0,1.907,text_option_1,,0,28,28,161,1
5bb2a0148f3bd70001e5633f,63f3cfca20052e4ae7554ebf,6453cdbaf259ef00ca36c44e,2023-05-04_17h29.10.790,ga_syllabified_check,2022.2.5,Win32,71.42857143,,,,,,,,,,,,,,./stim/p05_syllable_1_palutrauco_hit.wav,p05,palutrauco,hit,pa-lu-trai-co,pa-lu-trau-co,pa-lu-tra-u-co, ,0.024414063,-0.302734375,1,0,0,2.873,text_option_other,pa-lu-trai-ko,0,29,29,97,1
5bb2a0148f3bd70001e5633f,63f3cfca20052e4ae7554ebf,6453cdbaf259ef00ca36c44e,2023-05-04_17h29.10.790,ga_syllabified_check,2022.2.5,Win32,71.42857143,,,,,,,,,,,,,,./stim/p05_syllable_1_palumaisto_hit.wav,p05,palumaisto,hit,pa-lu-mais-to,pa-lu-mais-to,pa-lu-ma-is-to, ,-0.396484375,-0.106445313,1,0,0,1.687,text_option_1,,0,30,30,96,1
5bb2a0148f3bd70001e5633f,63f3cfca20052e4ae7554ebf,6453cdbaf259ef00ca36c44e,2023-05-04_17h29.10.790,ga_syllabified_check,2022.2.5,Win32,71.42857143,,,,,,,,,,,,,,./stim/p05_syllable_1_lakaduaisto_hit.wav,p05,lakaduaisto,hit,la-ka-dais-to,la-ka-duais-to,la-ka-du-ais-to,la-ka-dua-is-to,-0.390625,-0.10546875,1,0,0,5.092,text_option_1,,0,31,31,77,1
5bb2a0148f3bd70001e5633f,63f3cfca20052e4ae7554ebf,6453cdbaf259ef00ca36c44e,2023-05-04_17h29.10.790,ga_syllabified_check,2022.2.5,Win32,71.42857143,,,,,,,,,,,,,,./stim/p04_syllable_1_lakapuaisto_hit.wav,p04,lakapuaisto,hit,la-ka-puais-to,la-ka-puais-to,la-ka-pu-ais-to,la-ka-pua-is-to,-0.059570313,-0.114257813,1,0,0,5.415,text_option_3,,0,32,32,51,1
5bb2a0148f3bd70001e5633f,63f3cfca20052e4ae7554ebf,6453cdbaf259ef00ca36c44e,2023-05-04_17h29.10.790,ga_syllabified_check,2022.2.5,Win32,71.42857143,,,,,,,,,,,,,,./stim/p03_syllable_1_lakafuaisto_hit.wav,p03,lakafuaisto,hit,la-ka-fuais-to,la-ka-fuais-to,la-ka-fu-ais-to,la-ka-fua-is-to,-0.315429688,-0.112304688,1,0,0,1.624,text_option_1,,0,33,33,11,1
5bb2a0148f3bd70001e5633f,63f3cfca20052e4ae7554ebf,6453cdbaf259ef00ca36c44e,2023-05-04_17h29.10.790,ga_syllabified_check,2022.2.5,Win32,71.42857143,,,,,,,,,,,,,,./stim/p03_syllable_1_falutraigo_hit.wav,p03,falutraigo,hit,fa-lu-trai-go,fa-lu-trai-go,fa-lu-tra-i-go, ,-0.315429688,-0.112304688,1,0,0,1.667,text_option_1,,0,34,34,4,1
5bb2a0148f3bd70001e5633f,63f3cfca20052e4ae7554ebf,6453cdbaf259ef00ca36c44e,2023-05-04_17h29.10.790,ga_syllabified_check,2022.2.5,Win32,71.42857143,,,,,,,,,,,,,,./stim/p03_syllable_1_paluguato_hit.wav,p03,paluguato,hit,pa-lu-gua,pa-lu-gua-to,pa-lu-gu-a-to, ,-0.315429688,-0.112304688,1,0,0,1.019,text_option_1,,0,35,35,27,1
5bb2a0148f3bd70001e5633f,63f3cfca20052e4ae7554ebf,6453cdbaf259ef00ca36c44e,2023-05-04_17h29.10.790,ga_syllabified_check,2022.2.5,Win32,71.42857143,,,,,,,,,,,,,,./stim/p06_syllable_1_lakakuaisto_hit.wav,p06,lakakuaisto,hit,la-ka-ku-a-is,la-ka-kuais-to,la-ka-ku-ais-to,la-ka-kua-is-to,0.400390625,-0.110351563,1,0,0,3.473,text_option_2,,0,36,36,117,1
5bb2a0148f3bd70001e5633f,63f3cfca20052e4ae7554ebf,6453cdbaf259ef00ca36c44e,2023-05-04_17h29.10.790,ga_syllabified_check,2022.2.5,Win32,71.42857143,,,,,,,,,,,,,,./stim/p08_syllable_1_paluguato_hit.wav,p08,paluguato,hit,pa-lu-gua-to,pa-lu-gua-to,pa-lu-gu-a-to, ,-0.309570313,-0.10546875,1,0,0,2.013,text_option_1,,0,37,37,197,1
5bb2a0148f3bd70001e5633f,63f3cfca20052e4ae7554ebf,6453cdbaf259ef00ca36c44e,2023-05-04_17h29.10.790,ga_syllabified_check,2022.2.5,Win32,71.42857143,,,,,,,,,,,,,,./stim/p07_syllable_1_lakapiaisto_hit.wav,p07,lakapiaisto,hit,la-ka-pia-sto,la-ka-piais-to,la-ka-pi-ais-to,la-ka-pia-is-to,0.012695313,-0.115234375,1,0,0,3.545,text_option_3,,0,38,38,152,1
5bb2a0148f3bd70001e5633f,63f3cfca20052e4ae7554ebf,6453cdbaf259ef00ca36c44e,2023-05-04_17h29.10.790,ga_syllabified_check,2022.2.5,Win32,71.42857143,,,,,,,,,,,,,,./stim/p06_syllable_1_ruyiola_hit.wav,p06,ruyiola,hit,ru-yi-o-la,ru-yio-la,ru-yi-o-la, ,0.442382813,-0.102539063,1,0,0,1.475,text_option_2,,0,39,39,134,1
5bb2a0148f3bd70001e5633f,63f3cfca20052e4ae7554ebf,6453cdbaf259ef00ca36c44e,2023-05-04_17h29.10.790,ga_syllabified_check,2022.2.5,Win32,71.42857143,,,,,,,,,,,,,,./stim/p03_syllable_1_tuliafo_hit.wav,p03,tuliafo,hit,tu-lia-fo,tu-lia-fo,tu-li-a-fo, ,-0.356445313,-0.112304688,1,0,0,0.879,text_option_1,,0,40,40,33,1
5bb2a0148f3bd70001e5633f,63f3cfca20052e4ae7554ebf,6453cdbaf259ef00ca36c44e,2023-05-04_17h29.10.790,ga_syllabified_check,2022.2.5,Win32,71.42857143,,,,,,,,,,,,,,./stim/p03_syllable_1_palutrauco_hit.wav,p03,palutrauco,hit,pa-lu-trau-co,pa-lu-trau-co,pa-lu-tra-u-co, ,-0.356445313,-0.11328125,1,0,0,0.969,text_option_1,,0,41,41,29,1
5bb2a0148f3bd70001e5633f,63f3cfca20052e4ae7554ebf,6453cdbaf259ef00ca36c44e,2023-05-04_17h29.10.790,ga_syllabified_check,2022.2.5,Win32,71.42857143,,,,,,,,,,,,,,./stim/p06_syllable_1_manhiala_hit.wav,p06,mañiala,hit,ma-nhi-a-la,ma-ñia-la,ma-ñi-a-la, ,0.44140625,-0.115234375,1,0,0,1.846,text_option_2,,0,42,42,123,1
5bb2a0148f3bd70001e5633f,63f3cfca20052e4ae7554ebf,6453cdbaf259ef00ca36c44e,2023-05-04_17h29.10.790,ga_syllabified_check,2022.2.5,Win32,71.42857143,,,,,,,,,,,,,,./stim/p08_syllable_1_costonhialo_hit.wav,p08,costoñialo,hit,cos-to-nhia-lo,cos-to-ñia-lo,cos-to-ñi-a-lo, ,-0.368164063,-0.095703125,1,0,0,1.913,text_option_1,,0,43,43,171,1
5bb2a0148f3bd70001e5633f,63f3cfca20052e4ae7554ebf,6453cdbaf259ef00ca36c44e,2023-05-04_17h29.10.790,ga_syllabified_check,2022.2.5,Win32,71.42857143,,,,,,,,,,,,,,./stim/p03_syllable_1_lakabiaisto_hit.wav,p03,lakabiaisto,hit,la-ka-biais-to,la-ka-biais-to,la-ka-bi-ais-to,la-ka-bia-is-to,-0.356445313,-0.11328125,1,0,0,1.728,text_option_1,,0,44,44,6,1
5bb2a0148f3bd70001e5633f,63f3cfca20052e4ae7554ebf,6453cdbaf259ef00ca36c44e,2023-05-04_17h29.10.790,ga_syllabified_check,2022.2.5,Win32,71.42857143,,,,,,,,,,,,,,./stim/p04_syllable_1_lakaduaisto_hit.wav,p04,lakaduaisto,hit,la-ka-duais-to,la-ka-duais-to,la-ka-du-ais-to,la-ka-dua-is-to,-0.35546875,-0.11328125,1,0,0,0.868,text_option_1,,0,45,45,43,1
5bb2a0148f3bd70001e5633f,63f3cfca20052e4ae7554ebf,6453cdbaf259ef00ca36c44e,2023-05-04_17h29.10.790,ga_syllabified_check,2022.2.5,Win32,71.42857143,,,,,,,,,,,,,,./stim/p07_syllable_1_ruyiola_hit.wav,p07,ruyiola,hit,ru-yio-la,ru-yio-la,ru-yi-o-la, ,-0.35546875,-0.11328125,1,0,0,1.157,text_option_1,,0,46,46,168,1
5bb2a0148f3bd70001e5633f,63f3cfca20052e4ae7554ebf,6453cdbaf259ef00ca36c44e,2023-05-04_17h29.10.790,ga_syllabified_check,2022.2.5,Win32,71.42857143,,,,,,,,,,,,,,./stim/p04_syllable_1_lliape_hit.wav,p04,lliape,hit,lia-pe,llia-pe,lli-a-pe, ,-0.35546875,-0.11328125,1,0,0,0.665,text_option_1,,0,47,47,54,1
5bb2a0148f3bd70001e5633f,63f3cfca20052e4ae7554ebf,6453cdbaf259ef00ca36c44e,2023-05-04_17h29.10.790,ga_syllabified_check,2022.2.5,Win32,71.42857143,,,,,,,,,,,,,,./stim/p08_syllable_1_lakabiaisto_hit.wav,p08,lakabiaisto,hit,la-ka-bi-as-to,la-ka-biais-to,la-ka-bi-ais-to,la-ka-bia-is-to,0.376953125,-0.1171875,1,0,0,2.953,text_option_2,,0,48,48,176,1
5bb2a0148f3bd70001e5633f,63f3cfca20052e4ae7554ebf,6453cdbaf259ef00ca36c44e,2023-05-04_17h29.10.790,ga_syllabified_check,2022.2.5,Win32,71.42857143,,,,,,,,,,,,,,./stim/p03_syllable_1_palufauto_hit.wav,p03,palufauto,hit,pa-lu-fau,pa-lu-fau-to,pa-lu-fa-u-to, ,-0.411132813,-0.112304688,1,0,0,1.217,text_option_1,,0,49,49,26,1
5bb2a0148f3bd70001e5633f,63f3cfca20052e4ae7554ebf,6453cdbaf259ef00ca36c44e,2023-05-04_17h29.10.790,ga_syllabified_check,2022.2.5,Win32,71.42857143,,,,,,,,,,,,,,./stim/p04_syllable_1_costonhialo_hit.wav,p04,costoñialo,hit,cos-to-nhia-lo,cos-to-ñia-lo,cos-to-ñi-a-lo, ,-0.411132813,-0.112304688,1,0,0,1.267,text_option_1,,0,50,50,35,1
5bb2a0148f3bd70001e5633f,63f3cfca20052e4ae7554ebf,6453cdbaf259ef00ca36c44e,2023-05-04_17h29.10.790,ga_syllabified_check,2022.2.5,Win32,71.42857143,,,,,,,,,,,,,,./stim/p07_syllable_1_lliape_hit.wav,p07,lliape,hit,lliai-pe,llia-pe,lli-a-pe, ,-0.014648438,-0.296875,1,0,0,1.801,text_option_other,lliai-pe,0,51,51,156,1
5bb2a0148f3bd70001e5633f,63f3cfca20052e4ae7554ebf,6453cdbaf259ef00ca36c44e,2023-05-04_17h29.10.790,ga_syllabified_check,2022.2.5,Win32,71.42857143,,,,,,,,,,,,,,./stim/p04_syllable_1_rausto_hit.wav,p04,rausto,hit,raus-to,raus-to,ra-us-to, ,-0.435546875,-0.102539063,1,0,0,0.646,text_option_1,,0,52,52,65,1
5bb2a0148f3bd70001e5633f,63f3cfca20052e4ae7554ebf,6453cdbaf259ef00ca36c44e,2023-05-04_17h29.10.790,ga_syllabified_check,2022.2.5,Win32,71.42857143,,,,,,,,,,,,,,./stim/p05_syllable_1_paluguato_hit.wav,p05,paluguato,hit,pa-lu-gau-to,pa-lu-gua-to,pa-lu-gu-a-to, ,0.045898438,-0.311523438,1,0,0,5.265,text_option_other,palu-gau-to,0,53,53,95,1
5bb2a0148f3bd70001e5633f,63f3cfca20052e4ae7554ebf,6453cdbaf259ef00ca36c44e,2023-05-04_17h29.10.790,ga_syllabified_check,2022.2.5,Win32,71.42857143,,,,,,,,,,,,,,./stim/p06_syllable_1_lliape_hit.wav,p06,lliape,hit,lli-lla-pe,llia-pe,lli-a-pe, ,0.444335938,-0.095703125,1,0,0,1.148,text_option_2,,0,54,54,122,1
5bb2a0148f3bd70001e5633f,63f3cfca20052e4ae7554ebf,6453cdbaf259ef00ca36c44e,2023-05-04_17h29.10.790,ga_syllabified_check,2022.2.5,Win32,71.42857143,,,,,,,,,,,,,,./stim/p05_syllable_1_ruyiola_hit.wav,p05,ruyiola,hit,ru-yio-la,ru-yio-la,ru-yi-o-la, ,-0.368164063,-0.102539063,1,0,0,0.96,text_option_1,,0,55,55,100,1
5bb2a0148f3bd70001e5633f,63f3cfca20052e4ae7554ebf,6453cdbaf259ef00ca36c44e,2023-05-04_17h29.10.790,ga_syllabified_check,2022.2.5,Win32,71.42857143,,,,,,,,,,,,,,./stim/p08_syllable_1_ruyiola_hit.wav,p08,ruyiola,hit,ru-yio-la,ru-yio-la,ru-yi-o-la, ,-0.368164063,-0.102539063,1,0,0,0.853,text_option_1,,0,56,56,202,1
5bb2a0148f3bd70001e5633f,63f3cfca20052e4ae7554ebf,6453cdbaf259ef00ca36c44e,2023-05-04_17h29.10.790,ga_syllabified_check,2022.2.5,Win32,71.42857143,,,,,,,,,,,,,,./stim/p03_syllable_1_ruyiola_hit.wav,p03,ruyiola,hit,ru-yio-la,ru-yio-la,ru-yi-o-la, ,-0.368164063,-0.102539063,1,0,0,0.745,text_option_1,,0,57,57,32,1
5bb2a0148f3bd70001e5633f,63f3cfca20052e4ae7554ebf,6453cdbaf259ef00ca36c44e,2023-05-04_17h29.10.790,ga_syllabified_check,2022.2.5,Win32,71.42857143,,,,,,,,,,,,,,./stim/p06_syllable_1_lakakiaisto_hit.wav,p06,lakakiaisto,hit,la-ka-kia-is-to,la-ka-kiais-to,la-ka-ki-ais-to,la-ka-kia-is-to,-0.043945313,-0.111328125,1,0,0,3.74,text_option_3,,0,58,58,116,1
5bb2a0148f3bd70001e5633f,63f3cfca20052e4ae7554ebf,6453cdbaf259ef00ca36c44e,2023-05-04_17h29.10.790,ga_syllabified_check,2022.2.5,Win32,71.42857143,,,,,,,,,,,,,,./stim/p05_syllable_1_lakadiaisto_hit.wav,p05,lakadiaisto,hit,la-ka-di-ais-to,la-ka-diais-to,la-ka-di-ais-to,la-ka-dia-is-to,-0.359375,-0.099609375,1,0,0,1.803,text_option_1,,0,59,59,76,1
5bb2a0148f3bd70001e5633f,63f3cfca20052e4ae7554ebf,6453cdbaf259ef00ca36c44e,2023-05-04_17h29.10.790,ga_syllabified_check,2022.2.5,Win32,71.42857143,,,,,,,,,,,,,,./stim/p04_syllable_1_lakagiaisto_hit.wav,p04,lakagiaisto,hit,la-ka-giais-to,la-ka-giais-to,la-ka-gi-ais-to,la-ka-gia-is-to,-0.342773438,-0.109375,1,0,0,3.603,text_option_1,,0,60,60,46,1
5bb2a0148f3bd70001e5633f,63f3cfca20052e4ae7554ebf,6453cdbaf259ef00ca36c44e,2023-05-04_17h29.10.790,ga_syllabified_check,2022.2.5,Win32,71.42857143,,,,,,,,,,,,,,./stim/p07_syllable_1_lakakuaisto_hit.wav,p07,lakakuaisto,hit,la-ka-kuais-to,la-ka-kuais-to,la-ka-ku-ais-to,la-ka-kua-is-to,-0.342773438,-0.109375,1,0,0,2.14,text_option_1,,0,61,61,151,1
5bb2a0148f3bd70001e5633f,63f3cfca20052e4ae7554ebf,6453cdbaf259ef00ca36c44e,2023-05-04_17h29.10.790,ga_syllabified_check,2022.2.5,Win32,71.42857143,,,,,,,,,,,,,,./stim/p07_syllable_1_chiaba_hit.wav,p07,chiaba,hit,chia-ba,chia-ba,chi-a-ba, ,-0.35546875,-0.107421875,1,0,0,0.613,text_option_1,,0,62,62,136,1
5bb2a0148f3bd70001e5633f,63f3cfca20052e4ae7554ebf,6453cdbaf259ef00ca36c44e,2023-05-04_17h29.10.790,ga_syllabified_check,2022.2.5,Win32,71.42857143,,,,,,,,,,,,,,./stim/p07_syllable_1_costonhialo_hit.wav,p07,costoñialo,hit,cos-to-nhia-lo,cos-to-ñia-lo,cos-to-ñi-a-lo, ,-0.35546875,-0.107421875,1,0,0,1.992,text_option_1,,0,63,63,137,1
5bb2a0148f3bd70001e5633f,63f3cfca20052e4ae7554ebf,6453cdbaf259ef00ca36c44e,2023-05-04_17h29.10.790,ga_syllabified_check,2022.2.5,Win32,71.42857143,,,,,,,,,,,,,,./stim/p07_syllable_1_lakaguaisto_hit.wav,p07,lakaguaisto,hit,la-ka-guais-to,la-ka-guais-to,la-ka-gu-ais-to,la-ka-gua-is-to,-0.35546875,-0.107421875,1,0,0,1.767,text_option_1,,0,64,64,149,1
5bb2a0148f3bd70001e5633f,63f3cfca20052e4ae7554ebf,6453cdbaf259ef00ca36c44e,2023-05-04_17h29.10.790,ga_syllabified_check,2022.2.5,Win32,71.42857143,,,,,,,,,,,,,,./stim/p07_syllable_1_lakaduaisto_hit.wav,p07,lakaduaisto,hit,la-ka-duais-to,la-ka-duais-to,la-ka-du-ais-to,la-ka-dua-is-to,-0.354492188,-0.108398438,1,0,0,1.946,text_option_1,,0,65,65,145,1
5bb2a0148f3bd70001e5633f,63f3cfca20052e4ae7554ebf,6453cdbaf259ef00ca36c44e,2023-05-04_17h29.10.790,ga_syllabified_check,2022.2.5,Win32,71.42857143,,,,,,,,,,,,,,./stim/p05_syllable_1_lakakiaisto_hit.wav,p05,lakakiaisto,hit,la-ka-ki-ais-to,la-ka-kiais-to,la-ka-ki-ais-to,la-ka-kia-is-to,-0.354492188,-0.108398438,1,0,0,4.183,text_option_1,,0,66,66,82,1
5bb2a0148f3bd70001e5633f,63f3cfca20052e4ae7554ebf,6453cdbaf259ef00ca36c44e,2023-05-04_17h29.10.790,ga_syllabified_check,2022.2.5,Win32,71.42857143,,,,,,,,,,,,,,./stim/p03_syllable_1_lakafiaisto_hit.wav,p03,lakafiaisto,hit,la-ka-fiais-to,la-ka-fiais-to,la-ka-fi-ais-to,la-ka-fia-is-to,-0.354492188,-0.108398438,1,0,0,2.372,text_option_1,,0,67,67,10,1
5bb2a0148f3bd70001e5633f,63f3cfca20052e4ae7554ebf,6453cdbaf259ef00ca36c44e,2023-05-04_17h29.10.790,ga_syllabified_check,2022.2.5,Win32,71.42857143,,,,,,,,,,,,,,./stim/p08_syllable_1_nhiape_hit.wav,p08,ñiape,hit,ni-a-pe,ñia-pe,ñi-a-pe, ,0.387695313,-0.104492188,1,0,0,3.272,text_option_2,,0,68,68,193,1
5bb2a0148f3bd70001e5633f,63f3cfca20052e4ae7554ebf,6453cdbaf259ef00ca36c44e,2023-05-04_17h29.10.790,ga_syllabified_check,2022.2.5,Win32,71.42857143,,,,,,,,,,,,,,./stim/p04_syllable_1_manhiala_hit.wav,p04,mañiala,hit,ma-nhia-la,ma-ñia-la,ma-ñi-a-la, ,-0.404296875,-0.103515625,1,0,0,2.274,text_option_1,,0,69,69,55,1
5bb2a0148f3bd70001e5633f,63f3cfca20052e4ae7554ebf,6453cdbaf259ef00ca36c44e,2023-05-04_17h29.10.790,ga_syllabified_check,2022.2.5,Win32,71.42857143,,,,,,,,,,,,,,./stim/p07_syllable_1_lakatuaisto_hit.wav,p07,lakatuaisto,hit,la-ka-tuais-to,la-ka-tuais-to,la-ka-tu-ais-to,la-ka-tua-is-to,-0.368164063,-0.106445313,1,0,0,2.24,text_option_1,,0,70,70,155,1
5bb2a0148f3bd70001e5633f,63f3cfca20052e4ae7554ebf,6453cdbaf259ef00ca36c44e,2023-05-04_17h29.10.790,ga_syllabified_check,2022.2.5,Win32,71.42857143,,,,,,,,,,,,,,./stim/p08_syllable_1_lliape_hit.wav,p08,lliape,hit,li-a-pe,llia-pe,lli-a-pe, ,0.422851563,-0.110351563,1,0,0,2.653,text_option_2,,0,71,71,190,1
5bb2a0148f3bd70001e5633f,63f3cfca20052e4ae7554ebf,6453cdbaf259ef00ca36c44e,2023-05-04_17h29.10.790,ga_syllabified_check,2022.2.5,Win32,71.42857143,,,,,,,,,,,,,,./stim/p07_syllable_1_lakapuaisto_hit.wav,p07,lakapuaisto,hit,la-ka-puais-to,la-ka-puais-to,la-ka-pu-ais-to,la-ka-pua-is-to,-0.329101563,-0.109375,1,0,0,2.569,text_option_1,,0,72,72,153,1
5bb2a0148f3bd70001e5633f,63f3cfca20052e4ae7554ebf,6453cdbaf259ef00ca36c44e,2023-05-04_17h29.10.790,ga_syllabified_check,2022.2.5,Win32,71.42857143,,,,,,,,,,,,,,./stim/p07_syllable_1_lakadiaisto_hit.wav,p07,lakadiaisto,hit,la-ka-dia-is-to,la-ka-diais-to,la-ka-di-ais-to,la-ka-dia-is-to,-0.060546875,-0.111328125,1,0,0,2.678,text_option_3,,0,73,73,144,1
5bb2a0148f3bd70001e5633f,63f3cfca20052e4ae7554ebf,6453cdbaf259ef00ca36c44e,2023-05-04_17h29.10.790,ga_syllabified_check,2022.2.5,Win32,71.42857143,,,,,,,,,,,,,,./stim/p03_syllable_1_payielo_hit.wav,p03,payielo,hit,pa-yie-lo,pa-yie-lo,pa-yi-e-lo, ,-0.34375,-0.106445313,1,0,0,1.633,text_option_1,,0,74,74,30,1
5bb2a0148f3bd70001e5633f,63f3cfca20052e4ae7554ebf,6453cdbaf259ef00ca36c44e,2023-05-04_17h29.10.790,ga_syllabified_check,2022.2.5,Win32,71.42857143,,,,,,,,,,,,,,./stim/p07_syllable_1_nhiape_hit.wav,p07,ñiape,hit,nhia-pe,ñia-pe,ñi-a-pe, ,-0.368164063,-0.107421875,1,0,0,0.76,text_option_1,,0,75,75,159,1
5bb2a0148f3bd70001e5633f,63f3cfca20052e4ae7554ebf,6453cdbaf259ef00ca36c44e,2023-05-04_17h29.10.790,ga_syllabified_check,2022.2.5,Win32,71.42857143,,,,,,,,,,,,,,./stim/p03_syllable_1_costonhialo_hit.wav,p03,costoñialo,hit,cos-to-nhia-lo,cos-to-ñia-lo,cos-to-ñi-a-lo, ,-0.369140625,-0.108398438,1,0,0,2.751,text_option_1,,0,76,76,1,1
5bb2a0148f3bd70001e5633f,63f3cfca20052e4ae7554ebf,6453cdbaf259ef00ca36c44e,2023-05-04_17h29.10.790,ga_syllabified_check,2022.2.5,Win32,71.42857143,,,,,,,,,,,,,,./stim/p04_syllable_1_palufauro_hit.wav,p04,palufauro,hit,pa-lu-fau-ro,pa-lu-fau-ro,pa-lu-fa-u-ro, ,-0.369140625,-0.108398438,1,0,0,1.094,text_option_1,,0,77,77,59,1
5bb2a0148f3bd70001e5633f,63f3cfca20052e4ae7554ebf,6453cdbaf259ef00ca36c44e,2023-05-04_17h29.10.790,ga_syllabified_check,2022.2.5,Win32,71.42857143,,,,,,,,,,,,,,./stim/p05_syllable_1_flauro_hit.wav,p05,flauro,hit,fa-lu-ro,flau-ro,fla-u-ro, ,0.022460938,-0.306640625,1,0,0,1.387,text_option_other,fa-lu-ro,0,78,78,73,1
5bb2a0148f3bd70001e5633f,63f3cfca20052e4ae7554ebf,6453cdbaf259ef00ca36c44e,2023-05-04_17h29.10.790,ga_syllabified_check,2022.2.5,Win32,71.42857143,,,,,,,,,,,,,,./stim/p08_syllable_1_mebochiana_hit.wav,p08,mebochiana,hit,me-bo-chi-a-na,me-bo-chia-na,me-bo-chi-a-na, ,0.436523438,-0.092773438,1,0,0,2.228,text_option_2,,0,79,79,192,1
5bb2a0148f3bd70001e5633f,63f3cfca20052e4ae7554ebf,6453cdbaf259ef00ca36c44e,2023-05-04_17h29.10.790,ga_syllabified_check,2022.2.5,Win32,71.42857143,,,,,,,,,,,,,,./stim/p04_syllable_1_falutraigo_hit.wav,p04,falutraigo,hit,fa-lu-trai-go,fa-lu-trai-go,fa-lu-tra-i-go, ,-0.454101563,-0.087890625,1,0,0,0.789,text_option_1,,0,80,80,38,1
5bb2a0148f3bd70001e5633f,63f3cfca20052e4ae7554ebf,6453cdbaf259ef00ca36c44e,2023-05-04_17h29.10.790,ga_syllabified_check,2022.2.5,Win32,71.42857143,,,,,,,,,,,,,,./stim/p04_syllable_1_paluguato_hit.wav,p04,paluguato,hit,pa-lu-gua,pa-lu-gua-to,pa-lu-gu-a-to, ,-0.327148438,-0.108398438,1,0,0,2.107,text_option_1,,0,81,81,61,1
5bb2a0148f3bd70001e5633f,63f3cfca20052e4ae7554ebf,6453cdbaf259ef00ca36c44e,2023-05-04_17h29.10.790,ga_syllabified_check,2022.2.5,Win32,71.42857143,,,,,,,,,,,,,,./stim/p07_syllable_1_lakakiaisto_hit.wav,p07,lakakiaisto,hit,la-ka-kais-to,la-ka-kiais-to,la-ka-ki-ais-to,la-ka-kia-is-to,0.005859375,-0.311523438,1,0,0,3.497,text_option_other,la-ka-kais-to,0,82,82,150,1
5bb2a0148f3bd70001e5633f,63f3cfca20052e4ae7554ebf,6453cdbaf259ef00ca36c44e,2023-05-04_17h29.10.790,ga_syllabified_check,2022.2.5,Win32,71.42857143,,,,,,,,,,,,,,./stim/p05_syllable_1_tuliafo_hit.wav,p05,tuliafo,hit,tu-lai-fo,tu-lia-fo,tu-li-a-fo, ,0.0546875,-0.303710938,1,0,0,1.353,text_option_other,tu-lai-fo,0,83,83,101,1
5bb2a0148f3bd70001e5633f,63f3cfca20052e4ae7554ebf,6453cdbaf259ef00ca36c44e,2023-05-04_17h29.10.790,ga_syllabified_check,2022.2.5,Win32,71.42857143,,,,,,,,,,,,,,./stim/p03_syllable_1_lakagiaisto_hit.wav,p03,lakagiaisto,hit,la-ka-giais-to,la-ka-giais-to,la-ka-gi-ais-to,la-ka-gia-is-to,-0.37109375,-0.112304688,1,0,0,4.674,text_option_1,,0,84,84,12,1
5bb2a0148f3bd70001e5633f,63f3cfca20052e4ae7554ebf,6453cdbaf259ef00ca36c44e,2023-05-04_17h29.10.790,ga_syllabified_check,2022.2.5,Win32,71.42857143,,,,,,,,,,,,,,./stim/p03_syllable_1_lakaguaisto_hit.wav,p03,lakaguaisto,hit,la-ka-guais-to,la-ka-guais-to,la-ka-gu-ais-to,la-ka-gua-is-to,-0.37109375,-0.112304688,1,0,0,3.309,text_option_1,,0,85,85,13,1
5bb2a0148f3bd70001e5633f,63f3cfca20052e4ae7554ebf,6453cdbaf259ef00ca36c44e,2023-05-04_17h29.10.790,ga_syllabified_check,2022.2.5,Win32,71.42857143,,,,,,,,,,,,,,./stim/p06_syllable_1_palumaisto_hit.wav,p06,palumaisto,hit,pa-lu-ma-is-to,pa-lu-mais-to,pa-lu-ma-is-to, ,0.415039063,-0.109375,1,0,0,2.978,text_option_2,,0,86,86,130,1
5bb2a0148f3bd70001e5633f,63f3cfca20052e4ae7554ebf,6453cdbaf259ef00ca36c44e,2023-05-04_17h29.10.790,ga_syllabified_check,2022.2.5,Win32,71.42857143,,,,,,,,,,,,,,./stim/p03_syllable_1_pachialo_hit.wav,p03,pachialo,hit,pa-chia-lo,pa-chia-lo,pa-chi-a-lo, ,-0.356445313,-0.109375,1,0,0,0.97,text_option_1,,0,87,87,24,1
5bb2a0148f3bd70001e5633f,63f3cfca20052e4ae7554ebf,6453cdbaf259ef00ca36c44e,2023-05-04_17h29.10.790,ga_syllabified_check,2022.2.5,Win32,71.42857143,,,,,,,,,,,,,,./stim/p08_syllable_1_lakaduaisto_hit.wav,p08,lakaduaisto,hit,la-ka-du-ais-to,la-ka-duais-to,la-ka-du-ais-to,la-ka-dua-is-to,-0.025390625,-0.109375,1,0,0,4.551,text_option_3,,0,88,88,179,1
5bb2a0148f3bd70001e5633f,63f3cfca20052e4ae7554ebf,6453cdbaf259ef00ca36c44e,2023-05-04_17h29.10.790,ga_syllabified_check,2022.2.5,Win32,71.42857143,,,,,,,,,,,,,,./stim/p08_syllable_1_lakapuaisto_hit.wav,p08,lakapuaisto,hit,la-ka-pu-as-to,la-ka-puais-to,la-ka-pu-ais-to,la-ka-pua-is-to,-0.004882813,-0.30078125,1,0,0,3.28,text_option_other,la-ka-puas-to,0,89,89,187,1
5bb2a0148f3bd70001e5633f,63f3cfca20052e4ae7554ebf,6453cdbaf259ef00ca36c44e,2023-05-04_17h29.10.790,ga_syllabified_check,2022.2.5,Win32,71.42857143,,,,,,,,,,,,,,./stim/p07_syllable_1_paluguato_hit.wav,p07,paluguato,hit,pa-lu-gua-to,pa-lu-gua-to,pa-lu-gu-a-to, ,-0.436523438,-0.100585938,1,0,0,1.495,text_option_1,,0,90,90,163,1
5bb2a0148f3bd70001e5633f,63f3cfca20052e4ae7554ebf,6453cdbaf259ef00ca36c44e,2023-05-04_17h29.10.790,ga_syllabified_check,2022.2.5,Win32,71.42857143,,,,,,,,,,,,,,./stim/p05_syllable_1_lakakuaisto_hit.wav,p05,lakakuaisto,hit,la-ka-kais-to,la-ka-kuais-to,la-ka-ku-ais-to,la-ka-kua-is-to,0.061523438,-0.315429688,1,0,0,2.172,text_option_other,la-ka-kais-to,0,91,91,83,1
5bb2a0148f3bd70001e5633f,63f3cfca20052e4ae7554ebf,6453cdbaf259ef00ca36c44e,2023-05-04_17h29.10.790,ga_syllabified_check,2022.2.5,Win32,71.42857143,,,,,,,,,,,,,,./stim/p06_syllable_1_lakapiaisto_hit.wav,p06,lakapiaisto,hit,la-ka-pia-is-to,la-ka-piais-to,la-ka-pi-ais-to,la-ka-pia-is-to,0.078125,-0.10546875,1,0,0,4.746,text_option_3,,0,92,92,118,1
5bb2a0148f3bd70001e5633f,63f3cfca20052e4ae7554ebf,6453cdbaf259ef00ca36c44e,2023-05-04_17h29.10.790,ga_syllabified_check,2022.2.5,Win32,71.42857143,,,,,,,,,,,,,,./stim/p04_syllable_1_lakaguaisto_hit.wav,p04,lakaguaisto,hit,la-ka-guais-to,la-ka-guais-to,la-ka-gu-ais-to,la-ka-gua-is-to,-0.341796875,-0.108398438,1,0,0,1.187,text_option_1,,0,93,93,47,1
5bb2a0148f3bd70001e5633f,63f3cfca20052e4ae7554ebf,6453cdbaf259ef00ca36c44e,2023-05-04_17h29.10.790,ga_syllabified_check,2022.2.5,Win32,71.42857143,,,,,,,,,,,,,,./stim/p05_syllable_1_palufauto_hit.wav,p05,palufauto,hit,pa-lu-fau-to,pa-lu-fau-to,pa-lu-fa-u-to, ,-0.341796875,-0.108398438,1,0,0,1.443,text_option_1,,0,94,94,94,1
5bb2a0148f3bd70001e5633f,63f3cfca20052e4ae7554ebf,6453cdbaf259ef00ca36c44e,2023-05-04_17h29.10.790,ga_syllabified_check,2022.2.5,Win32,71.42857143,,,,,,,,,,,,,,./stim/p04_syllable_1_lakadiaisto_hit.wav,p04,lakadiaisto,hit,la-ka-dias-to,la-ka-diais-to,la-ka-di-ais-to,la-ka-dia-is-to,-0.341796875,-0.108398438,1,0,0,1.28,text_option_1,,0,95,95,42,1
5bb2a0148f3bd70001e5633f,63f3cfca20052e4ae7554ebf,6453cdbaf259ef00ca36c44e,2023-05-04_17h29.10.790,ga_syllabified_check,2022.2.5,Win32,71.42857143,,,,,,,,,,,,,,./stim/p04_syllable_1_tuliafo_hit.wav,p04,tuliafo,hit,tu-lia-fo,tu-lia-fo,tu-li-a-fo, ,-0.341796875,-0.108398438,1,0,0,1.618,text_option_1,,0,96,96,67,1
5bb2a0148f3bd70001e5633f,63f3cfca20052e4ae7554ebf,6453cdbaf259ef00ca36c44e,2023-05-04_17h29.10.790,ga_syllabified_check,2022.2.5,Win32,71.42857143,,,,,,,,,,,,,,./stim/p07_syllable_1_manhiala_hit.wav,p07,mañiala,hit,ma-nhia-la,ma-ñia-la,ma-ñi-a-la, ,-0.341796875,-0.108398438,1,0,0,0.976,text_option_1,,0,97,97,157,1
5bb2a0148f3bd70001e5633f,63f3cfca20052e4ae7554ebf,6453cdbaf259ef00ca36c44e,2023-05-04_17h29.10.790,ga_syllabified_check,2022.2.5,Win32,71.42857143,,,,,,,,,,,,,,./stim/p04_syllable_1_flauro_hit.wav,p04,flauro,hit,flau-ro,flau-ro,fla-u-ro, ,-0.366210938,-0.109375,1,0,0,1.001,text_option_1,,0,98,98,39,1
5bb2a0148f3bd70001e5633f,63f3cfca20052e4ae7554ebf,6453cdbaf259ef00ca36c44e,2023-05-04_17h29.10.790,ga_syllabified_check,2022.2.5,Win32,71.42857143,,,,,,,,,,,,,,./stim/p04_syllable_1_lakapiaisto_hit.wav,p04,lakapiaisto,hit,la-ka-piais-to,la-ka-piais-to,la-ka-pi-ais-to,la-ka-pia-is-to,-0.366210938,-0.109375,1,0,0,1.239,text_option_1,,0,99,99,50,1
5bb2a0148f3bd70001e5633f,63f3cfca20052e4ae7554ebf,6453cdbaf259ef00ca36c44e,2023-05-04_17h29.10.790,ga_syllabified_check,2022.2.5,Win32,71.42857143,,,,,,,,,,,,,,./stim/p06_syllable_1_lakagiaisto_hit.wav,p06,lakagiaisto,hit,la-ka-gia-is-to,la-ka-giais-to,la-ka-gi-ais-to,la-ka-gia-is-to,0.087890625,-0.102539063,1,0,0,3.934,text_option_3,,0,100,100,114,1
5bb2a0148f3bd70001e5633f,63f3cfca20052e4ae7554ebf,6453cdbaf259ef00ca36c44e,2023-05-04_17h29.10.790,ga_syllabified_check,2022.2.5,Win32,71.42857143,,,,,,,,,,,,,,./stim/p03_syllable_1_lakakuaisto_hit.wav,p03,lakakuaisto,hit,la-ka-kuais-to,la-ka-kuais-to,la-ka-ku-ais-to,la-ka-kua-is-to,-0.359375,-0.09765625,1,0,0,1.306,text_option_1,,0,101,101,15,1
5bb2a0148f3bd70001e5633f,63f3cfca20052e4ae7554ebf,6453cdbaf259ef00ca36c44e,2023-05-04_17h29.10.790,ga_syllabified_check,2022.2.5,Win32,71.42857143,,,,,,,,,,,,,,./stim/p06_syllable_1_faluduako_hit.wav,p06,faluduako,hit,fa-lu-dua-ko,fa-lu-dua-ko,fa-lu-du-a-ko, ,0.447265625,-0.109375,1,0,0,4.563,text_option_2,,0,102,102,104,1
5bb2a0148f3bd70001e5633f,63f3cfca20052e4ae7554ebf,6453cdbaf259ef00ca36c44e,2023-05-04_17h29.10.790,ga_syllabified_check,2022.2.5,Win32,71.42857143,,,,,,,,,,,,,,./stim/p05_syllable_1_lakabuaisto_hit.wav,p05,lakabuaisto,hit,la-ka-buais-to,la-ka-buais-to,la-ka-bu-ais-to,la-ka-bua-is-to,-0.33203125,-0.107421875,1,0,0,1.949,text_option_1,,0,103,103,75,1
5bb2a0148f3bd70001e5633f,63f3cfca20052e4ae7554ebf,6453cdbaf259ef00ca36c44e,2023-05-04_17h29.10.790,ga_syllabified_check,2022.2.5,Win32,71.42857143,,,,,,,,,,,,,,./stim/p03_syllable_1_faluduako_hit.wav,p03,faluduako,hit,fa-lu-dua-ko,fa-lu-dua-ko,fa-lu-du-a-ko, ,-0.348632813,-0.102539063,1,0,0,1.413,text_option_1,,0,104,104,2,1
5bb2a0148f3bd70001e5633f,63f3cfca20052e4ae7554ebf,6453cdbaf259ef00ca36c44e,2023-05-04_17h29.10.790,ga_syllabified_check,2022.2.5,Win32,71.42857143,,,,,,,,,,,,,,./stim/p03_syllable_1_nhiape_hit.wav,p03,ñiape,hit,nhia-pe,ñia-pe,ñi-a-pe, ,-0.3671875,-0.103515625,1,0,0,0.576,text_option_1,,0,105,105,23,1
5bb2a0148f3bd70001e5633f,63f3cfca20052e4ae7554ebf,6453cdbaf259ef00ca36c44e,2023-05-04_17h29.10.790,ga_syllabified_check,2022.2.5,Win32,71.42857143,,,,,,,,,,,,,,./stim/p07_syllable_1_lakabiaisto_hit.wav,p07,lakabiaisto,hit,la-ka-bais-to,la-ka-biais-to,la-ka-bi-ais-to,la-ka-bia-is-to,-0.044921875,-0.3046875,1,0,0,3.004,text_option_other,la-ka-bais-to,0,106,106,142,1
5bb2a0148f3bd70001e5633f,63f3cfca20052e4ae7554ebf,6453cdbaf259ef00ca36c44e,2023-05-04_17h29.10.790,ga_syllabified_check,2022.2.5,Win32,71.42857143,,,,,,,,,,,,,,./stim/p05_syllable_1_costonhialo_hit.wav,p05,costoñialo,hit,cos-to-nhia-lo,cos-to-ñia-lo,cos-to-ñi-a-lo, ,-0.390625,-0.107421875,1,0,0,2.084,text_option_1,,0,107,107,69,1
5bb2a0148f3bd70001e5633f,63f3cfca20052e4ae7554ebf,6453cdbaf259ef00ca36c44e,2023-05-04_17h29.10.790,ga_syllabified_check,2022.2.5,Win32,71.42857143,,,,,,,,,,,,,,./stim/p08_syllable_1_lakagiaisto_hit.wav,p08,lakagiaisto,hit,la-ka-gi-jas-to,la-ka-giais-to,la-ka-gi-ais-to,la-ka-gia-is-to,0.44140625,-0.115234375,1,0,0,4.672,text_option_2,,0,108,108,182,1
5bb2a0148f3bd70001e5633f,63f3cfca20052e4ae7554ebf,6453cdbaf259ef00ca36c44e,2023-05-04_17h29.10.790,ga_syllabified_check,2022.2.5,Win32,71.42857143,,,,,,,,,,,,,,./stim/p03_syllable_1_lakatuaisto_hit.wav,p03,lakatuaisto,hit,la-ka-tuais-to,la-ka-tuais-to,la-ka-tu-ais-to,la-ka-tua-is-to,-0.415039063,-0.111328125,1,0,0,1.629,text_option_1,,0,109,109,19,1
5bb2a0148f3bd70001e5633f,63f3cfca20052e4ae7554ebf,6453cdbaf259ef00ca36c44e,2023-05-04_17h29.10.790,ga_syllabified_check,2022.2.5,Win32,71.42857143,,,,,,,,,,,,,,./stim/p06_syllable_1_nhiape_hit.wav,p06,ñiape,hit,nhi-a-pe,ñia-pe,ñi-a-pe, ,0.419921875,-0.100585938,1,0,0,1.281,text_option_2,,0,110,110,125,1
5bb2a0148f3bd70001e5633f,63f3cfca20052e4ae7554ebf,6453cdbaf259ef00ca36c44e,2023-05-04_17h29.10.790,ga_syllabified_check,2022.2.5,Win32,71.42857143,,,,,,,,,,,,,,./stim/p06_syllable_1_lakabuaisto_hit.wav,p06,lakabuaisto,hit,la-ka-bu-a-is,la-ka-buais-to,la-ka-bu-ais-to,la-ka-bua-is-to,0.4296875,-0.110351563,1,0,0,4.595,text_option_2,,0,111,111,109,1
5bb2a0148f3bd70001e5633f,63f3cfca20052e4ae7554ebf,6453cdbaf259ef00ca36c44e,2023-05-04_17h29.10.790,ga_syllabified_check,2022.2.5,Win32,71.42857143,,,,,,,,,,,,,,./stim/p05_syllable_1_lakafuaisto_hit.wav,p05,lakafuaisto,hit,la-ka-fais-to,la-ka-fuais-to,la-ka-fu-ais-to,la-ka-fua-is-to,-0.063476563,-0.306640625,1,0,0,2.933,text_option_other,la-ka-fais-to,0,112,112,79,1
5bb2a0148f3bd70001e5633f,63f3cfca20052e4ae7554ebf,6453cdbaf259ef00ca36c44e,2023-05-04_17h29.10.790,ga_syllabified_check,2022.2.5,Win32,71.42857143,,,,,,,,,,,,,,./stim/p08_syllable_1_chiaba_hit.wav,p08,chiaba,hit,chi-a-ba,chia-ba,chi-a-ba, ,0.403320313,-0.104492188,1,0,0,1.759,text_option_2,,0,113,113,170,1
5bb2a0148f3bd70001e5633f,63f3cfca20052e4ae7554ebf,6453cdbaf259ef00ca36c44e,2023-05-04_17h29.10.790,ga_syllabified_check,2022.2.5,Win32,71.42857143,,,,,,,,,,,,,,./stim/p04_syllable_1_nhiape_hit.wav,p04,ñiape,hit,nhia-pe,ñia-pe,ñi-a-pe, ,-0.380859375,-0.109375,1,0,0,1.556,text_option_1,,0,114,114,57,1
5bb2a0148f3bd70001e5633f,63f3cfca20052e4ae7554ebf,6453cdbaf259ef00ca36c44e,2023-05-04_17h29.10.790,ga_syllabified_check,2022.2.5,Win32,71.42857143,,,,,,,,,,,,,,./stim/p07_syllable_1_falufaisto_hit.wav,p07,falufaisto,hit,fa-lu-fais-to,fa-lu-fais-to,fa-lu-fa-is-to, ,-0.380859375,-0.109375,1,0,0,1.735,text_option_1,,0,115,115,139,1
5bb2a0148f3bd70001e5633f,63f3cfca20052e4ae7554ebf,6453cdbaf259ef00ca36c44e,2023-05-04_17h29.10.790,ga_syllabified_check,2022.2.5,Win32,71.42857143,,,,,,,,,,,,,,./stim/p08_syllable_1_falufaisto_hit.wav,p08,falufaisto,hit,fa-lu-fais-to,fa-lu-fais-to,fa-lu-fa-is-to, ,-0.380859375,-0.109375,1,0,0,1.951,text_option_1,,0,116,116,173,1
5bb2a0148f3bd70001e5633f,63f3cfca20052e4ae7554ebf,6453cdbaf259ef00ca36c44e,2023-05-04_17h29.10.790,ga_syllabified_check,2022.2.5,Win32,71.42857143,,,,,,,,,,,,,,./stim/p08_syllable_1_lakabuaisto_hit.wav,p08,lakabuaisto,hit,la-ka-bu-ais-to,la-ka-buais-to,la-ka-bu-ais-to,la-ka-bua-is-to,0.4140625,-0.114257813,1,0,0,3.845,text_option_2,,0,117,117,177,1
5bb2a0148f3bd70001e5633f,63f3cfca20052e4ae7554ebf,6453cdbaf259ef00ca36c44e,2023-05-04_17h29.10.790,ga_syllabified_check,2022.2.5,Win32,71.42857143,,,,,,,,,,,,,,./stim/p03_syllable_1_lakapuaisto_hit.wav,p03,lakapuaisto,hit,la-ka-puais-to,la-ka-puais-to,la-ka-pu-ais-to,la-ka-pua-is-to,-0.340820313,-0.116210938,1,0,0,1.441,text_option_1,,0,118,118,17,1
5bb2a0148f3bd70001e5633f,63f3cfca20052e4ae7554ebf,6453cdbaf259ef00ca36c44e,2023-05-04_17h29.10.790,ga_syllabified_check,2022.2.5,Win32,71.42857143,,,,,,,,,,,,,,./stim/p06_syllable_1_falufaisto_hit.wav,p06,falufaisto,hit,fa-lu-fa-is-to,fa-lu-fais-to,fa-lu-fa-is-to, ,0.344726563,-0.109375,1,0,0,2.28,text_option_2,,0,119,119,105,1
5bb2a0148f3bd70001e5633f,63f3cfca20052e4ae7554ebf,6453cdbaf259ef00ca36c44e,2023-05-04_17h29.10.790,ga_syllabified_check,2022.2.5,Win32,71.42857143,,,,,,,,,,,,,,./stim/p08_syllable_1_lakafiaisto_hit.wav,p08,lakafiaisto,hit,la-ka-fi-as-to,la-ka-fiais-to,la-ka-fi-ais-to,la-ka-fia-is-to,0.4453125,-0.110351563,1,0,0,9.255,text_option_2,,0,120,120,180,1
5bb2a0148f3bd70001e5633f,63f3cfca20052e4ae7554ebf,6453cdbaf259ef00ca36c44e,2023-05-04_17h29.10.790,ga_syllabified_check,2022.2.5,Win32,71.42857143,,,,,,,,,,,,,,./stim/p03_syllable_1_lakapiaisto_hit.wav,p03,lakapiaisto,hit,la-ka-piais-to,la-ka-piais-to,la-ka-pi-ais-to,la-ka-pia-is-to,-0.368164063,-0.102539063,1,0,0,1.62,text_option_1,,0,121,121,16,1
5bb2a0148f3bd70001e5633f,63f3cfca20052e4ae7554ebf,6453cdbaf259ef00ca36c44e,2023-05-04_17h29.10.790,ga_syllabified_check,2022.2.5,Win32,71.42857143,,,,,,,,,,,,,,./stim/p07_syllable_1_lakabuaisto_hit.wav,p07,lakabuaisto,hit,la-ka-buais-to,la-ka-buais-to,la-ka-bu-ais-to,la-ka-bua-is-to,-0.360351563,-0.103515625,1,0,0,2.104,text_option_1,,0,122,122,143,1
5bb2a0148f3bd70001e5633f,63f3cfca20052e4ae7554ebf,6453cdbaf259ef00ca36c44e,2023-05-04_17h29.10.790,ga_syllabified_check,2022.2.5,Win32,71.42857143,,,,,,,,,,,,,,./stim/p05_syllable_1_lakapuaisto_hit.wav,p05,lakapuaisto,hit,la-ka-pais-to,la-ka-puais-to,la-ka-pu-ais-to,la-ka-pua-is-to,-0.086914063,-0.30078125,1,0,0,2.996,text_option_other,la-ka-pais-to,0,123,123,85,1
5bb2a0148f3bd70001e5633f,63f3cfca20052e4ae7554ebf,6453cdbaf259ef00ca36c44e,2023-05-04_17h29.10.790,ga_syllabified_check,2022.2.5,Win32,71.42857143,,,,,,,,,,,,,,./stim/p06_syllable_1_mebochiana_hit.wav,p06,mebochiana,hit,me-bo-shi-a-na,me-bo-chia-na,me-bo-chi-a-na, ,0.399414063,-0.10546875,1,0,0,3.199,text_option_2,,0,124,124,124,1
5bb2a0148f3bd70001e5633f,63f3cfca20052e4ae7554ebf,6453cdbaf259ef00ca36c44e,2023-05-04_17h29.10.790,ga_syllabified_check,2022.2.5,Win32,71.42857143,,,,,,,,,,,,,,./stim/p08_syllable_1_manhiala_hit.wav,p08,mañiala,hit,ma-nhia-la,ma-ñia-la,ma-ñi-a-la, ,-0.403320313,-0.106445313,1,0,0,3.084,text_option_1,,0,125,125,191,1
5bb2a0148f3bd70001e5633f,63f3cfca20052e4ae7554ebf,6453cdbaf259ef00ca36c44e,2023-05-04_17h29.10.790,ga_syllabified_check,2022.2.5,Win32,71.42857143,,,,,,,,,,,,,,./stim/p04_syllable_1_lakafiaisto_hit.wav,p04,lakafiaisto,hit,la-ka-fiais-to,la-ka-fiais-to,la-ka-fi-ais-to,la-ka-fia-is-to,-0.392578125,-0.110351563,1,0,0,1.188,text_option_1,,0,126,126,44,1
5bb2a0148f3bd70001e5633f,63f3cfca20052e4ae7554ebf,6453cdbaf259ef00ca36c44e,2023-05-04_17h29.10.790,ga_syllabified_check,2022.2.5,Win32,71.42857143,,,,,,,,,,,,,,./stim/p06_syllable_1_palutrauco_hit.wav,p06,palutrauco,hit,pa-lu-tra-u-co,pa-lu-trau-co,pa-lu-tra-u-co, ,0.458007813,-0.100585938,1,0,0,2.271,text_option_2,,0,127,127,131,1
5bb2a0148f3bd70001e5633f,63f3cfca20052e4ae7554ebf,6453cdbaf259ef00ca36c44e,2023-05-04_17h29.10.790,ga_syllabified_check,2022.2.5,Win32,71.42857143,,,,,,,,,,,,,,./stim/p04_syllable_1_lakafuaisto_hit.wav,p04,lakafuaisto,hit,la-ka-fuais-to,la-ka-fuais-to,la-ka-fu-ais-to,la-ka-fua-is-to,-0.329101563,-0.108398438,1,0,0,1.969,text_option_1,,0,128,128,45,1
5bb2a0148f3bd70001e5633f,63f3cfca20052e4ae7554ebf,6453cdbaf259ef00ca36c44e,2023-05-04_17h29.10.790,ga_syllabified_check,2022.2.5,Win32,71.42857143,,,,,,,,,,,,,,./stim/p03_syllable_1_lliape_hit.wav,p03,lliape,hit,llia,llia-pe,lli-a-pe, ,-0.388671875,-0.107421875,1,0,0,0.626,text_option_1,,0,129,129,20,1
5bb2a0148f3bd70001e5633f,63f3cfca20052e4ae7554ebf,6453cdbaf259ef00ca36c44e,2023-05-04_17h29.10.790,ga_syllabified_check,2022.2.5,Win32,71.42857143,,,,,,,,,,,,,,./stim/p05_syllable_1_lliape_hit.wav,p05,lliape,hit,liai-pe,llia-pe,lli-a-pe, ,-0.388671875,-0.107421875,1,0,0,2.712,text_option_1,,0,130,130,88,1
5bb2a0148f3bd70001e5633f,63f3cfca20052e4ae7554ebf,6453cdbaf259ef00ca36c44e,2023-05-04_17h29.10.790,ga_syllabified_check,2022.2.5,Win32,71.42857143,,,,,,,,,,,,,,./stim/p03_syllable_1_palumaisto_hit.wav,p03,palumaisto,hit,pa-lu-mais-to,pa-lu-mais-to,pa-lu-ma-is-to, ,-0.388671875,-0.107421875,1,0,0,1.148,text_option_1,,0,131,131,28,1
5bb2a0148f3bd70001e5633f,63f3cfca20052e4ae7554ebf,6453cdbaf259ef00ca36c44e,2023-05-04_17h29.10.790,ga_syllabified_check,2022.2.5,Win32,71.42857143,,,,,,,,,,,,,,./stim/p04_syllable_1_lakabuaisto_hit.wav,p04,lakabuaisto,hit,la-ka-buais-to,la-ka-buais-to,la-ka-bu-ais-to,la-ka-bua-is-to,-0.389648438,-0.107421875,1,0,0,0.76,text_option_1,,0,132,132,41,1
5bb2a0148f3bd70001e5633f,63f3cfca20052e4ae7554ebf,6453cdbaf259ef00ca36c44e,2023-05-04_17h29.10.790,ga_syllabified_check,2022.2.5,Win32,71.42857143,,,,,,,,,,,,,,./stim/p08_syllable_1_pachialo_hit.wav,p08,pachialo,hit,pa-chi-ja-lo,pa-chia-lo,pa-chi-a-lo, ,0.4140625,-0.096679688,1,0,0,1.34,text_option_2,,0,133,133,194,1
5bb2a0148f3bd70001e5633f,63f3cfca20052e4ae7554ebf,6453cdbaf259ef00ca36c44e,2023-05-04_17h29.10.790,ga_syllabified_check,2022.2.5,Win32,71.42857143,,,,,,,,,,,,,,./stim/p05_syllable_1_lakatuaisto_hit.wav,p05,lakatuaisto,hit,la-ka-tais-to,la-ka-tuais-to,la-ka-tu-ais-to,la-ka-tua-is-to,-0.002929688,-0.294921875,1,0,0,2.2,text_option_other,la-ka-tais-to,0,134,134,87,1
5bb2a0148f3bd70001e5633f,63f3cfca20052e4ae7554ebf,6453cdbaf259ef00ca36c44e,2023-05-04_17h29.10.790,ga_syllabified_check,2022.2.5,Win32,71.42857143,,,,,,,,,,,,,,./stim/p03_syllable_1_lakakiaisto_hit.wav,p03,lakakiaisto,hit,la-ka-kiais-to,la-ka-kiais-to,la-ka-ki-ais-to,la-ka-kia-is-to,-0.319335938,-0.1015625,1,0,0,1.796,text_option_1,,0,135,135,14,1
5bb2a0148f3bd70001e5633f,63f3cfca20052e4ae7554ebf,6453cdbaf259ef00ca36c44e,2023-05-04_17h29.10.790,ga_syllabified_check,2022.2.5,Win32,71.42857143,,,,,,,,,,,,,,./stim/p05_syllable_1_faluduako_hit.wav,p05,faluduako,hit,fa-lu-ba-ko,fa-lu-dua-ko,fa-lu-du-a-ko, ,-0.043945313,-0.296875,1,0,0,1.91,text_option_other,fa-lu-da-ko,0,136,136,70,1
5bb2a0148f3bd70001e5633f,63f3cfca20052e4ae7554ebf,6453cdbaf259ef00ca36c44e,2023-05-04_17h29.10.790,ga_syllabified_check,2022.2.5,Win32,71.42857143,,,,,,,,,,,,,,./stim/p03_syllable_1_chiaba_hit.wav,p03,chiaba,hit,chia-ba,chia-ba,chi-a-ba, ,-0.401367188,-0.091796875,1,0,0,0.493,text_option_1,,0,137,137,0,1
5bb2a0148f3bd70001e5633f,63f3cfca20052e4ae7554ebf,6453cdbaf259ef00ca36c44e,2023-05-04_17h29.10.790,ga_syllabified_check,2022.2.5,Win32,71.42857143,,,,,,,,,,,,,,./stim/p07_syllable_1_rausto_hit.wav,p07,rausto,hit,raus-to,raus-to,ra-us-to, ,-0.403320313,-0.096679688,1,0,0,0.469,text_option_1,,0,138,138,167,1
5bb2a0148f3bd70001e5633f,63f3cfca20052e4ae7554ebf,6453cdbaf259ef00ca36c44e,2023-05-04_17h29.10.790,ga_syllabified_check,2022.2.5,Win32,71.42857143,,,,,,,,,,,,,,./stim/p05_syllable_1_nhiape_hit.wav,p05,ñiape,hit,nhia-pe,ñia-pe,ñi-a-pe, ,-0.403320313,-0.098632813,1,0,0,0.83,text_option_1,,0,139,139,91,1
5bb2a0148f3bd70001e5633f,63f3cfca20052e4ae7554ebf,6453cdbaf259ef00ca36c44e,2023-05-04_17h29.10.790,ga_syllabified_check,2022.2.5,Win32,71.42857143,,,,,,,,,,,,,,./stim/p08_syllable_1_palufauto_hit.wav,p08,palufauto,hit,pa-lu-fau-to,pa-lu-fau-to,pa-lu-fa-u-to, ,-0.404296875,-0.109375,1,0,0,2.759,text_option_1,,0,140,140,196,1
5bb2a0148f3bd70001e5633f,63f3cfca20052e4ae7554ebf,6453cdbaf259ef00ca36c44e,2023-05-04_17h29.10.790,ga_syllabified_check,2022.2.5,Win32,71.42857143,,,,,,,,,,,,,,./stim/p04_syllable_1_faluduako_hit.wav,p04,faluduako,hit,fa-lu-dua-ko,fa-lu-dua-ko,fa-lu-du-a-ko, ,-0.404296875,-0.109375,1,0,0,0.521,text_option_1,,0,141,141,36,1
5bb2a0148f3bd70001e5633f,63f3cfca20052e4ae7554ebf,6453cdbaf259ef00ca36c44e,2023-05-04_17h29.10.790,ga_syllabified_check,2022.2.5,Win32,71.42857143,,,,,,,,,,,,,,./stim/p07_syllable_1_mebochiana_hit.wav,p07,mebochiana,hit,me-bo-chia-na,me-bo-chia-na,me-bo-chi-a-na, ,-0.404296875,-0.109375,1,0,0,1.513,text_option_1,,0,142,142,158,1
5bb2a0148f3bd70001e5633f,63f3cfca20052e4ae7554ebf,6453cdbaf259ef00ca36c44e,2023-05-04_17h29.10.790,ga_syllabified_check,2022.2.5,Win32,71.42857143,,,,,,,,,,,,,,./stim/p06_syllable_1_falutraigo_hit.wav,p06,falutraigo,hit,fa-lu-tra-i-go,fa-lu-trai-go,fa-lu-tra-i-go, ,0.424804688,-0.112304688,1,0,0,3.792,text_option_2,,0,143,143,106,1
5bb2a0148f3bd70001e5633f,63f3cfca20052e4ae7554ebf,6453cdbaf259ef00ca36c44e,2023-05-04_17h29.10.790,ga_syllabified_check,2022.2.5,Win32,71.42857143,,,,,,,,,,,,,,./stim/p07_syllable_1_flauro_hit.wav,p07,flauro,hit,flau-ro,flau-ro,fla-u-ro, ,-0.359375,-0.111328125,1,0,0,1.332,text_option_1,,0,144,144,141,1
5bb2a0148f3bd70001e5633f,63f3cfca20052e4ae7554ebf,6453cdbaf259ef00ca36c44e,2023-05-04_17h29.10.790,ga_syllabified_check,2022.2.5,Win32,71.42857143,,,,,,,,,,,,,,./stim/p08_syllable_1_lakafuaisto_hit.wav,p08,lakafuaisto,hit,la-ka-fju-ais-to,la-ka-fuais-to,la-ka-fu-ais-to,la-ka-fua-is-to,0.026367188,-0.314453125,1,0,0,2.791,text_option_other,la-ka-fiuais-to,0,145,145,181,1
5bb2a0148f3bd70001e5633f,63f3cfca20052e4ae7554ebf,6453cdbaf259ef00ca36c44e,2023-05-04_17h29.10.790,ga_syllabified_check,2022.2.5,Win32,71.42857143,,,,,,,,,,,,,,./stim/p07_syllable_1_tuliafo_hit.wav,p07,tuliafo,hit,tu-lia-fo,tu-lia-fo,tu-li-a-fo, ,-0.431640625,-0.110351563,1,0,0,0.694,text_option_1,,0,146,146,169,1
5bb2a0148f3bd70001e5633f,63f3cfca20052e4ae7554ebf,6453cdbaf259ef00ca36c44e,2023-05-04_17h29.10.790,ga_syllabified_check,2022.2.5,Win32,71.42857143,,,,,,,,,,,,,,./stim/p06_syllable_1_lakabiaisto_hit.wav,p06,lakabiaisto,hit,la-ka-bia-is-to,la-ka-biais-to,la-ka-bi-ais-to,la-ka-bia-is-to,-0.014648438,-0.09375,1,0,0,3.9,text_option_3,,0,147,147,108,1
5bb2a0148f3bd70001e5633f,63f3cfca20052e4ae7554ebf,6453cdbaf259ef00ca36c44e,2023-05-04_17h29.10.790,ga_syllabified_check,2022.2.5,Win32,71.42857143,,,,,,,,,,,,,,./stim/p08_syllable_1_payielo_hit.wav,p08,payielo,hit,pa-yie-lo,pa-yie-lo,pa-yi-e-lo, ,-0.356445313,-0.106445313,1,0,0,1.259,text_option_1,,0,148,148,200,1
5bb2a0148f3bd70001e5633f,63f3cfca20052e4ae7554ebf,6453cdbaf259ef00ca36c44e,2023-05-04_17h29.10.790,ga_syllabified_check,2022.2.5,Win32,71.42857143,,,,,,,,,,,,,,./stim/p03_syllable_1_mebochiana_hit.wav,p03,mebochiana,hit,me-bo-chia-na,me-bo-chia-na,me-bo-chi-a-na, ,-0.356445313,-0.106445313,1,0,0,1.194,text_option_1,,0,149,149,22,1
5bb2a0148f3bd70001e5633f,63f3cfca20052e4ae7554ebf,6453cdbaf259ef00ca36c44e,2023-05-04_17h29.10.790,ga_syllabified_check,2022.2.5,Win32,71.42857143,,,,,,,,,,,,,,./stim/p05_syllable_1_lakabiaisto_hit.wav,p05,lakabiaisto,hit,la-ka-bi-ais-to,la-ka-biais-to,la-ka-bi-ais-to,la-ka-bia-is-to,-0.356445313,-0.106445313,1,0,0,1.558,text_option_1,,0,150,150,74,1
5bb2a0148f3bd70001e5633f,63f3cfca20052e4ae7554ebf,6453cdbaf259ef00ca36c44e,2023-05-04_17h29.10.790,ga_syllabified_check,2022.2.5,Win32,71.42857143,,,,,,,,,,,,,,./stim/p07_syllable_1_payielo_hit.wav,p07,payielo,hit,pa-yie-lo,pa-yie-lo,pa-yi-e-lo, ,-0.356445313,-0.106445313,1,0,0,1.089,text_option_1,,0,151,151,166,1
5bb2a0148f3bd70001e5633f,63f3cfca20052e4ae7554ebf,6453cdbaf259ef00ca36c44e,2023-05-04_17h29.10.790,ga_syllabified_check,2022.2.5,Win32,71.42857143,,,,,,,,,,,,,,./stim/p03_syllable_1_lakatiaisto_hit.wav,p03,lakatiaisto,hit,la-ka-tiais-to,la-ka-tiais-to,la-ka-ti-ais-to,la-ka-tia-is-to,-0.356445313,-0.106445313,1,0,0,2.091,text_option_1,,0,152,152,18,1
5bb2a0148f3bd70001e5633f,63f3cfca20052e4ae7554ebf,6453cdbaf259ef00ca36c44e,2023-05-04_17h29.10.790,ga_syllabified_check,2022.2.5,Win32,71.42857143,,,,,,,,,,,,,,./stim/p06_syllable_1_tuliafo_hit.wav,p06,tuliafo,hit,tu-li-a-fo,tu-lia-fo,tu-li-a-fo, ,0.420898438,-0.091796875,1,0,0,1.533,text_option_2,,0,153,153,135,1
5bb2a0148f3bd70001e5633f,63f3cfca20052e4ae7554ebf,6453cdbaf259ef00ca36c44e,2023-05-04_17h29.10.790,ga_syllabified_check,2022.2.5,Win32,71.42857143,,,,,,,,,,,,,,./stim/p04_syllable_1_palufauto_hit.wav,p04,palufauto,hit,pa-lu-fau-to,pa-lu-fau-to,pa-lu-fa-u-to, ,-0.407226563,-0.1015625,1,0,0,0.745,text_option_1,,0,154,154,60,1
5bb2a0148f3bd70001e5633f,63f3cfca20052e4ae7554ebf,6453cdbaf259ef00ca36c44e,2023-05-04_17h29.10.790,ga_syllabified_check,2022.2.5,Win32,71.42857143,,,,,,,,,,,,,,./stim/p04_syllable_1_chiaba_hit.wav,p04,chiaba,hit,chia-ba,chia-ba,chi-a-ba, ,-0.407226563,-0.100585938,1,0,0,0.334,text_option_1,,0,155,155,34,1
5bb2a0148f3bd70001e5633f,63f3cfca20052e4ae7554ebf,6453cdbaf259ef00ca36c44e,2023-05-04_17h29.10.790,ga_syllabified_check,2022.2.5,Win32,71.42857143,,,,,,,,,,,,,,./stim/p08_syllable_1_lakadiaisto_hit.wav,p08,lakadiaisto,hit,la-ka-di-jas-to,la-ka-diais-to,la-ka-di-ais-to,la-ka-dia-is-to,0.047851563,-0.311523438,1,0,0,6.181,text_option_other,la-ka-dias-to,0,156,156,178,1
5bb2a0148f3bd70001e5633f,63f3cfca20052e4ae7554ebf,6453cdbaf259ef00ca36c44e,2023-05-04_17h29.10.790,ga_syllabified_check,2022.2.5,Win32,71.42857143,,,,,,,,,,,,,,./stim/p06_syllable_1_palufauro_hit.wav,p06,palufauro,hit,pa-lu-fau-ro,pa-lu-fau-ro,pa-lu-fa-u-ro, ,-0.006835938,-0.30078125,1,0,0,5.227,text_option_other,pa-lu-fau-u-ro,0,157,157,127,1
5bb2a0148f3bd70001e5633f,63f3cfca20052e4ae7554ebf,6453cdbaf259ef00ca36c44e,2023-05-04_17h29.10.790,ga_syllabified_check,2022.2.5,Win32,71.42857143,,,,,,,,,,,,,,./stim/p05_syllable_1_payielo_hit.wav,p05,payielo,hit,pai-yu-we-lo,pa-yie-lo,pa-yi-e-lo, ,-0.053710938,-0.303710938,1,0,0,1.033,text_option_other,pa-yue-lo,0,158,158,98,1
5bb2a0148f3bd70001e5633f,63f3cfca20052e4ae7554ebf,6453cdbaf259ef00ca36c44e,2023-05-04_17h29.10.790,ga_syllabified_check,2022.2.5,Win32,71.42857143,,,,,,,,,,,,,,./stim/p06_syllable_1_palufauto_hit.wav,p06,palufauto,hit,pa-lu-fau-to,pa-lu-fau-to,pa-lu-fa-u-to, ,-0.349609375,-0.107421875,1,0,0,2.809,text_option_1,,0,159,159,128,1
5bb2a0148f3bd70001e5633f,63f3cfca20052e4ae7554ebf,6453cdbaf259ef00ca36c44e,2023-05-04_17h29.10.790,ga_syllabified_check,2022.2.5,Win32,71.42857143,,,,,,,,,,,,,,./stim/p08_syllable_1_lakapiaisto_hit.wav,p08,lakapiaisto,hit,la-ka-pi-as-to,la-ka-piais-to,la-ka-pi-ais-to,la-ka-pia-is-to,0.0234375,-0.303710938,1,0,0,3.232,text_option_other,la-ka-pias-to,0,160,160,186,1
5bb2a0148f3bd70001e5633f,63f3cfca20052e4ae7554ebf,6453cdbaf259ef00ca36c44e,2023-05-04_17h29.10.790,ga_syllabified_check,2022.2.5,Win32,71.42857143,,,,,,,,,,,,,,./stim/p08_syllable_1_flauro_hit.wav,p08,flauro,hit,flau-ro,flau-ro,fla-u-ro, ,-0.42578125,-0.098632813,1,0,0,0.743,text_option_1,,0,161,161,175,1
5bb2a0148f3bd70001e5633f,63f3cfca20052e4ae7554ebf,6453cdbaf259ef00ca36c44e,2023-05-04_17h29.10.790,ga_syllabified_check,2022.2.5,Win32,71.42857143,,,,,,,,,,,,,,./stim/p08_syllable_1_palumaisto_hit.wav,p08,palumaisto,hit,pa-lu-mais-to,pa-lu-mais-to,pa-lu-ma-is-to, ,-0.392578125,-0.109375,1,0,0,1.818,text_option_1,,0,162,162,198,1
5bb2a0148f3bd70001e5633f,63f3cfca20052e4ae7554ebf,6453cdbaf259ef00ca36c44e,2023-05-04_17h29.10.790,ga_syllabified_check,2022.2.5,Win32,71.42857143,,,,,,,,,,,,,,./stim/p03_syllable_1_lakadiaisto_hit.wav,p03,lakadiaisto,hit,la-ka-diais-to,la-ka-diais-to,la-ka-di-ais-to,la-ka-dia-is-to,-0.39453125,-0.106445313,1,0,0,1.932,text_option_1,,0,163,163,8,1
5bb2a0148f3bd70001e5633f,63f3cfca20052e4ae7554ebf,6453cdbaf259ef00ca36c44e,2023-05-04_17h29.10.790,ga_syllabified_check,2022.2.5,Win32,71.42857143,,,,,,,,,,,,,,./stim/p08_syllable_1_tuliafo_hit.wav,p08,tuliafo,hit,tu-li-a-fo,tu-lia-fo,tu-li-a-fo, ,0.438476563,-0.100585938,1,0,0,1.412,text_option_2,,0,164,164,203,1
5bb2a0148f3bd70001e5633f,63f3cfca20052e4ae7554ebf,6453cdbaf259ef00ca36c44e,2023-05-04_17h29.10.790,ga_syllabified_check,2022.2.5,Win32,71.42857143,,,,,,,,,,,,,,./stim/p08_syllable_1_lakatuaisto_hit.wav,p08,lakatuaisto,hit,la-ka-tu-i-jis,la-ka-tuais-to,la-ka-tu-ais-to,la-ka-tua-is-to,0.081054688,-0.30078125,1,0,0,3.986,text_option_other,la-ka-tu-is-to,0,165,165,189,1
5bb2a0148f3bd70001e5633f,63f3cfca20052e4ae7554ebf,6453cdbaf259ef00ca36c44e,2023-05-04_17h29.10.790,ga_syllabified_check,2022.2.5,Win32,71.42857143,,,,,,,,,,,,,,./stim/p07_syllable_1_lakatiaisto_hit.wav,p07,lakatiaisto,hit,la-ka-tiai-sto,la-ka-tiais-to,la-ka-ti-ais-to,la-ka-tia-is-to,0.095703125,-0.103515625,1,0,0,3.725,text_option_3,,0,166,166,154,1
5bb2a0148f3bd70001e5633f,63f3cfca20052e4ae7554ebf,6453cdbaf259ef00ca36c44e,2023-05-04_17h29.10.790,ga_syllabified_check,2022.2.5,Win32,71.42857143,,,,,,,,,,,,,,./stim/p08_syllable_1_palutrauco_hit.wav,p08,palutrauco,hit,pa-lu-trau-ko,pa-lu-trau-co,pa-lu-tra-u-co, ,-0.389648438,-0.110351563,1,0,0,2.603,text_option_1,,0,167,167,199,1
5bb2a0148f3bd70001e5633f,63f3cfca20052e4ae7554ebf,6453cdbaf259ef00ca36c44e,2023-05-04_17h29.10.790,ga_syllabified_check,2022.2.5,Win32,71.42857143,,,,,,,,,,,,,,./stim/p03_syllable_1_lakabuaisto_hit.wav,p03,lakabuaisto,hit,la-ka-buais-to,la-ka-buais-to,la-ka-bu-ais-to,la-ka-bua-is-to,-0.388671875,-0.110351563,1,0,0,1.142,text_option_1,,0,168,168,7,1
5bb2a0148f3bd70001e5633f,63f3cfca20052e4ae7554ebf,6453cdbaf259ef00ca36c44e,2023-05-04_17h29.10.790,ga_syllabified_check,2022.2.5,Win32,71.42857143,,,,,,,,,,,,,,./stim/p05_syllable_1_lakagiaisto_hit.wav,p05,lakagiaisto,hit,la-ka-ki-ais-to,la-ka-giais-to,la-ka-gi-ais-to,la-ka-gia-is-to,-0.388671875,-0.110351563,1,0,0,1.292,text_option_1,,0,169,169,80,1
5bb2a0148f3bd70001e5633f,63f3cfca20052e4ae7554ebf,6453cdbaf259ef00ca36c44e,2023-05-04_17h29.10.790,ga_syllabified_check,2022.2.5,Win32,71.42857143,,,,,,,,,,,,,,./stim/p07_syllable_1_lakafuaisto_hit.wav,p07,lakafuaisto,hit,la-ka-fuais-to,la-ka-fuais-to,la-ka-fu-ais-to,la-ka-fua-is-to,-0.388671875,-0.110351563,1,0,0,2.029,text_option_1,,0,170,170,147,1
5bb2a0148f3bd70001e5633f,63f3cfca20052e4ae7554ebf,6453cdbaf259ef00ca36c44e,2023-05-04_17h29.10.790,ga_syllabified_check,2022.2.5,Win32,71.42857143,,,,,,,,,,,,,,./stim/p04_syllable_1_lakatiaisto_hit.wav,p04,lakatiaisto,hit,la-ka-kiais-to,la-ka-tiais-to,la-ka-ti-ais-to,la-ka-tia-is-to,-0.388671875,-0.110351563,1,0,0,0.896,text_option_1,,0,171,171,52,1
5bb2a0148f3bd70001e5633f,63f3cfca20052e4ae7554ebf,6453cdbaf259ef00ca36c44e,2023-05-04_17h29.10.790,ga_syllabified_check,2022.2.5,Win32,71.42857143,,,,,,,,,,,,,,./stim/p05_syllable_1_falufaisto_hit.wav,p05,falufaisto,hit,fa-lu-fais-to,fa-lu-fais-to,fa-lu-fa-is-to, ,-0.388671875,-0.110351563,1,0,0,1.296,text_option_1,,0,172,172,71,1
5bb2a0148f3bd70001e5633f,63f3cfca20052e4ae7554ebf,6453cdbaf259ef00ca36c44e,2023-05-04_17h29.10.790,ga_syllabified_check,2022.2.5,Win32,71.42857143,,,,,,,,,,,,,,./stim/p07_syllable_1_palutrauco_hit.wav,p07,palutrauco,hit,pa-lu-trau-co,pa-lu-trau-co,pa-lu-tra-u-co, ,-0.388671875,-0.110351563,1,0,0,0.907,text_option_1,,0,173,173,165,1
5bb2a0148f3bd70001e5633f,63f3cfca20052e4ae7554ebf,6453cdbaf259ef00ca36c44e,2023-05-04_17h29.10.790,ga_syllabified_check,2022.2.5,Win32,71.42857143,,,,,,,,,,,,,,./stim/p03_syllable_1_lakaduaisto_hit.wav,p03,lakaduaisto,hit,la-ka-duais-to,la-ka-duais-to,la-ka-du-ais-to,la-ka-dua-is-to,-0.388671875,-0.110351563,1,0,0,1.361,text_option_1,,0,174,174,9,1
5bb2a0148f3bd70001e5633f,63f3cfca20052e4ae7554ebf,6453cdbaf259ef00ca36c44e,2023-05-04_17h29.10.790,ga_syllabified_check,2022.2.5,Win32,71.42857143,,,,,,,,,,,,,,./stim/p04_syllable_1_ruyiola_hit.wav,p04,ruyiola,hit,ru-yio-la,ru-yio-la,ru-yi-o-la, ,-0.388671875,-0.110351563,1,0,0,0.613,text_option_1,,0,175,175,66,1
5bb2a0148f3bd70001e5633f,63f3cfca20052e4ae7554ebf,6453cdbaf259ef00ca36c44e,2023-05-04_17h29.10.790,ga_syllabified_check,2022.2.5,Win32,71.42857143,,,,,,,,,,,,,,./stim/p08_syllable_1_falutraigo_hit.wav,p08,falutraigo,hit,fa-lu-trai-go,fa-lu-trai-go,fa-lu-tra-i-go, ,-0.388671875,-0.110351563,1,0,0,1.503,text_option_1,,0,176,176,174,1
5bb2a0148f3bd70001e5633f,63f3cfca20052e4ae7554ebf,6453cdbaf259ef00ca36c44e,2023-05-04_17h29.10.790,ga_syllabified_check,2022.2.5,Win32,71.42857143,,,,,,,,,,,,,,./stim/p06_syllable_1_lakaduaisto_hit.wav,p06,lakaduaisto,hit,la-ka-du-a-is,la-ka-duais-to,la-ka-du-ais-to,la-ka-dua-is-to,0.006835938,-0.306640625,1,0,0,3.763,text_option_other,la-ka-du-a-is-to,0,177,177,111,1
5bb2a0148f3bd70001e5633f,63f3cfca20052e4ae7554ebf,6453cdbaf259ef00ca36c44e,2023-05-04_17h29.10.790,ga_syllabified_check,2022.2.5,Win32,71.42857143,,,,,,,,,,,,,,./stim/p07_syllable_1_faluduako_hit.wav,p07,faluduako,hit,fa-lu-dua-ko,fa-lu-dua-ko,fa-lu-du-a-ko, ,-0.420898438,-0.112304688,1,0,0,1.504,text_option_1,,0,178,178,138,1
5bb2a0148f3bd70001e5633f,63f3cfca20052e4ae7554ebf,6453cdbaf259ef00ca36c44e,2023-05-04_17h29.10.790,ga_syllabified_check,2022.2.5,Win32,71.42857143,,,,,,,,,,,,,,./stim/p05_syllable_1_palufauro_hit.wav,p05,palufauro,hit,pa-lu-fau-ro,pa-lu-fau-ro,pa-lu-fa-u-ro, ,-0.426757813,-0.112304688,1,0,0,0.803,text_option_1,,0,179,179,93,1
5bb2a0148f3bd70001e5633f,63f3cfca20052e4ae7554ebf,6453cdbaf259ef00ca36c44e,2023-05-04_17h29.10.790,ga_syllabified_check,2022.2.5,Win32,71.42857143,,,,,,,,,,,,,,./stim/p05_syllable_1_falutraigo_hit.wav,p05,falutraigo,hit,fa-lu-trai-go,fa-lu-trai-go,fa-lu-tra-i-go, ,-0.391601563,-0.119140625,1,0,0,0.683,text_option_1,,0,180,180,72,1
5bb2a0148f3bd70001e5633f,63f3cfca20052e4ae7554ebf,6453cdbaf259ef00ca36c44e,2023-05-04_17h29.10.790,ga_syllabified_check,2022.2.5,Win32,71.42857143,,,,,,,,,,,,,,./stim/p04_syllable_1_pachialo_hit.wav,p04,pachialo,hit,pa-chia-lo,pa-chia-lo,pa-chi-a-lo, ,-0.40234375,-0.108398438,1,0,0,0.494,text_option_1,,0,181,181,58,1
5bb2a0148f3bd70001e5633f,63f3cfca20052e4ae7554ebf,6453cdbaf259ef00ca36c44e,2023-05-04_17h29.10.790,ga_syllabified_check,2022.2.5,Win32,71.42857143,,,,,,,,,,,,,,./stim/p04_syllable_1_palutrauco_hit.wav,p04,palutrauco,hit,pa-lu-trau-co,pa-lu-trau-co,pa-lu-tra-u-co, ,-0.446289063,-0.115234375,1,0,0,1.241,text_option_1,,0,182,182,63,1
5bb2a0148f3bd70001e5633f,63f3cfca20052e4ae7554ebf,6453cdbaf259ef00ca36c44e,2023-05-04_17h29.10.790,ga_syllabified_check,2022.2.5,Win32,71.42857143,,,,,,,,,,,,,,./stim/p06_syllable_1_lakafiaisto_hit.wav,p06,lakafiaisto,hit,la-ka-fia-is-to,la-ka-fiais-to,la-ka-fi-ais-to,la-ka-fia-is-to,0.030273438,-0.096679688,1,0,0,4.168,text_option_3,,0,183,183,112,1
5bb2a0148f3bd70001e5633f,63f3cfca20052e4ae7554ebf,6453cdbaf259ef00ca36c44e,2023-05-04_17h29.10.790,ga_syllabified_check,2022.2.5,Win32,71.42857143,,,,,,,,,,,,,,./stim/p05_syllable_1_lakapiaisto_hit.wav,p05,lakapiaisto,hit,la-ka-pais-to,la-ka-piais-to,la-ka-pi-ais-to,la-ka-pia-is-to,0.05078125,-0.311523438,1,0,0,2.112,text_option_other,la-ka-pais-to,0,184,184,84,1
5bb2a0148f3bd70001e5633f,63f3cfca20052e4ae7554ebf,6453cdbaf259ef00ca36c44e,2023-05-04_17h29.10.790,ga_syllabified_check,2022.2.5,Win32,71.42857143,,,,,,,,,,,,,,./stim/p04_syllable_1_lakatuaisto_hit.wav,p04,lakatuaisto,hit,la-ka-kuais-to,la-ka-tuais-to,la-ka-tu-ais-to,la-ka-tua-is-to,-0.338867188,-0.108398438,1,0,0,0.99,text_option_1,,0,185,185,53,1
5bb2a0148f3bd70001e5633f,63f3cfca20052e4ae7554ebf,6453cdbaf259ef00ca36c44e,2023-05-04_17h29.10.790,ga_syllabified_check,2022.2.5,Win32,71.42857143,,,,,,,,,,,,,,./stim/p05_syllable_1_mebochiana_hit.wav,p05,mebochiana,hit,me-cho-chai-na,me-bo-chia-na,me-bo-chi-a-na, ,0.04296875,-0.310546875,1,0,0,1.149,text_option_other,me-cho-chai-na,0,186,186,90,1
5bb2a0148f3bd70001e5633f,63f3cfca20052e4ae7554ebf,6453cdbaf259ef00ca36c44e,2023-05-04_17h29.10.790,ga_syllabified_check,2022.2.5,Win32,71.42857143,,,,,,,,,,,,,,./stim/p05_syllable_1_rausto_hit.wav,p05,rausto,hit,raus-to,raus-to,ra-us-to, ,-0.397460938,-0.096679688,1,0,0,0.278,text_option_1,,0,187,187,99,1
5bb2a0148f3bd70001e5633f,63f3cfca20052e4ae7554ebf,6453cdbaf259ef00ca36c44e,2023-05-04_17h29.10.790,ga_syllabified_check,2022.2.5,Win32,71.42857143,,,,,,,,,,,,,,./stim/p03_syllable_1_falufaisto_hit.wav,p03,falufaisto,hit,fa-lu-fais-to,fa-lu-fais-to,fa-lu-fa-is-to, ,-0.389648438,-0.108398438,1,0,0,1.34,text_option_1,,0,188,188,3,1
5bb2a0148f3bd70001e5633f,63f3cfca20052e4ae7554ebf,6453cdbaf259ef00ca36c44e,2023-05-04_17h29.10.790,ga_syllabified_check,2022.2.5,Win32,71.42857143,,,,,,,,,,,,,,./stim/p06_syllable_1_lakatuaisto_hit.wav,p06,lakatuaisto,hit,la-ka-tu-a-is,la-ka-tuais-to,la-ka-tu-ais-to,la-ka-tua-is-to,0.046875,-0.306640625,1,0,0,3.85,text_option_other,la-ka-tu-a-is-to,0,189,189,121,1
5bb2a0148f3bd70001e5633f,63f3cfca20052e4ae7554ebf,6453cdbaf259ef00ca36c44e,2023-05-04_17h29.10.790,ga_syllabified_check,2022.2.5,Win32,71.42857143,,,,,,,,,,,,,,./stim/p04_syllable_1_lakakuaisto_hit.wav,p04,lakakuaisto,hit,la-ka-kuais-to,la-ka-kuais-to,la-ka-ku-ais-to,la-ka-kua-is-to,-0.390625,-0.119140625,1,0,0,0.97,text_option_1,,0,190,190,49,1
5bb2a0148f3bd70001e5633f,63f3cfca20052e4ae7554ebf,6453cdbaf259ef00ca36c44e,2023-05-04_17h29.10.790,ga_syllabified_check,2022.2.5,Win32,71.42857143,,,,,,,,,,,,,,./stim/p06_syllable_1_paluguato_hit.wav,p06,paluguato,hit,pa-lu-gua-to,pa-lu-gua-to,pa-lu-gu-a-to, ,-0.381835938,-0.112304688,1,0,0,2.076,text_option_1,,0,191,191,129,1
5bb2a0148f3bd70001e5633f,63f3cfca20052e4ae7554ebf,6453cdbaf259ef00ca36c44e,2023-05-04_17h29.10.790,ga_syllabified_check,2022.2.5,Win32,71.42857143,,,,,,,,,,,,,,./stim/p03_syllable_1_manhiala_hit.wav,p03,mañiala,hit,ma-nhia-la,ma-ñia-la,ma-ñi-a-la, ,-0.381835938,-0.112304688,1,0,0,0.628,text_option_1,,0,192,192,21,1
5bb2a0148f3bd70001e5633f,63f3cfca20052e4ae7554ebf,6453cdbaf259ef00ca36c44e,2023-05-04_17h29.10.790,ga_syllabified_check,2022.2.5,Win32,71.42857143,,,,,,,,,,,,,,./stim/p04_syllable_1_lakakiaisto_hit.wav,p04,lakakiaisto,hit,la-ka-kiais-to,la-ka-kiais-to,la-ka-ki-ais-to,la-ka-kia-is-to,-0.381835938,-0.112304688,1,0,0,1.176,text_option_1,,0,193,193,48,1
5bb2a0148f3bd70001e5633f,63f3cfca20052e4ae7554ebf,6453cdbaf259ef00ca36c44e,2023-05-04_17h29.10.790,ga_syllabified_check,2022.2.5,Win32,71.42857143,,,,,,,,,,,,,,./stim/p05_syllable_1_lakatiaisto_hit.wav,p05,lakatiaisto,hit,la-ka-ti-ais-to,la-ka-tiais-to,la-ka-ti-ais-to,la-ka-tia-is-to,-0.381835938,-0.112304688,1,0,0,1.49,text_option_1,,0,194,194,86,1
5bb2a0148f3bd70001e5633f,63f3cfca20052e4ae7554ebf,6453cdbaf259ef00ca36c44e,2023-05-04_17h29.10.790,ga_syllabified_check,2022.2.5,Win32,71.42857143,,,,,,,,,,,,,,./stim/p07_syllable_1_falutraigo_hit.wav,p07,falutraigo,hit,fa-lu-trai-go,fa-lu-trai-go,fa-lu-tra-i-go, ,-0.381835938,-0.112304688,1,0,0,2.17,text_option_1,,0,195,195,140,1
5bb2a0148f3bd70001e5633f,63f3cfca20052e4ae7554ebf,6453cdbaf259ef00ca36c44e,2023-05-04_17h29.10.790,ga_syllabified_check,2022.2.5,Win32,71.42857143,,,,,,,,,,,,,,./stim/p08_syllable_1_lakakiaisto_hit.wav,p08,lakakiaisto,hit,la-ka-ki-jas-to,la-ka-kiais-to,la-ka-ki-ais-to,la-ka-kia-is-to,0.044921875,-0.301757813,1,0,0,3.655,text_option_other,la-ka-kias-to,0,196,196,184,1
5bb2a0148f3bd70001e5633f,63f3cfca20052e4ae7554ebf,6453cdbaf259ef00ca36c44e,2023-05-04_17h29.10.790,ga_syllabified_check,2022.2.5,Win32,71.42857143,,,,,,,,,,,,,,./stim/p04_syllable_1_payielo_hit.wav,p04,payielo,hit,pa-yie-lo,pa-yie-lo,pa-yi-e-lo, ,-0.393554688,-0.110351563,1,0,0,0.709,text_option_1,,0,197,197,64,1
5bb2a0148f3bd70001e5633f,63f3cfca20052e4ae7554ebf,6453cdbaf259ef00ca36c44e,2023-05-04_17h29.10.790,ga_syllabified_check,2022.2.5,Win32,71.42857143,,,,,,,,,,,,,,./stim/p06_syllable_1_payielo_hit.wav,p06,payielo,hit,pa-yi-e-lo,pa-yie-lo,pa-yi-e-lo, ,0.438476563,-0.100585938,1,0,0,1.668,text_option_2,,0,198,198,132,1
5bb2a0148f3bd70001e5633f,63f3cfca20052e4ae7554ebf,6453cdbaf259ef00ca36c44e,2023-05-04_17h29.10.790,ga_syllabified_check,2022.2.5,Win32,71.42857143,,,,,,,,,,,,,,./stim/p05_syllable_1_manhiala_hit.wav,p05,mañiala,hit,ma-nhia-la,ma-ñia-la,ma-ñi-a-la, ,-0.391601563,-0.107421875,1,0,0,0.479,text_option_1,,0,199,199,89,1
5bb2a0148f3bd70001e5633f,63f3cfca20052e4ae7554ebf,6453cdbaf259ef00ca36c44e,2023-05-04_17h29.10.790,ga_syllabified_check,2022.2.5,Win32,71.42857143,,,,,,,,,,,,,,./stim/p03_syllable_1_flauro_hit.wav,p03,flauro,hit,flau-ro,flau-ro,fla-u-ro, ,-0.396484375,-0.107421875,1,0,0,0.375,text_option_1,,0,200,200,5,1
5bb2a0148f3bd70001e5633f,63f3cfca20052e4ae7554ebf,6453cdbaf259ef00ca36c44e,2023-05-04_17h29.10.790,ga_syllabified_check,2022.2.5,Win32,71.42857143,,,,,,,,,,,,,,./stim/p06_syllable_1_lakadiaisto_hit.wav,p06,lakadiaisto,hit,la-ka-dia-is-to,la-ka-diais-to,la-ka-di-ais-to,la-ka-dia-is-to,-0.02734375,-0.108398438,1,0,0,2.439,text_option_3,,0,201,201,110,1
5bb2a0148f3bd70001e5633f,63f3cfca20052e4ae7554ebf,6453cdbaf259ef00ca36c44e,2023-05-04_17h29.10.790,ga_syllabified_check,2022.2.5,Win32,71.42857143,,,,,,,,,,,,,,./stim/p03_syllable_1_palufauro_hit.wav,p03,palufauro,hit,pa-lu-fau-ro,pa-lu-fau-ro,pa-lu-fa-u-ro, ,-0.354492188,-0.09765625,1,0,0,1.144,text_option_1,,0,202,202,25,1
5bb2a0148f3bd70001e5633f,63f3cfca20052e4ae7554ebf,6453cdbaf259ef00ca36c44e,2023-05-04_17h29.10.790,ga_syllabified_check,2022.2.5,Win32,71.42857143,,,,,,,,,,,,,,./stim/p03_syllable_1_rausto_hit.wav,p03,rausto,hit,raus-to,raus-to,ra-us-to, ,-0.354492188,-0.09765625,1,0,0,0.615,text_option_1,,0,203,203,31,1
5bb2a0148f3bd70001e5633f,63f3cfca20052e4ae7554ebf,6453cdbaf259ef00ca36c44e,2023-05-04_17h29.10.790,ga_syllabified_check,2022.2.5,Win32,71.42857143,,,,,,,,,,,,,,,,,,,,,,,,,,,,,,,,,,
