participant,study,session,date,expName,psychopyVersion,OS,frameRate,mouse_practice.x,mouse_practice.y,mouse_practice.leftButton,mouse_practice.midButton,mouse_practice.rightButton,mouse_practice.time,mouse_practice.clicked_name,textbox_followup_practice.text,trials_practice.thisRepN,trials_practice.thisTrialN,trials_practice.thisN,trials_practice.thisIndex,trials_practice.ran,file_path,id,item,status,response,op1,op2,op3,mouse.x,mouse.y,mouse.leftButton,mouse.midButton,mouse.rightButton,mouse.time,mouse.clicked_name,textbox_followup.text,trials.thisRepN,trials.thisTrialN,trials.thisN,trials.thisIndex,trials.ran
5befe2ef7c38740001698b0e,63f3cfca20052e4ae7554ebf,6453cd67f2b29a4b012a8ec0,2023-05-04_17h21.36.704,ga_syllabified_check,2022.2.5,Win32,6.666888896,,,,,,,,,,,,,,,,,,,,,,,,,,,,,,,,,,
5befe2ef7c38740001698b0e,63f3cfca20052e4ae7554ebf,6453cd67f2b29a4b012a8ec0,2023-05-04_17h21.36.704,ga_syllabified_check,2022.2.5,Win32,6.666888896,-0.380512821,-0.1,1,0,0,2.9373,text_option_1_practice,,0,0,0,0,1,./stim/p03_syllable_1_liamo_hit.wav,p03,liamo,hit,lia-mo,lia-mo,li-a-mo, ,,,,,,,,,,,,,
5befe2ef7c38740001698b0e,63f3cfca20052e4ae7554ebf,6453cd67f2b29a4b012a8ec0,2023-05-04_17h21.36.704,ga_syllabified_check,2022.2.5,Win32,6.666888896,-0.368205128,-0.101025641,1,0,0,1.5839,text_option_1_practice,,0,1,1,1,1,./stim/p05_syllable_1_matio_hit.wav,p05,matio,hit,ma-tio,ma-tio,ma-ti-o, ,,,,,,,,,,,,,
5befe2ef7c38740001698b0e,63f3cfca20052e4ae7554ebf,6453cd67f2b29a4b012a8ec0,2023-05-04_17h21.36.704,ga_syllabified_check,2022.2.5,Win32,6.666888896,-0.373333333,-0.101025641,1,0,0,6.4365,text_option_1_practice,,0,2,2,2,1,./stim/p08_syllable_1_liamo_hit.wav,p08,liamo,hit,ja-mo,lia-mo,li-a-mo, ,,,,,,,,,,,,,
5befe2ef7c38740001698b0e,63f3cfca20052e4ae7554ebf,6453cd67f2b29a4b012a8ec0,2023-05-04_17h21.36.704,ga_syllabified_check,2022.2.5,Win32,6.666888896,,,,,,,,,,,,,,,,,,,,,,,,,,,,,,,,,,
5befe2ef7c38740001698b0e,63f3cfca20052e4ae7554ebf,6453cd67f2b29a4b012a8ec0,2023-05-04_17h21.36.704,ga_syllabified_check,2022.2.5,Win32,6.666888896,,,,,,,,,,,,,,./stim/p04_syllable_1_lakabiaisto_hit.wav,p04,lakabiaisto,hit,la-ka-biais-to,la-ka-biais-to,la-ka-bi-ais-to,la-ka-bia-is-to,-0.089230769,-0.309230769,1,0,0,8.0953,text_option_other,la-ka,0,0,0,40,1
5befe2ef7c38740001698b0e,63f3cfca20052e4ae7554ebf,6453cd67f2b29a4b012a8ec0,2023-05-04_17h21.36.704,ga_syllabified_check,2022.2.5,Win32,6.666888896,,,,,,,,,,,,,,./stim/p08_syllable_1_manhiala_hit.wav,p08,mañiala,hit,ma-nhia-la,ma-ñia-la,ma-ñi-a-la, ,-0.354871795,-0.094871795,1,0,0,4.0337,text_option_1,,0,1,1,191,1
5befe2ef7c38740001698b0e,63f3cfca20052e4ae7554ebf,6453cd67f2b29a4b012a8ec0,2023-05-04_17h21.36.704,ga_syllabified_check,2022.2.5,Win32,6.666888896,,,,,,,,,,,,,,./stim/p07_syllable_1_payielo_hit.wav,p07,payielo,hit,pa-yie-lo,pa-yie-lo,pa-yi-e-lo, ,-0.4,-0.095897436,1,0,0,4.2747,text_option_1,,0,2,2,166,1
5befe2ef7c38740001698b0e,63f3cfca20052e4ae7554ebf,6453cd67f2b29a4b012a8ec0,2023-05-04_17h21.36.704,ga_syllabified_check,2022.2.5,Win32,6.666888896,,,,,,,,,,,,,,./stim/p06_syllable_1_tuliafo_hit.wav,p06,tuliafo,hit,tu-li-a-fo,tu-lia-fo,tu-li-a-fo, ,0.42974359,-0.102051282,1,0,0,1.8603,text_option_2,,0,3,3,135,1
5befe2ef7c38740001698b0e,63f3cfca20052e4ae7554ebf,6453cd67f2b29a4b012a8ec0,2023-05-04_17h21.36.704,ga_syllabified_check,2022.2.5,Win32,6.666888896,,,,,,,,,,,,,,./stim/p04_syllable_1_rausto_hit.wav,p04,rausto,hit,raus-to,raus-to,ra-us-to, ,-0.411282051,-0.107179487,1,0,0,1.4582,text_option_1,,0,4,4,65,1
5befe2ef7c38740001698b0e,63f3cfca20052e4ae7554ebf,6453cd67f2b29a4b012a8ec0,2023-05-04_17h21.36.704,ga_syllabified_check,2022.2.5,Win32,6.666888896,,,,,,,,,,,,,,./stim/p04_syllable_1_lakaduaisto_hit.wav,p04,lakaduaisto,hit,la-ka-duais-to,la-ka-duais-to,la-ka-du-ais-to,la-ka-dua-is-to,-0.379487179,-0.106153846,1,0,0,5.5083,text_option_1,,0,5,5,43,1
5befe2ef7c38740001698b0e,63f3cfca20052e4ae7554ebf,6453cd67f2b29a4b012a8ec0,2023-05-04_17h21.36.704,ga_syllabified_check,2022.2.5,Win32,6.666888896,,,,,,,,,,,,,,./stim/p06_syllable_1_lakafiaisto_hit.wav,p06,lakafiaisto,hit,la-ka-fia-is-to,la-ka-fiais-to,la-ka-fi-ais-to,la-ka-fia-is-to,-0.002051282,-0.106153846,1,0,0,6.488,text_option_3,,0,6,6,112,1
5befe2ef7c38740001698b0e,63f3cfca20052e4ae7554ebf,6453cd67f2b29a4b012a8ec0,2023-05-04_17h21.36.704,ga_syllabified_check,2022.2.5,Win32,6.666888896,,,,,,,,,,,,,,./stim/p04_syllable_1_paluguato_hit.wav,p04,paluguato,hit,pa-lu-gua,pa-lu-gua-to,pa-lu-gu-a-to, ,0.063589744,-0.309230769,1,0,0,6.3818,text_option_other,pa-lu-gua,0,7,7,61,1
5befe2ef7c38740001698b0e,63f3cfca20052e4ae7554ebf,6453cd67f2b29a4b012a8ec0,2023-05-04_17h21.36.704,ga_syllabified_check,2022.2.5,Win32,6.666888896,,,,,,,,,,,,,,./stim/p04_syllable_1_ruyiola_hit.wav,p04,ruyiola,hit,ru-yio-la,ru-yio-la,ru-yi-o-la, ,-0.401025641,-0.1,1,0,0,1.45,text_option_1,,0,8,8,66,1
5befe2ef7c38740001698b0e,63f3cfca20052e4ae7554ebf,6453cd67f2b29a4b012a8ec0,2023-05-04_17h21.36.704,ga_syllabified_check,2022.2.5,Win32,6.666888896,,,,,,,,,,,,,,./stim/p04_syllable_1_faluduako_hit.wav,p04,faluduako,hit,fa-lu-dua-ko,fa-lu-dua-ko,fa-lu-du-a-ko, ,-0.378461538,-0.11025641,1,0,0,1.9803,text_option_1,,0,9,9,36,1
5befe2ef7c38740001698b0e,63f3cfca20052e4ae7554ebf,6453cd67f2b29a4b012a8ec0,2023-05-04_17h21.36.704,ga_syllabified_check,2022.2.5,Win32,6.666888896,,,,,,,,,,,,,,./stim/p08_syllable_1_falutraigo_hit.wav,p08,falutraigo,hit,fa-lu-trai-go,fa-lu-trai-go,fa-lu-tra-i-go, ,-0.34974359,-0.112307692,1,0,0,2.9541,text_option_1,,0,10,10,174,1
5befe2ef7c38740001698b0e,63f3cfca20052e4ae7554ebf,6453cd67f2b29a4b012a8ec0,2023-05-04_17h21.36.704,ga_syllabified_check,2022.2.5,Win32,6.666888896,,,,,,,,,,,,,,./stim/p04_syllable_1_lakagiaisto_hit.wav,p04,lakagiaisto,hit,la-ka-giais-to,la-ka-giais-to,la-ka-gi-ais-to,la-ka-gia-is-to,-0.388717949,-0.091794872,1,0,0,3.8443,text_option_1,,0,11,11,46,1
5befe2ef7c38740001698b0e,63f3cfca20052e4ae7554ebf,6453cd67f2b29a4b012a8ec0,2023-05-04_17h21.36.704,ga_syllabified_check,2022.2.5,Win32,6.666888896,,,,,,,,,,,,,,./stim/p06_syllable_1_nhiape_hit.wav,p06,ñiape,hit,nhi-a-pe,ñia-pe,ñi-a-pe, ,0.398974359,-0.11025641,1,0,0,1.4272,text_option_2,,0,12,12,125,1
5befe2ef7c38740001698b0e,63f3cfca20052e4ae7554ebf,6453cd67f2b29a4b012a8ec0,2023-05-04_17h21.36.704,ga_syllabified_check,2022.2.5,Win32,6.666888896,,,,,,,,,,,,,,./stim/p03_syllable_1_lakakuaisto_hit.wav,p03,lakakuaisto,hit,la-ka-kuais-to,la-ka-kuais-to,la-ka-ku-ais-to,la-ka-kua-is-to,-0.419487179,-0.101025641,1,0,0,1.8685,text_option_1,,0,13,13,15,1
5befe2ef7c38740001698b0e,63f3cfca20052e4ae7554ebf,6453cd67f2b29a4b012a8ec0,2023-05-04_17h21.36.704,ga_syllabified_check,2022.2.5,Win32,6.666888896,,,,,,,,,,,,,,./stim/p06_syllable_1_chiaba_hit.wav,p06,chiaba,hit,chi-a-ba,chia-ba,chi-a-ba, ,-0.436923077,-0.108205128,1,0,0,2.5783,text_option_1,,0,14,14,102,1
5befe2ef7c38740001698b0e,63f3cfca20052e4ae7554ebf,6453cd67f2b29a4b012a8ec0,2023-05-04_17h21.36.704,ga_syllabified_check,2022.2.5,Win32,6.666888896,,,,,,,,,,,,,,./stim/p03_syllable_1_lakapiaisto_hit.wav,p03,lakapiaisto,hit,la-ka-piais-to,la-ka-piais-to,la-ka-pi-ais-to,la-ka-pia-is-to,-0.343589744,-0.107179487,1,0,0,3.2843,text_option_1,,0,15,15,16,1
5befe2ef7c38740001698b0e,63f3cfca20052e4ae7554ebf,6453cd67f2b29a4b012a8ec0,2023-05-04_17h21.36.704,ga_syllabified_check,2022.2.5,Win32,6.666888896,,,,,,,,,,,,,,./stim/p04_syllable_1_palutrauco_hit.wav,p04,palutrauco,hit,pa-lu-trau-co,pa-lu-trau-co,pa-lu-tra-u-co, ,-0.361025641,-0.096923077,1,0,0,2.556,text_option_1,,0,16,16,63,1
5befe2ef7c38740001698b0e,63f3cfca20052e4ae7554ebf,6453cd67f2b29a4b012a8ec0,2023-05-04_17h21.36.704,ga_syllabified_check,2022.2.5,Win32,6.666888896,,,,,,,,,,,,,,./stim/p04_syllable_1_lakatuaisto_hit.wav,p04,lakatuaisto,hit,la-ka-kuais-to,la-ka-tuais-to,la-ka-tu-ais-to,la-ka-tua-is-to,-0.415384615,-0.102051282,1,0,0,4.4294,text_option_1,,0,17,17,53,1
5befe2ef7c38740001698b0e,63f3cfca20052e4ae7554ebf,6453cd67f2b29a4b012a8ec0,2023-05-04_17h21.36.704,ga_syllabified_check,2022.2.5,Win32,6.666888896,,,,,,,,,,,,,,./stim/p05_syllable_1_pachialo_hit.wav,p05,pachialo,hit,pan-chia-lo,pa-chia-lo,pa-chi-a-lo, ,-0.376410256,-0.101025641,1,0,0,3.6091,text_option_1,,0,18,18,92,1
5befe2ef7c38740001698b0e,63f3cfca20052e4ae7554ebf,6453cd67f2b29a4b012a8ec0,2023-05-04_17h21.36.704,ga_syllabified_check,2022.2.5,Win32,6.666888896,,,,,,,,,,,,,,./stim/p04_syllable_1_lakabuaisto_hit.wav,p04,lakabuaisto,hit,la-ka-buais-to,la-ka-buais-to,la-ka-bu-ais-to,la-ka-bua-is-to,-0.430769231,-0.090769231,1,0,0,2.1097,text_option_1,,0,19,19,41,1
5befe2ef7c38740001698b0e,63f3cfca20052e4ae7554ebf,6453cd67f2b29a4b012a8ec0,2023-05-04_17h21.36.704,ga_syllabified_check,2022.2.5,Win32,6.666888896,,,,,,,,,,,,,,./stim/p07_syllable_1_ruyiola_hit.wav,p07,ruyiola,hit,ru-yio-la,ru-yio-la,ru-yi-o-la, ,-0.393846154,-0.096923077,1,0,0,2.6711,text_option_1,,0,20,20,168,1
5befe2ef7c38740001698b0e,63f3cfca20052e4ae7554ebf,6453cd67f2b29a4b012a8ec0,2023-05-04_17h21.36.704,ga_syllabified_check,2022.2.5,Win32,6.666888896,,,,,,,,,,,,,,./stim/p03_syllable_1_flauro_hit.wav,p03,flauro,hit,flau-ro,flau-ro,fla-u-ro, ,-0.393846154,-0.096923077,1,0,0,0.5727,text_option_1,,0,21,21,5,1
5befe2ef7c38740001698b0e,63f3cfca20052e4ae7554ebf,6453cd67f2b29a4b012a8ec0,2023-05-04_17h21.36.704,ga_syllabified_check,2022.2.5,Win32,6.666888896,,,,,,,,,,,,,,./stim/p03_syllable_1_manhiala_hit.wav,p03,mañiala,hit,ma-nhia-la,ma-ñia-la,ma-ñi-a-la, ,-0.418461538,-0.106153846,1,0,0,1.9909,text_option_1,,0,22,22,21,1
5befe2ef7c38740001698b0e,63f3cfca20052e4ae7554ebf,6453cd67f2b29a4b012a8ec0,2023-05-04_17h21.36.704,ga_syllabified_check,2022.2.5,Win32,6.666888896,,,,,,,,,,,,,,./stim/p05_syllable_1_lakagiaisto_hit.wav,p05,lakagiaisto,hit,la-ka-ki-ais-to,la-ka-giais-to,la-ka-gi-ais-to,la-ka-gia-is-to,-0.44,-0.104102564,1,0,0,2.889,text_option_1,,0,23,23,80,1
5befe2ef7c38740001698b0e,63f3cfca20052e4ae7554ebf,6453cd67f2b29a4b012a8ec0,2023-05-04_17h21.36.704,ga_syllabified_check,2022.2.5,Win32,6.666888896,,,,,,,,,,,,,,./stim/p08_syllable_1_lakabuaisto_hit.wav,p08,lakabuaisto,hit,la-ka-bu-ais-to,la-ka-buais-to,la-ka-bu-ais-to,la-ka-bua-is-to,0.386666667,-0.097948718,1,0,0,5.585,text_option_2,,0,24,24,177,1
5befe2ef7c38740001698b0e,63f3cfca20052e4ae7554ebf,6453cd67f2b29a4b012a8ec0,2023-05-04_17h21.36.704,ga_syllabified_check,2022.2.5,Win32,6.666888896,,,,,,,,,,,,,,./stim/p06_syllable_1_falutraigo_hit.wav,p06,falutraigo,hit,fa-lu-tra-i-go,fa-lu-trai-go,fa-lu-tra-i-go, ,0.402051282,-0.102051282,1,0,0,4.1278,text_option_2,,0,25,25,106,1
5befe2ef7c38740001698b0e,63f3cfca20052e4ae7554ebf,6453cd67f2b29a4b012a8ec0,2023-05-04_17h21.36.704,ga_syllabified_check,2022.2.5,Win32,6.666888896,,,,,,,,,,,,,,./stim/p06_syllable_1_pachialo_hit.wav,p06,pachialo,hit,pa-shi-a-lo,pa-chia-lo,pa-chi-a-lo, ,0.402051282,-0.102051282,1,0,0,1.1258,text_option_2,,0,26,26,126,1
5befe2ef7c38740001698b0e,63f3cfca20052e4ae7554ebf,6453cd67f2b29a4b012a8ec0,2023-05-04_17h21.36.704,ga_syllabified_check,2022.2.5,Win32,6.666888896,,,,,,,,,,,,,,./stim/p05_syllable_1_lakabiaisto_hit.wav,p05,lakabiaisto,hit,la-ka-bi-ais-to,la-ka-biais-to,la-ka-bi-ais-to,la-ka-bia-is-to,0.316923077,-0.108205128,1,0,0,7.9476,text_option_2,,0,27,27,74,1
5befe2ef7c38740001698b0e,63f3cfca20052e4ae7554ebf,6453cd67f2b29a4b012a8ec0,2023-05-04_17h21.36.704,ga_syllabified_check,2022.2.5,Win32,6.666888896,,,,,,,,,,,,,,./stim/p04_syllable_1_costonhialo_hit.wav,p04,costoñialo,hit,cos-to-nhia-lo,cos-to-ñia-lo,cos-to-ñi-a-lo, ,-0.348717949,-0.103076923,1,0,0,2.0237,text_option_1,,0,28,28,35,1
5befe2ef7c38740001698b0e,63f3cfca20052e4ae7554ebf,6453cd67f2b29a4b012a8ec0,2023-05-04_17h21.36.704,ga_syllabified_check,2022.2.5,Win32,6.666888896,,,,,,,,,,,,,,./stim/p05_syllable_1_chiaba_hit.wav,p05,chiaba,hit,chia-ba,chia-ba,chi-a-ba, ,-0.417435897,-0.103076923,1,0,0,2.4986,text_option_1,,0,29,29,68,1
5befe2ef7c38740001698b0e,63f3cfca20052e4ae7554ebf,6453cd67f2b29a4b012a8ec0,2023-05-04_17h21.36.704,ga_syllabified_check,2022.2.5,Win32,6.666888896,,,,,,,,,,,,,,./stim/p03_syllable_1_lakadiaisto_hit.wav,p03,lakadiaisto,hit,la-ka-diais-to,la-ka-diais-to,la-ka-di-ais-to,la-ka-dia-is-to,-0.366153846,-0.115384615,1,0,0,1.6863,text_option_1,,0,30,30,8,1
5befe2ef7c38740001698b0e,63f3cfca20052e4ae7554ebf,6453cd67f2b29a4b012a8ec0,2023-05-04_17h21.36.704,ga_syllabified_check,2022.2.5,Win32,6.666888896,,,,,,,,,,,,,,./stim/p06_syllable_1_lakagiaisto_hit.wav,p06,lakagiaisto,hit,la-ka-gia-is-to,la-ka-giais-to,la-ka-gi-ais-to,la-ka-gia-is-to,-0.007179487,-0.095897436,1,0,0,3.9773,text_option_3,,0,31,31,114,1
5befe2ef7c38740001698b0e,63f3cfca20052e4ae7554ebf,6453cd67f2b29a4b012a8ec0,2023-05-04_17h21.36.704,ga_syllabified_check,2022.2.5,Win32,6.666888896,,,,,,,,,,,,,,./stim/p03_syllable_1_lakabiaisto_hit.wav,p03,lakabiaisto,hit,la-ka-biais-to,la-ka-biais-to,la-ka-bi-ais-to,la-ka-bia-is-to,-0.448205128,-0.115384615,1,0,0,2.9783,text_option_1,,0,32,32,6,1
5befe2ef7c38740001698b0e,63f3cfca20052e4ae7554ebf,6453cd67f2b29a4b012a8ec0,2023-05-04_17h21.36.704,ga_syllabified_check,2022.2.5,Win32,6.666888896,,,,,,,,,,,,,,./stim/p03_syllable_1_tuliafo_hit.wav,p03,tuliafo,hit,tu-lia-fo,tu-lia-fo,tu-li-a-fo, ,-0.421538462,-0.1,1,0,0,2.1354,text_option_1,,0,33,33,33,1
5befe2ef7c38740001698b0e,63f3cfca20052e4ae7554ebf,6453cd67f2b29a4b012a8ec0,2023-05-04_17h21.36.704,ga_syllabified_check,2022.2.5,Win32,6.666888896,,,,,,,,,,,,,,./stim/p07_syllable_1_lakafuaisto_hit.wav,p07,lakafuaisto,hit,la-ka-fuais-to,la-ka-fuais-to,la-ka-fu-ais-to,la-ka-fua-is-to,-0.392820513,-0.104102564,1,0,0,2.1446,text_option_1,,0,34,34,147,1
5befe2ef7c38740001698b0e,63f3cfca20052e4ae7554ebf,6453cd67f2b29a4b012a8ec0,2023-05-04_17h21.36.704,ga_syllabified_check,2022.2.5,Win32,6.666888896,,,,,,,,,,,,,,./stim/p03_syllable_1_mebochiana_hit.wav,p03,mebochiana,hit,me-bo-chia-na,me-bo-chia-na,me-bo-chi-a-na, ,-0.448205128,-0.112307692,1,0,0,2.8152,text_option_1,,0,35,35,22,1
5befe2ef7c38740001698b0e,63f3cfca20052e4ae7554ebf,6453cd67f2b29a4b012a8ec0,2023-05-04_17h21.36.704,ga_syllabified_check,2022.2.5,Win32,6.666888896,,,,,,,,,,,,,,./stim/p05_syllable_1_mebochiana_hit.wav,p05,mebochiana,hit,me-cho-chai-na,me-bo-chia-na,me-bo-chi-a-na, ,-0.508717949,-0.107179487,1,0,0,10.7607,text_option_1,,0,36,36,90,1
5befe2ef7c38740001698b0e,63f3cfca20052e4ae7554ebf,6453cd67f2b29a4b012a8ec0,2023-05-04_17h21.36.704,ga_syllabified_check,2022.2.5,Win32,6.666888896,,,,,,,,,,,,,,./stim/p04_syllable_1_lakatiaisto_hit.wav,p04,lakatiaisto,hit,la-ka-kiais-to,la-ka-tiais-to,la-ka-ti-ais-to,la-ka-tia-is-to,-0.485128205,-0.097948718,1,0,0,2.5793,text_option_1,,0,37,37,52,1
5befe2ef7c38740001698b0e,63f3cfca20052e4ae7554ebf,6453cd67f2b29a4b012a8ec0,2023-05-04_17h21.36.704,ga_syllabified_check,2022.2.5,Win32,6.666888896,,,,,,,,,,,,,,./stim/p05_syllable_1_paluguato_hit.wav,p05,paluguato,hit,pa-lu-gau-to,pa-lu-gua-to,pa-lu-gu-a-to, ,-0.499487179,-0.101025641,1,0,0,1.8208,text_option_1,,0,38,38,95,1
5befe2ef7c38740001698b0e,63f3cfca20052e4ae7554ebf,6453cd67f2b29a4b012a8ec0,2023-05-04_17h21.36.704,ga_syllabified_check,2022.2.5,Win32,6.666888896,,,,,,,,,,,,,,./stim/p04_syllable_1_lliape_hit.wav,p04,lliape,hit,lia-pe,llia-pe,lli-a-pe, ,-0.364102564,-0.101025641,1,0,0,2.449,text_option_1,,0,39,39,54,1
5befe2ef7c38740001698b0e,63f3cfca20052e4ae7554ebf,6453cd67f2b29a4b012a8ec0,2023-05-04_17h21.36.704,ga_syllabified_check,2022.2.5,Win32,6.666888896,,,,,,,,,,,,,,./stim/p03_syllable_1_lakaguaisto_hit.wav,p03,lakaguaisto,hit,la-ka-guais-to,la-ka-guais-to,la-ka-gu-ais-to,la-ka-gua-is-to,-0.48,-0.107179487,1,0,0,1.1043,text_option_1,,0,40,40,13,1
5befe2ef7c38740001698b0e,63f3cfca20052e4ae7554ebf,6453cd67f2b29a4b012a8ec0,2023-05-04_17h21.36.704,ga_syllabified_check,2022.2.5,Win32,6.666888896,,,,,,,,,,,,,,./stim/p04_syllable_1_manhiala_hit.wav,p04,mañiala,hit,ma-nhia-la,ma-ñia-la,ma-ñi-a-la, ,-0.414358974,-0.097948718,1,0,0,0.4135,text_option_1,,0,41,41,55,1
5befe2ef7c38740001698b0e,63f3cfca20052e4ae7554ebf,6453cd67f2b29a4b012a8ec0,2023-05-04_17h21.36.704,ga_syllabified_check,2022.2.5,Win32,6.666888896,,,,,,,,,,,,,,./stim/p08_syllable_1_palumaisto_hit.wav,p08,palumaisto,hit,pa-lu-mais-to,pa-lu-mais-to,pa-lu-ma-is-to, ,-0.396923077,-0.115384615,1,0,0,2.5323,text_option_1,,0,42,42,198,1
5befe2ef7c38740001698b0e,63f3cfca20052e4ae7554ebf,6453cd67f2b29a4b012a8ec0,2023-05-04_17h21.36.704,ga_syllabified_check,2022.2.5,Win32,6.666888896,,,,,,,,,,,,,,./stim/p07_syllable_1_falutraigo_hit.wav,p07,falutraigo,hit,fa-lu-trai-go,fa-lu-trai-go,fa-lu-tra-i-go, ,-0.367179487,-0.098974359,1,0,0,2.801,text_option_1,,0,43,43,140,1
5befe2ef7c38740001698b0e,63f3cfca20052e4ae7554ebf,6453cd67f2b29a4b012a8ec0,2023-05-04_17h21.36.704,ga_syllabified_check,2022.2.5,Win32,6.666888896,,,,,,,,,,,,,,./stim/p07_syllable_1_flauro_hit.wav,p07,flauro,hit,flau-ro,flau-ro,fla-u-ro, ,-0.438974359,-0.105128205,1,0,0,2.4967,text_option_1,,0,44,44,141,1
5befe2ef7c38740001698b0e,63f3cfca20052e4ae7554ebf,6453cd67f2b29a4b012a8ec0,2023-05-04_17h21.36.704,ga_syllabified_check,2022.2.5,Win32,6.666888896,,,,,,,,,,,,,,./stim/p07_syllable_1_palumaisto_hit.wav,p07,palumaisto,hit,pa-lu-mais-to,pa-lu-mais-to,pa-lu-ma-is-to, ,-0.405128205,-0.101025641,1,0,0,2.6315,text_option_1,,0,45,45,164,1
5befe2ef7c38740001698b0e,63f3cfca20052e4ae7554ebf,6453cd67f2b29a4b012a8ec0,2023-05-04_17h21.36.704,ga_syllabified_check,2022.2.5,Win32,6.666888896,,,,,,,,,,,,,,./stim/p08_syllable_1_falufaisto_hit.wav,p08,falufaisto,hit,fa-lu-fais-to,fa-lu-fais-to,fa-lu-fa-is-to, ,-0.433846154,-0.105128205,1,0,0,1.943,text_option_1,,0,46,46,173,1
5befe2ef7c38740001698b0e,63f3cfca20052e4ae7554ebf,6453cd67f2b29a4b012a8ec0,2023-05-04_17h21.36.704,ga_syllabified_check,2022.2.5,Win32,6.666888896,,,,,,,,,,,,,,./stim/p05_syllable_1_lakakuaisto_hit.wav,p05,lakakuaisto,hit,la-ka-kais-to,la-ka-kuais-to,la-ka-ku-ais-to,la-ka-kua-is-to,-0.438974359,-0.106153846,1,0,0,1.8505,text_option_1,,0,47,47,83,1
5befe2ef7c38740001698b0e,63f3cfca20052e4ae7554ebf,6453cd67f2b29a4b012a8ec0,2023-05-04_17h21.36.704,ga_syllabified_check,2022.2.5,Win32,6.666888896,,,,,,,,,,,,,,./stim/p05_syllable_1_ruyiola_hit.wav,p05,ruyiola,hit,ru-yio-la,ru-yio-la,ru-yi-o-la, ,-0.420512821,-0.106153846,1,0,0,0.9892,text_option_1,,0,48,48,100,1
5befe2ef7c38740001698b0e,63f3cfca20052e4ae7554ebf,6453cd67f2b29a4b012a8ec0,2023-05-04_17h21.36.704,ga_syllabified_check,2022.2.5,Win32,6.666888896,,,,,,,,,,,,,,./stim/p05_syllable_1_lakatuaisto_hit.wav,p05,lakatuaisto,hit,la-ka-tais-to,la-ka-tuais-to,la-ka-tu-ais-to,la-ka-tua-is-to,-0.42974359,-0.108205128,1,0,0,1.1141,text_option_1,,0,49,49,87,1
5befe2ef7c38740001698b0e,63f3cfca20052e4ae7554ebf,6453cd67f2b29a4b012a8ec0,2023-05-04_17h21.36.704,ga_syllabified_check,2022.2.5,Win32,6.666888896,,,,,,,,,,,,,,./stim/p03_syllable_1_ruyiola_hit.wav,p03,ruyiola,hit,ru-yio-la,ru-yio-la,ru-yi-o-la, ,-0.42974359,-0.108205128,1,0,0,0.7005,text_option_1,,0,50,50,32,1
5befe2ef7c38740001698b0e,63f3cfca20052e4ae7554ebf,6453cd67f2b29a4b012a8ec0,2023-05-04_17h21.36.704,ga_syllabified_check,2022.2.5,Win32,6.666888896,,,,,,,,,,,,,,./stim/p07_syllable_1_falufaisto_hit.wav,p07,falufaisto,hit,fa-lu-fais-to,fa-lu-fais-to,fa-lu-fa-is-to, ,-0.42974359,-0.108205128,1,0,0,2.9331,text_option_1,,0,51,51,139,1
5befe2ef7c38740001698b0e,63f3cfca20052e4ae7554ebf,6453cd67f2b29a4b012a8ec0,2023-05-04_17h21.36.704,ga_syllabified_check,2022.2.5,Win32,6.666888896,,,,,,,,,,,,,,./stim/p05_syllable_1_lakadiaisto_hit.wav,p05,lakadiaisto,hit,la-ka-di-ais-to,la-ka-diais-to,la-ka-di-ais-to,la-ka-dia-is-to,-0.452307692,-0.098974359,1,0,0,345.3649,text_option_1,,0,52,52,76,1
5befe2ef7c38740001698b0e,63f3cfca20052e4ae7554ebf,6453cd67f2b29a4b012a8ec0,2023-05-04_17h21.36.704,ga_syllabified_check,2022.2.5,Win32,6.666888896,,,,,,,,,,,,,,./stim/p03_syllable_1_lakapuaisto_hit.wav,p03,lakapuaisto,hit,la-ka-puais-to,la-ka-puais-to,la-ka-pu-ais-to,la-ka-pua-is-to,-0.44,-0.105128205,1,0,0,2.7991,text_option_1,,0,53,53,17,1
5befe2ef7c38740001698b0e,63f3cfca20052e4ae7554ebf,6453cd67f2b29a4b012a8ec0,2023-05-04_17h21.36.704,ga_syllabified_check,2022.2.5,Win32,6.666888896,,,,,,,,,,,,,,./stim/p06_syllable_1_lakaduaisto_hit.wav,p06,lakaduaisto,hit,la-ka-du-a-is,la-ka-duais-to,la-ka-du-ais-to,la-ka-dua-is-to,0.383589744,-0.1,1,0,0,7.7256,text_option_2,,0,54,54,111,1
5befe2ef7c38740001698b0e,63f3cfca20052e4ae7554ebf,6453cd67f2b29a4b012a8ec0,2023-05-04_17h21.36.704,ga_syllabified_check,2022.2.5,Win32,6.666888896,,,,,,,,,,,,,,./stim/p03_syllable_1_palutrauco_hit.wav,p03,palutrauco,hit,pa-lu-trau-co,pa-lu-trau-co,pa-lu-tra-u-co, ,-0.392820513,-0.105128205,1,0,0,3.5329,text_option_1,,0,55,55,29,1
5befe2ef7c38740001698b0e,63f3cfca20052e4ae7554ebf,6453cd67f2b29a4b012a8ec0,2023-05-04_17h21.36.704,ga_syllabified_check,2022.2.5,Win32,6.666888896,,,,,,,,,,,,,,./stim/p04_syllable_1_lakaguaisto_hit.wav,p04,lakaguaisto,hit,la-ka-guais-to,la-ka-guais-to,la-ka-gu-ais-to,la-ka-gua-is-to,-0.406153846,-0.104102564,1,0,0,0.8334,text_option_1,,0,56,56,47,1
5befe2ef7c38740001698b0e,63f3cfca20052e4ae7554ebf,6453cd67f2b29a4b012a8ec0,2023-05-04_17h21.36.704,ga_syllabified_check,2022.2.5,Win32,6.666888896,,,,,,,,,,,,,,./stim/p03_syllable_1_falufaisto_hit.wav,p03,falufaisto,hit,fa-lu-fais-to,fa-lu-fais-to,fa-lu-fa-is-to, ,-0.406153846,-0.104102564,1,0,0,1.8011,text_option_1,,0,57,57,3,1
5befe2ef7c38740001698b0e,63f3cfca20052e4ae7554ebf,6453cd67f2b29a4b012a8ec0,2023-05-04_17h21.36.704,ga_syllabified_check,2022.2.5,Win32,6.666888896,,,,,,,,,,,,,,./stim/p08_syllable_1_lakaduaisto_hit.wav,p08,lakaduaisto,hit,la-ka-du-ais-to,la-ka-duais-to,la-ka-du-ais-to,la-ka-dua-is-to,0.37025641,-0.088717949,1,0,0,2.5214,text_option_2,,0,58,58,179,1
5befe2ef7c38740001698b0e,63f3cfca20052e4ae7554ebf,6453cd67f2b29a4b012a8ec0,2023-05-04_17h21.36.704,ga_syllabified_check,2022.2.5,Win32,6.666888896,,,,,,,,,,,,,,./stim/p06_syllable_1_lakadiaisto_hit.wav,p06,lakadiaisto,hit,la-ka-dia-is-to,la-ka-diais-to,la-ka-di-ais-to,la-ka-dia-is-to,0.379487179,-0.1,1,0,0,5.2198,text_option_2,,0,59,59,110,1
5befe2ef7c38740001698b0e,63f3cfca20052e4ae7554ebf,6453cd67f2b29a4b012a8ec0,2023-05-04_17h21.36.704,ga_syllabified_check,2022.2.5,Win32,6.666888896,,,,,,,,,,,,,,./stim/p06_syllable_1_lakabiaisto_hit.wav,p06,lakabiaisto,hit,la-ka-bia-is-to,la-ka-biais-to,la-ka-bi-ais-to,la-ka-bia-is-to,-0.016410256,-0.103076923,1,0,0,4.429,text_option_3,,0,60,60,108,1
5befe2ef7c38740001698b0e,63f3cfca20052e4ae7554ebf,6453cd67f2b29a4b012a8ec0,2023-05-04_17h21.36.704,ga_syllabified_check,2022.2.5,Win32,6.666888896,,,,,,,,,,,,,,./stim/p04_syllable_1_palufauto_hit.wav,p04,palufauto,hit,pa-lu-fau-to,pa-lu-fau-to,pa-lu-fa-u-to, ,-0.422564103,-0.105128205,1,0,0,2.9419,text_option_1,,0,61,61,60,1
5befe2ef7c38740001698b0e,63f3cfca20052e4ae7554ebf,6453cd67f2b29a4b012a8ec0,2023-05-04_17h21.36.704,ga_syllabified_check,2022.2.5,Win32,6.666888896,,,,,,,,,,,,,,./stim/p05_syllable_1_palumaisto_hit.wav,p05,palumaisto,hit,pa-lu-mais-to,pa-lu-mais-to,pa-lu-ma-is-to, ,-0.422564103,-0.098974359,1,0,0,1.6612,text_option_1,,0,62,62,96,1
5befe2ef7c38740001698b0e,63f3cfca20052e4ae7554ebf,6453cd67f2b29a4b012a8ec0,2023-05-04_17h21.36.704,ga_syllabified_check,2022.2.5,Win32,6.666888896,,,,,,,,,,,,,,./stim/p07_syllable_1_lakabuaisto_hit.wav,p07,lakabuaisto,hit,la-ka-buais-to,la-ka-buais-to,la-ka-bu-ais-to,la-ka-bua-is-to,-0.422564103,-0.098974359,1,0,0,5.4201,text_option_1,,0,63,63,143,1
5befe2ef7c38740001698b0e,63f3cfca20052e4ae7554ebf,6453cd67f2b29a4b012a8ec0,2023-05-04_17h21.36.704,ga_syllabified_check,2022.2.5,Win32,6.666888896,,,,,,,,,,,,,,./stim/p04_syllable_1_lakakiaisto_hit.wav,p04,lakakiaisto,hit,la-ka-kiais-to,la-ka-kiais-to,la-ka-ki-ais-to,la-ka-kia-is-to,-0.422564103,-0.098974359,1,0,0,3.4875,text_option_1,,0,64,64,48,1
5befe2ef7c38740001698b0e,63f3cfca20052e4ae7554ebf,6453cd67f2b29a4b012a8ec0,2023-05-04_17h21.36.704,ga_syllabified_check,2022.2.5,Win32,6.666888896,,,,,,,,,,,,,,./stim/p08_syllable_1_chiaba_hit.wav,p08,chiaba,hit,chi-a-ba,chia-ba,chi-a-ba, ,0.351794872,-0.097948718,1,0,0,3.1945,text_option_2,,0,65,65,170,1
5befe2ef7c38740001698b0e,63f3cfca20052e4ae7554ebf,6453cd67f2b29a4b012a8ec0,2023-05-04_17h21.36.704,ga_syllabified_check,2022.2.5,Win32,6.666888896,,,,,,,,,,,,,,./stim/p06_syllable_1_falufaisto_hit.wav,p06,falufaisto,hit,fa-lu-fa-is-to,fa-lu-fais-to,fa-lu-fa-is-to, ,0.358974359,-0.107179487,1,0,0,2.5529,text_option_2,,0,66,66,105,1
5befe2ef7c38740001698b0e,63f3cfca20052e4ae7554ebf,6453cd67f2b29a4b012a8ec0,2023-05-04_17h21.36.704,ga_syllabified_check,2022.2.5,Win32,6.666888896,,,,,,,,,,,,,,./stim/p08_syllable_1_palufauto_hit.wav,p08,palufauto,hit,pa-lu-fau-to,pa-lu-fau-to,pa-lu-fa-u-to, ,-0.406153846,-0.096923077,1,0,0,5.0191,text_option_1,,0,67,67,196,1
5befe2ef7c38740001698b0e,63f3cfca20052e4ae7554ebf,6453cd67f2b29a4b012a8ec0,2023-05-04_17h21.36.704,ga_syllabified_check,2022.2.5,Win32,6.666888896,,,,,,,,,,,,,,./stim/p05_syllable_1_lakaguaisto_hit.wav,p05,lakaguaisto,hit,la-ka-gais,la-ka-guais-to,la-ka-gu-ais-to,la-ka-gua-is-to,-0.415384615,-0.106153846,1,0,0,2.3868,text_option_1,,0,68,68,81,1
5befe2ef7c38740001698b0e,63f3cfca20052e4ae7554ebf,6453cd67f2b29a4b012a8ec0,2023-05-04_17h21.36.704,ga_syllabified_check,2022.2.5,Win32,6.666888896,,,,,,,,,,,,,,./stim/p03_syllable_1_paluguato_hit.wav,p03,paluguato,hit,pa-lu-gua,pa-lu-gua-to,pa-lu-gu-a-to, ,-0.444102564,-0.095897436,1,0,0,1.2505,text_option_1,,0,69,69,27,1
5befe2ef7c38740001698b0e,63f3cfca20052e4ae7554ebf,6453cd67f2b29a4b012a8ec0,2023-05-04_17h21.36.704,ga_syllabified_check,2022.2.5,Win32,6.666888896,,,,,,,,,,,,,,./stim/p04_syllable_1_lakakuaisto_hit.wav,p04,lakakuaisto,hit,la-ka-kuais-to,la-ka-kuais-to,la-ka-ku-ais-to,la-ka-kua-is-to,-0.437948718,-0.096923077,1,0,0,0.9728,text_option_1,,0,70,70,49,1
5befe2ef7c38740001698b0e,63f3cfca20052e4ae7554ebf,6453cd67f2b29a4b012a8ec0,2023-05-04_17h21.36.704,ga_syllabified_check,2022.2.5,Win32,6.666888896,,,,,,,,,,,,,,./stim/p05_syllable_1_lakapuaisto_hit.wav,p05,lakapuaisto,hit,la-ka-pais-to,la-ka-puais-to,la-ka-pu-ais-to,la-ka-pua-is-to,-0.437948718,-0.096923077,1,0,0,2.605,text_option_1,,0,71,71,85,1
5befe2ef7c38740001698b0e,63f3cfca20052e4ae7554ebf,6453cd67f2b29a4b012a8ec0,2023-05-04_17h21.36.704,ga_syllabified_check,2022.2.5,Win32,6.666888896,,,,,,,,,,,,,,./stim/p03_syllable_1_lakabuaisto_hit.wav,p03,lakabuaisto,hit,la-ka-buais-to,la-ka-buais-to,la-ka-bu-ais-to,la-ka-bua-is-to,-0.412307692,-0.106153846,1,0,0,3.4698,text_option_1,,0,72,72,7,1
5befe2ef7c38740001698b0e,63f3cfca20052e4ae7554ebf,6453cd67f2b29a4b012a8ec0,2023-05-04_17h21.36.704,ga_syllabified_check,2022.2.5,Win32,6.666888896,,,,,,,,,,,,,,./stim/p07_syllable_1_lakakiaisto_hit.wav,p07,lakakiaisto,hit,la-ka-kais-to,la-ka-kiais-to,la-ka-ki-ais-to,la-ka-kia-is-to,-0.412307692,-0.106153846,1,0,0,5.906,text_option_1,,0,73,73,150,1
5befe2ef7c38740001698b0e,63f3cfca20052e4ae7554ebf,6453cd67f2b29a4b012a8ec0,2023-05-04_17h21.36.704,ga_syllabified_check,2022.2.5,Win32,6.666888896,,,,,,,,,,,,,,./stim/p03_syllable_1_lakatiaisto_hit.wav,p03,lakatiaisto,hit,la-ka-tiais-to,la-ka-tiais-to,la-ka-ti-ais-to,la-ka-tia-is-to,-0.431794872,-0.095897436,1,0,0,4.1923,text_option_1,,0,74,74,18,1
5befe2ef7c38740001698b0e,63f3cfca20052e4ae7554ebf,6453cd67f2b29a4b012a8ec0,2023-05-04_17h21.36.704,ga_syllabified_check,2022.2.5,Win32,6.666888896,,,,,,,,,,,,,,./stim/p05_syllable_1_lakabuaisto_hit.wav,p05,lakabuaisto,hit,la-ka-buais-to,la-ka-buais-to,la-ka-bu-ais-to,la-ka-bua-is-to,-0.407179487,-0.1,1,0,0,4.0138,text_option_1,,0,75,75,75,1
5befe2ef7c38740001698b0e,63f3cfca20052e4ae7554ebf,6453cd67f2b29a4b012a8ec0,2023-05-04_17h21.36.704,ga_syllabified_check,2022.2.5,Win32,6.666888896,,,,,,,,,,,,,,./stim/p05_syllable_1_palutrauco_hit.wav,p05,palutrauco,hit,pa-lu-trai-co,pa-lu-trau-co,pa-lu-tra-u-co, ,-0.373333333,-0.095897436,1,0,0,3.0467,text_option_1,,0,76,76,97,1
5befe2ef7c38740001698b0e,63f3cfca20052e4ae7554ebf,6453cd67f2b29a4b012a8ec0,2023-05-04_17h21.36.704,ga_syllabified_check,2022.2.5,Win32,6.666888896,,,,,,,,,,,,,,./stim/p08_syllable_1_palufauro_hit.wav,p08,palufauro,hit,pa-lu-fau-ro,pa-lu-fau-ro,pa-lu-fa-u-ro, ,-0.388717949,-0.094871795,1,0,0,4.324,text_option_1,,0,77,77,195,1
5befe2ef7c38740001698b0e,63f3cfca20052e4ae7554ebf,6453cd67f2b29a4b012a8ec0,2023-05-04_17h21.36.704,ga_syllabified_check,2022.2.5,Win32,6.666888896,,,,,,,,,,,,,,./stim/p08_syllable_1_rausto_hit.wav,p08,rausto,hit,raus-to,raus-to,ra-us-to, ,-0.407179487,-0.094871795,1,0,0,0.7041,text_option_1,,0,78,78,201,1
5befe2ef7c38740001698b0e,63f3cfca20052e4ae7554ebf,6453cd67f2b29a4b012a8ec0,2023-05-04_17h21.36.704,ga_syllabified_check,2022.2.5,Win32,6.666888896,,,,,,,,,,,,,,./stim/p07_syllable_1_rausto_hit.wav,p07,rausto,hit,raus-to,raus-to,ra-us-to, ,-0.407179487,-0.094871795,1,0,0,1.2441,text_option_1,,0,79,79,167,1
5befe2ef7c38740001698b0e,63f3cfca20052e4ae7554ebf,6453cd67f2b29a4b012a8ec0,2023-05-04_17h21.36.704,ga_syllabified_check,2022.2.5,Win32,6.666888896,,,,,,,,,,,,,,./stim/p08_syllable_1_lakafuaisto_hit.wav,p08,lakafuaisto,hit,la-ka-fju-ais-to,la-ka-fuais-to,la-ka-fu-ais-to,la-ka-fua-is-to,-0.41025641,-0.096923077,1,0,0,2.0516,text_option_1,,0,80,80,181,1
5befe2ef7c38740001698b0e,63f3cfca20052e4ae7554ebf,6453cd67f2b29a4b012a8ec0,2023-05-04_17h21.36.704,ga_syllabified_check,2022.2.5,Win32,6.666888896,,,,,,,,,,,,,,./stim/p06_syllable_1_faluduako_hit.wav,p06,faluduako,hit,fa-lu-dua-ko,fa-lu-dua-ko,fa-lu-du-a-ko, ,0.382564103,-0.1,1,0,0,6.4896,text_option_2,,0,81,81,104,1
5befe2ef7c38740001698b0e,63f3cfca20052e4ae7554ebf,6453cd67f2b29a4b012a8ec0,2023-05-04_17h21.36.704,ga_syllabified_check,2022.2.5,Win32,6.666888896,,,,,,,,,,,,,,./stim/p03_syllable_1_palufauro_hit.wav,p03,palufauro,hit,pa-lu-fau-ro,pa-lu-fau-ro,pa-lu-fa-u-ro, ,-0.365128205,-0.105128205,1,0,0,1.3886,text_option_1,,0,82,82,25,1
5befe2ef7c38740001698b0e,63f3cfca20052e4ae7554ebf,6453cd67f2b29a4b012a8ec0,2023-05-04_17h21.36.704,ga_syllabified_check,2022.2.5,Win32,6.666888896,,,,,,,,,,,,,,./stim/p08_syllable_1_mebochiana_hit.wav,p08,mebochiana,hit,me-bo-chi-a-na,me-bo-chia-na,me-bo-chi-a-na, ,0.391794872,-0.08974359,1,0,0,3.5064,text_option_2,,0,83,83,192,1
5befe2ef7c38740001698b0e,63f3cfca20052e4ae7554ebf,6453cd67f2b29a4b012a8ec0,2023-05-04_17h21.36.704,ga_syllabified_check,2022.2.5,Win32,6.666888896,,,,,,,,,,,,,,./stim/p04_syllable_1_tuliafo_hit.wav,p04,tuliafo,hit,tu-lia-fo,tu-lia-fo,tu-li-a-fo, ,-0.393846154,-0.083589744,1,0,0,0.8455,text_option_1,,0,84,84,67,1
5befe2ef7c38740001698b0e,63f3cfca20052e4ae7554ebf,6453cd67f2b29a4b012a8ec0,2023-05-04_17h21.36.704,ga_syllabified_check,2022.2.5,Win32,6.666888896,,,,,,,,,,,,,,./stim/p07_syllable_1_chiaba_hit.wav,p07,chiaba,hit,chia-ba,chia-ba,chi-a-ba, ,-0.393846154,-0.097948718,1,0,0,0.5566,text_option_1,,0,85,85,136,1
5befe2ef7c38740001698b0e,63f3cfca20052e4ae7554ebf,6453cd67f2b29a4b012a8ec0,2023-05-04_17h21.36.704,ga_syllabified_check,2022.2.5,Win32,6.666888896,,,,,,,,,,,,,,./stim/p04_syllable_1_lakafiaisto_hit.wav,p04,lakafiaisto,hit,la-ka-fiais-to,la-ka-fiais-to,la-ka-fi-ais-to,la-ka-fia-is-to,-0.4,-0.098974359,1,0,0,1.5119,text_option_1,,0,86,86,44,1
5befe2ef7c38740001698b0e,63f3cfca20052e4ae7554ebf,6453cd67f2b29a4b012a8ec0,2023-05-04_17h21.36.704,ga_syllabified_check,2022.2.5,Win32,6.666888896,,,,,,,,,,,,,,./stim/p04_syllable_1_lakadiaisto_hit.wav,p04,lakadiaisto,hit,la-ka-dias-to,la-ka-diais-to,la-ka-di-ais-to,la-ka-dia-is-to,-0.4,-0.098974359,1,0,0,1.3999,text_option_1,,0,87,87,42,1
5befe2ef7c38740001698b0e,63f3cfca20052e4ae7554ebf,6453cd67f2b29a4b012a8ec0,2023-05-04_17h21.36.704,ga_syllabified_check,2022.2.5,Win32,6.666888896,,,,,,,,,,,,,,./stim/p04_syllable_1_falufaisto_hit.wav,p04,falufaisto,hit,fa-lu-fais-to,fa-lu-fais-to,fa-lu-fa-is-to, ,-0.4,-0.098974359,1,0,0,0.8184,text_option_1,,0,88,88,37,1
5befe2ef7c38740001698b0e,63f3cfca20052e4ae7554ebf,6453cd67f2b29a4b012a8ec0,2023-05-04_17h21.36.704,ga_syllabified_check,2022.2.5,Win32,6.666888896,,,,,,,,,,,,,,./stim/p07_syllable_1_lakadiaisto_hit.wav,p07,lakadiaisto,hit,la-ka-dia-is-to,la-ka-diais-to,la-ka-di-ais-to,la-ka-dia-is-to,-0.012307692,-0.102051282,1,0,0,2.0887,text_option_3,,0,89,89,144,1
5befe2ef7c38740001698b0e,63f3cfca20052e4ae7554ebf,6453cd67f2b29a4b012a8ec0,2023-05-04_17h21.36.704,ga_syllabified_check,2022.2.5,Win32,6.666888896,,,,,,,,,,,,,,./stim/p06_syllable_1_lakabuaisto_hit.wav,p06,lakabuaisto,hit,la-ka-bu-a-is,la-ka-buais-to,la-ka-bu-ais-to,la-ka-bua-is-to,0.36,-0.093846154,1,0,0,4.1511,text_option_2,,0,90,90,109,1
5befe2ef7c38740001698b0e,63f3cfca20052e4ae7554ebf,6453cd67f2b29a4b012a8ec0,2023-05-04_17h21.36.704,ga_syllabified_check,2022.2.5,Win32,6.666888896,,,,,,,,,,,,,,./stim/p07_syllable_1_lakapiaisto_hit.wav,p07,lakapiaisto,hit,la-ka-pia-sto,la-ka-piais-to,la-ka-pi-ais-to,la-ka-pia-is-to,0.038974359,-0.095897436,1,0,0,10.639,text_option_3,,0,91,91,152,1
5befe2ef7c38740001698b0e,63f3cfca20052e4ae7554ebf,6453cd67f2b29a4b012a8ec0,2023-05-04_17h21.36.704,ga_syllabified_check,2022.2.5,Win32,6.666888896,,,,,,,,,,,,,,./stim/p08_syllable_1_nhiape_hit.wav,p08,ñiape,hit,ni-a-pe,ñia-pe,ñi-a-pe, ,0.391794872,-0.106153846,1,0,0,4.0052,text_option_2,,0,92,92,193,1
5befe2ef7c38740001698b0e,63f3cfca20052e4ae7554ebf,6453cd67f2b29a4b012a8ec0,2023-05-04_17h21.36.704,ga_syllabified_check,2022.2.5,Win32,6.666888896,,,,,,,,,,,,,,./stim/p05_syllable_1_costonhialo_hit.wav,p05,costoñialo,hit,cos-to-nhia-lo,cos-to-ñia-lo,cos-to-ñi-a-lo, ,-0.423589744,-0.111282051,1,0,0,1.5444,text_option_1,,0,93,93,69,1
5befe2ef7c38740001698b0e,63f3cfca20052e4ae7554ebf,6453cd67f2b29a4b012a8ec0,2023-05-04_17h21.36.704,ga_syllabified_check,2022.2.5,Win32,6.666888896,,,,,,,,,,,,,,./stim/p07_syllable_1_paluguato_hit.wav,p07,paluguato,hit,pa-lu-gua-to,pa-lu-gua-to,pa-lu-gu-a-to, ,-0.427692308,-0.101025641,1,0,0,2.2521,text_option_1,,0,94,94,163,1
5befe2ef7c38740001698b0e,63f3cfca20052e4ae7554ebf,6453cd67f2b29a4b012a8ec0,2023-05-04_17h21.36.704,ga_syllabified_check,2022.2.5,Win32,6.666888896,,,,,,,,,,,,,,./stim/p04_syllable_1_palufauro_hit.wav,p04,palufauro,hit,pa-lu-fau-ro,pa-lu-fau-ro,pa-lu-fa-u-ro, ,-0.427692308,-0.101025641,1,0,0,1.5778,text_option_1,,0,95,95,59,1
5befe2ef7c38740001698b0e,63f3cfca20052e4ae7554ebf,6453cd67f2b29a4b012a8ec0,2023-05-04_17h21.36.704,ga_syllabified_check,2022.2.5,Win32,6.666888896,,,,,,,,,,,,,,./stim/p08_syllable_1_ruyiola_hit.wav,p08,ruyiola,hit,ru-yio-la,ru-yio-la,ru-yi-o-la, ,-0.406153846,-0.106153846,1,0,0,4.4601,text_option_1,,0,96,96,202,1
5befe2ef7c38740001698b0e,63f3cfca20052e4ae7554ebf,6453cd67f2b29a4b012a8ec0,2023-05-04_17h21.36.704,ga_syllabified_check,2022.2.5,Win32,6.666888896,,,,,,,,,,,,,,./stim/p06_syllable_1_palumaisto_hit.wav,p06,palumaisto,hit,pa-lu-ma-is-to,pa-lu-mais-to,pa-lu-ma-is-to, ,0.402051282,-0.090769231,1,0,0,3.0769,text_option_2,,0,97,97,130,1
5befe2ef7c38740001698b0e,63f3cfca20052e4ae7554ebf,6453cd67f2b29a4b012a8ec0,2023-05-04_17h21.36.704,ga_syllabified_check,2022.2.5,Win32,6.666888896,,,,,,,,,,,,,,./stim/p05_syllable_1_palufauto_hit.wav,p05,palufauto,hit,pa-lu-fau-to,pa-lu-fau-to,pa-lu-fa-u-to, ,-0.390769231,-0.097948718,1,0,0,2.1506,text_option_1,,0,98,98,94,1
5befe2ef7c38740001698b0e,63f3cfca20052e4ae7554ebf,6453cd67f2b29a4b012a8ec0,2023-05-04_17h21.36.704,ga_syllabified_check,2022.2.5,Win32,6.666888896,,,,,,,,,,,,,,./stim/p03_syllable_1_chiaba_hit.wav,p03,chiaba,hit,chia-ba,chia-ba,chi-a-ba, ,-0.412307692,-0.104102564,1,0,0,4.8977,text_option_1,,0,99,99,0,1
5befe2ef7c38740001698b0e,63f3cfca20052e4ae7554ebf,6453cd67f2b29a4b012a8ec0,2023-05-04_17h21.36.704,ga_syllabified_check,2022.2.5,Win32,6.666888896,,,,,,,,,,,,,,./stim/p06_syllable_1_paluguato_hit.wav,p06,paluguato,hit,pa-lu-gua-to,pa-lu-gua-to,pa-lu-gu-a-to, ,-0.4,-0.094871795,1,0,0,4.8694,text_option_1,,0,100,100,129,1
5befe2ef7c38740001698b0e,63f3cfca20052e4ae7554ebf,6453cd67f2b29a4b012a8ec0,2023-05-04_17h21.36.704,ga_syllabified_check,2022.2.5,Win32,6.666888896,,,,,,,,,,,,,,./stim/p06_syllable_1_lakakuaisto_hit.wav,p06,lakakuaisto,hit,la-ka-ku-a-is,la-ka-kuais-to,la-ka-ku-ais-to,la-ka-kua-is-to,0.398974359,-0.101025641,1,0,0,5.5085,text_option_2,,0,101,101,117,1
5befe2ef7c38740001698b0e,63f3cfca20052e4ae7554ebf,6453cd67f2b29a4b012a8ec0,2023-05-04_17h21.36.704,ga_syllabified_check,2022.2.5,Win32,6.666888896,,,,,,,,,,,,,,./stim/p08_syllable_1_lakatuaisto_hit.wav,p08,lakatuaisto,hit,la-ka-tu-i-jis,la-ka-tuais-to,la-ka-tu-ais-to,la-ka-tua-is-to,0.027692308,-0.106153846,1,0,0,5.9678,text_option_3,,0,102,102,189,1
5befe2ef7c38740001698b0e,63f3cfca20052e4ae7554ebf,6453cd67f2b29a4b012a8ec0,2023-05-04_17h21.36.704,ga_syllabified_check,2022.2.5,Win32,6.666888896,,,,,,,,,,,,,,./stim/p04_syllable_1_lakapuaisto_hit.wav,p04,lakapuaisto,hit,la-ka-puais-to,la-ka-puais-to,la-ka-pu-ais-to,la-ka-pua-is-to,-0.432820513,-0.098974359,1,0,0,1.3928,text_option_1,,0,103,103,51,1
5befe2ef7c38740001698b0e,63f3cfca20052e4ae7554ebf,6453cd67f2b29a4b012a8ec0,2023-05-04_17h21.36.704,ga_syllabified_check,2022.2.5,Win32,6.666888896,,,,,,,,,,,,,,./stim/p08_syllable_1_payielo_hit.wav,p08,payielo,hit,pa-yie-lo,pa-yie-lo,pa-yi-e-lo, ,-0.406153846,-0.104102564,1,0,0,1.0877,text_option_1,,0,104,104,200,1
5befe2ef7c38740001698b0e,63f3cfca20052e4ae7554ebf,6453cd67f2b29a4b012a8ec0,2023-05-04_17h21.36.704,ga_syllabified_check,2022.2.5,Win32,6.666888896,,,,,,,,,,,,,,./stim/p05_syllable_1_rausto_hit.wav,p05,rausto,hit,raus-to,raus-to,ra-us-to, ,-0.406153846,-0.104102564,1,0,0,0.8218,text_option_1,,0,105,105,99,1
5befe2ef7c38740001698b0e,63f3cfca20052e4ae7554ebf,6453cd67f2b29a4b012a8ec0,2023-05-04_17h21.36.704,ga_syllabified_check,2022.2.5,Win32,6.666888896,,,,,,,,,,,,,,./stim/p08_syllable_1_lakapuaisto_hit.wav,p08,lakapuaisto,hit,la-ka-pu-as-to,la-ka-puais-to,la-ka-pu-ais-to,la-ka-pua-is-to,0.385641026,-0.097948718,1,0,0,4.1859,text_option_2,,0,106,106,187,1
5befe2ef7c38740001698b0e,63f3cfca20052e4ae7554ebf,6453cd67f2b29a4b012a8ec0,2023-05-04_17h21.36.704,ga_syllabified_check,2022.2.5,Win32,6.666888896,,,,,,,,,,,,,,./stim/p06_syllable_1_lakakiaisto_hit.wav,p06,lakakiaisto,hit,la-ka-kia-is-to,la-ka-kiais-to,la-ka-ki-ais-to,la-ka-kia-is-to,-0.003076923,-0.098974359,1,0,0,4.7422,text_option_3,,0,107,107,116,1
5befe2ef7c38740001698b0e,63f3cfca20052e4ae7554ebf,6453cd67f2b29a4b012a8ec0,2023-05-04_17h21.36.704,ga_syllabified_check,2022.2.5,Win32,6.666888896,,,,,,,,,,,,,,./stim/p07_syllable_1_palufauro_hit.wav,p07,palufauro,hit,pa-lu-fau-ro,pa-lu-fau-ro,pa-lu-fa-u-ro, ,-0.386666667,-0.1,1,0,0,3.6964,text_option_1,,0,108,108,161,1
5befe2ef7c38740001698b0e,63f3cfca20052e4ae7554ebf,6453cd67f2b29a4b012a8ec0,2023-05-04_17h21.36.704,ga_syllabified_check,2022.2.5,Win32,6.666888896,,,,,,,,,,,,,,./stim/p06_syllable_1_palufauto_hit.wav,p06,palufauto,hit,pa-lu-fau-to,pa-lu-fau-to,pa-lu-fa-u-to, ,-0.392820513,-0.104102564,1,0,0,4.8257,text_option_1,,0,109,109,128,1
5befe2ef7c38740001698b0e,63f3cfca20052e4ae7554ebf,6453cd67f2b29a4b012a8ec0,2023-05-04_17h21.36.704,ga_syllabified_check,2022.2.5,Win32,6.666888896,,,,,,,,,,,,,,./stim/p06_syllable_1_mebochiana_hit.wav,p06,mebochiana,hit,me-bo-shi-a-na,me-bo-chia-na,me-bo-chi-a-na, ,0.41025641,-0.103076923,1,0,0,5.3941,text_option_2,,0,110,110,124,1
5befe2ef7c38740001698b0e,63f3cfca20052e4ae7554ebf,6453cd67f2b29a4b012a8ec0,2023-05-04_17h21.36.704,ga_syllabified_check,2022.2.5,Win32,6.666888896,,,,,,,,,,,,,,./stim/p04_syllable_1_lakapiaisto_hit.wav,p04,lakapiaisto,hit,la-ka-piais-to,la-ka-piais-to,la-ka-pi-ais-to,la-ka-pia-is-to,-0.357948718,-0.097948718,1,0,0,2.9562,text_option_1,,0,111,111,50,1
5befe2ef7c38740001698b0e,63f3cfca20052e4ae7554ebf,6453cd67f2b29a4b012a8ec0,2023-05-04_17h21.36.704,ga_syllabified_check,2022.2.5,Win32,6.666888896,,,,,,,,,,,,,,./stim/p06_syllable_1_palutrauco_hit.wav,p06,palutrauco,hit,pa-lu-tra-u-co,pa-lu-trau-co,pa-lu-tra-u-co, ,0.406153846,-0.102051282,1,0,0,3.7197,text_option_2,,0,112,112,131,1
5befe2ef7c38740001698b0e,63f3cfca20052e4ae7554ebf,6453cd67f2b29a4b012a8ec0,2023-05-04_17h21.36.704,ga_syllabified_check,2022.2.5,Win32,6.666888896,,,,,,,,,,,,,,./stim/p07_syllable_1_lakaduaisto_hit.wav,p07,lakaduaisto,hit,la-ka-duais-to,la-ka-duais-to,la-ka-du-ais-to,la-ka-dua-is-to,-0.343589744,-0.104102564,1,0,0,2.8055,text_option_1,,0,113,113,145,1
5befe2ef7c38740001698b0e,63f3cfca20052e4ae7554ebf,6453cd67f2b29a4b012a8ec0,2023-05-04_17h21.36.704,ga_syllabified_check,2022.2.5,Win32,6.666888896,,,,,,,,,,,,,,./stim/p08_syllable_1_lakapiaisto_hit.wav,p08,lakapiaisto,hit,la-ka-pi-as-to,la-ka-piais-to,la-ka-pi-ais-to,la-ka-pia-is-to,0.412307692,-0.107179487,1,0,0,5.7371,text_option_2,,0,114,114,186,1
5befe2ef7c38740001698b0e,63f3cfca20052e4ae7554ebf,6453cd67f2b29a4b012a8ec0,2023-05-04_17h21.36.704,ga_syllabified_check,2022.2.5,Win32,6.666888896,,,,,,,,,,,,,,./stim/p07_syllable_1_pachialo_hit.wav,p07,pachialo,hit,pa-cha-lo,pa-chia-lo,pa-chi-a-lo, ,-0.392820513,-0.093846154,1,0,0,2.3287,text_option_1,,0,115,115,160,1
5befe2ef7c38740001698b0e,63f3cfca20052e4ae7554ebf,6453cd67f2b29a4b012a8ec0,2023-05-04_17h21.36.704,ga_syllabified_check,2022.2.5,Win32,6.666888896,,,,,,,,,,,,,,./stim/p03_syllable_1_lliape_hit.wav,p03,lliape,hit,llia,llia-pe,lli-a-pe, ,-0.387692308,-0.1,1,0,0,0.5401,text_option_1,,0,116,116,20,1
5befe2ef7c38740001698b0e,63f3cfca20052e4ae7554ebf,6453cd67f2b29a4b012a8ec0,2023-05-04_17h21.36.704,ga_syllabified_check,2022.2.5,Win32,6.666888896,,,,,,,,,,,,,,./stim/p06_syllable_1_lakapiaisto_hit.wav,p06,lakapiaisto,hit,la-ka-pia-is-to,la-ka-piais-to,la-ka-pi-ais-to,la-ka-pia-is-to,0,-0.097948718,1,0,0,6.114,text_option_3,,0,117,117,118,1
5befe2ef7c38740001698b0e,63f3cfca20052e4ae7554ebf,6453cd67f2b29a4b012a8ec0,2023-05-04_17h21.36.704,ga_syllabified_check,2022.2.5,Win32,6.666888896,,,,,,,,,,,,,,./stim/p07_syllable_1_lliape_hit.wav,p07,lliape,hit,lliai-pe,llia-pe,lli-a-pe, ,-0.398974359,-0.105128205,1,0,0,1.1047,text_option_1,,0,118,118,156,1
5befe2ef7c38740001698b0e,63f3cfca20052e4ae7554ebf,6453cd67f2b29a4b012a8ec0,2023-05-04_17h21.36.704,ga_syllabified_check,2022.2.5,Win32,6.666888896,,,,,,,,,,,,,,./stim/p07_syllable_1_lakatuaisto_hit.wav,p07,lakatuaisto,hit,la-ka-tuais-to,la-ka-tuais-to,la-ka-tu-ais-to,la-ka-tua-is-to,-0.464615385,-0.104102564,1,0,0,4.0675,text_option_1,,0,119,119,155,1
5befe2ef7c38740001698b0e,63f3cfca20052e4ae7554ebf,6453cd67f2b29a4b012a8ec0,2023-05-04_17h21.36.704,ga_syllabified_check,2022.2.5,Win32,6.666888896,,,,,,,,,,,,,,./stim/p08_syllable_1_costonhialo_hit.wav,p08,costoñialo,hit,cos-to-nhia-lo,cos-to-ñia-lo,cos-to-ñi-a-lo, ,-0.391794872,-0.1,1,0,0,2.9879,text_option_1,,0,120,120,171,1
5befe2ef7c38740001698b0e,63f3cfca20052e4ae7554ebf,6453cd67f2b29a4b012a8ec0,2023-05-04_17h21.36.704,ga_syllabified_check,2022.2.5,Win32,6.666888896,,,,,,,,,,,,,,./stim/p04_syllable_1_chiaba_hit.wav,p04,chiaba,hit,chia-ba,chia-ba,chi-a-ba, ,-0.366153846,-0.098974359,1,0,0,0.2671,text_option_1,,0,121,121,34,1
5befe2ef7c38740001698b0e,63f3cfca20052e4ae7554ebf,6453cd67f2b29a4b012a8ec0,2023-05-04_17h21.36.704,ga_syllabified_check,2022.2.5,Win32,6.666888896,,,,,,,,,,,,,,./stim/p06_syllable_1_rausto_hit.wav,p06,rausto,hit,ra-us-to,raus-to,ra-us-to, ,0.4,-0.098974359,1,0,0,2.2249,text_option_2,,0,122,122,133,1
5befe2ef7c38740001698b0e,63f3cfca20052e4ae7554ebf,6453cd67f2b29a4b012a8ec0,2023-05-04_17h21.36.704,ga_syllabified_check,2022.2.5,Win32,6.666888896,,,,,,,,,,,,,,./stim/p05_syllable_1_nhiape_hit.wav,p05,ñiape,hit,nhia-pe,ñia-pe,ñi-a-pe, ,-0.412307692,-0.105128205,1,0,0,0.4128,text_option_1,,0,123,123,91,1
5befe2ef7c38740001698b0e,63f3cfca20052e4ae7554ebf,6453cd67f2b29a4b012a8ec0,2023-05-04_17h21.36.704,ga_syllabified_check,2022.2.5,Win32,6.666888896,,,,,,,,,,,,,,./stim/p05_syllable_1_palufauro_hit.wav,p05,palufauro,hit,pa-lu-fau-ro,pa-lu-fau-ro,pa-lu-fa-u-ro, ,-0.412307692,-0.105128205,1,0,0,1.1108,text_option_1,,0,124,124,93,1
5befe2ef7c38740001698b0e,63f3cfca20052e4ae7554ebf,6453cd67f2b29a4b012a8ec0,2023-05-04_17h21.36.704,ga_syllabified_check,2022.2.5,Win32,6.666888896,,,,,,,,,,,,,,./stim/p07_syllable_1_lakakuaisto_hit.wav,p07,lakakuaisto,hit,la-ka-kuais-to,la-ka-kuais-to,la-ka-ku-ais-to,la-ka-kua-is-to,-0.412307692,-0.104102564,1,0,0,1.6707,text_option_1,,0,125,125,151,1
5befe2ef7c38740001698b0e,63f3cfca20052e4ae7554ebf,6453cd67f2b29a4b012a8ec0,2023-05-04_17h21.36.704,ga_syllabified_check,2022.2.5,Win32,6.666888896,,,,,,,,,,,,,,./stim/p03_syllable_1_lakafuaisto_hit.wav,p03,lakafuaisto,hit,la-ka-fuais-to,la-ka-fuais-to,la-ka-fu-ais-to,la-ka-fua-is-to,-0.397948718,-0.102051282,1,0,0,1.2369,text_option_1,,0,126,126,11,1
5befe2ef7c38740001698b0e,63f3cfca20052e4ae7554ebf,6453cd67f2b29a4b012a8ec0,2023-05-04_17h21.36.704,ga_syllabified_check,2022.2.5,Win32,6.666888896,,,,,,,,,,,,,,./stim/p03_syllable_1_palumaisto_hit.wav,p03,palumaisto,hit,pa-lu-mais-to,pa-lu-mais-to,pa-lu-ma-is-to, ,-0.418461538,-0.105128205,1,0,0,0.4338,text_option_1,,0,127,127,28,1
5befe2ef7c38740001698b0e,63f3cfca20052e4ae7554ebf,6453cd67f2b29a4b012a8ec0,2023-05-04_17h21.36.704,ga_syllabified_check,2022.2.5,Win32,6.666888896,,,,,,,,,,,,,,./stim/p05_syllable_1_lliape_hit.wav,p05,lliape,hit,liai-pe,llia-pe,lli-a-pe, ,-0.41025641,-0.103076923,1,0,0,0.1349,text_option_1,,0,128,128,88,1
5befe2ef7c38740001698b0e,63f3cfca20052e4ae7554ebf,6453cd67f2b29a4b012a8ec0,2023-05-04_17h21.36.704,ga_syllabified_check,2022.2.5,Win32,6.666888896,,,,,,,,,,,,,,./stim/p03_syllable_1_palufauto_hit.wav,p03,palufauto,hit,pa-lu-fau,pa-lu-fau-to,pa-lu-fa-u-to, ,-0.405128205,-0.103076923,1,0,0,1.9612,text_option_1,,0,129,129,26,1
5befe2ef7c38740001698b0e,63f3cfca20052e4ae7554ebf,6453cd67f2b29a4b012a8ec0,2023-05-04_17h21.36.704,ga_syllabified_check,2022.2.5,Win32,6.666888896,,,,,,,,,,,,,,./stim/p03_syllable_1_lakafiaisto_hit.wav,p03,lakafiaisto,hit,la-ka-fiais-to,la-ka-fiais-to,la-ka-fi-ais-to,la-ka-fia-is-to,-0.395897436,-0.104102564,1,0,0,1.1139,text_option_1,,0,130,130,10,1
5befe2ef7c38740001698b0e,63f3cfca20052e4ae7554ebf,6453cd67f2b29a4b012a8ec0,2023-05-04_17h21.36.704,ga_syllabified_check,2022.2.5,Win32,6.666888896,,,,,,,,,,,,,,./stim/p05_syllable_1_faluduako_hit.wav,p05,faluduako,hit,fa-lu-ba-ko,fa-lu-dua-ko,fa-lu-du-a-ko, ,-0.430769231,-0.101025641,1,0,0,3.341,text_option_1,,0,131,131,70,1
5befe2ef7c38740001698b0e,63f3cfca20052e4ae7554ebf,6453cd67f2b29a4b012a8ec0,2023-05-04_17h21.36.704,ga_syllabified_check,2022.2.5,Win32,6.666888896,,,,,,,,,,,,,,./stim/p07_syllable_1_lakafiaisto_hit.wav,p07,lakafiaisto,hit,la-ka-fiais-to,la-ka-fiais-to,la-ka-fi-ais-to,la-ka-fia-is-to,-0.430769231,-0.101025641,1,0,0,0.916,text_option_1,,0,132,132,146,1
5befe2ef7c38740001698b0e,63f3cfca20052e4ae7554ebf,6453cd67f2b29a4b012a8ec0,2023-05-04_17h21.36.704,ga_syllabified_check,2022.2.5,Win32,6.666888896,,,,,,,,,,,,,,./stim/p07_syllable_1_lakaguaisto_hit.wav,p07,lakaguaisto,hit,la-ka-guais-to,la-ka-guais-to,la-ka-gu-ais-to,la-ka-gua-is-to,-0.436923077,-0.11025641,1,0,0,2.7173,text_option_1,,0,133,133,149,1
5befe2ef7c38740001698b0e,63f3cfca20052e4ae7554ebf,6453cd67f2b29a4b012a8ec0,2023-05-04_17h21.36.704,ga_syllabified_check,2022.2.5,Win32,6.666888896,,,,,,,,,,,,,,./stim/p04_syllable_1_flauro_hit.wav,p04,flauro,hit,flau-ro,flau-ro,fla-u-ro, ,-0.414358974,-0.103076923,1,0,0,0.4156,text_option_1,,0,134,134,39,1
5befe2ef7c38740001698b0e,63f3cfca20052e4ae7554ebf,6453cd67f2b29a4b012a8ec0,2023-05-04_17h21.36.704,ga_syllabified_check,2022.2.5,Win32,6.666888896,,,,,,,,,,,,,,./stim/p06_syllable_1_lakapuaisto_hit.wav,p06,lakapuaisto,hit,la-ka-pu-a-is,la-ka-puais-to,la-ka-pu-ais-to,la-ka-pua-is-to,0.4,-0.108205128,1,0,0,7.59,text_option_2,,0,135,135,119,1
5befe2ef7c38740001698b0e,63f3cfca20052e4ae7554ebf,6453cd67f2b29a4b012a8ec0,2023-05-04_17h21.36.704,ga_syllabified_check,2022.2.5,Win32,6.666888896,,,,,,,,,,,,,,./stim/p03_syllable_1_lakaduaisto_hit.wav,p03,lakaduaisto,hit,la-ka-duais-to,la-ka-duais-to,la-ka-du-ais-to,la-ka-dua-is-to,-0.408205128,-0.094871795,1,0,0,2.1956,text_option_1,,0,136,136,9,1
5befe2ef7c38740001698b0e,63f3cfca20052e4ae7554ebf,6453cd67f2b29a4b012a8ec0,2023-05-04_17h21.36.704,ga_syllabified_check,2022.2.5,Win32,6.666888896,,,,,,,,,,,,,,./stim/p07_syllable_1_lakatiaisto_hit.wav,p07,lakatiaisto,hit,la-ka-tiai-sto,la-ka-tiais-to,la-ka-ti-ais-to,la-ka-tia-is-to,-0.379487179,-0.105128205,1,0,0,3.3015,text_option_1,,0,137,137,154,1
5befe2ef7c38740001698b0e,63f3cfca20052e4ae7554ebf,6453cd67f2b29a4b012a8ec0,2023-05-04_17h21.36.704,ga_syllabified_check,2022.2.5,Win32,6.666888896,,,,,,,,,,,,,,./stim/p05_syllable_1_lakatiaisto_hit.wav,p05,lakatiaisto,hit,la-ka-ti-ais-to,la-ka-tiais-to,la-ka-ti-ais-to,la-ka-tia-is-to,-0.487179487,-0.108205128,1,0,0,4.2174,text_option_1,,0,138,138,86,1
5befe2ef7c38740001698b0e,63f3cfca20052e4ae7554ebf,6453cd67f2b29a4b012a8ec0,2023-05-04_17h21.36.704,ga_syllabified_check,2022.2.5,Win32,6.666888896,,,,,,,,,,,,,,./stim/p08_syllable_1_lakakuaisto_hit.wav,p08,lakakuaisto,hit,la-ka-ku-ais-to,la-ka-kuais-to,la-ka-ku-ais-to,la-ka-kua-is-to,0.372307692,-0.1,1,0,0,5.8345,text_option_2,,0,139,139,185,1
5befe2ef7c38740001698b0e,63f3cfca20052e4ae7554ebf,6453cd67f2b29a4b012a8ec0,2023-05-04_17h21.36.704,ga_syllabified_check,2022.2.5,Win32,6.666888896,,,,,,,,,,,,,,./stim/p08_syllable_1_palutrauco_hit.wav,p08,palutrauco,hit,pa-lu-trau-ko,pa-lu-trau-co,pa-lu-tra-u-co, ,-0.489230769,-0.103076923,1,0,0,3.97,text_option_1,,0,140,140,199,1
5befe2ef7c38740001698b0e,63f3cfca20052e4ae7554ebf,6453cd67f2b29a4b012a8ec0,2023-05-04_17h21.36.704,ga_syllabified_check,2022.2.5,Win32,6.666888896,,,,,,,,,,,,,,./stim/p08_syllable_1_lakadiaisto_hit.wav,p08,lakadiaisto,hit,la-ka-di-jas-to,la-ka-diais-to,la-ka-di-ais-to,la-ka-dia-is-to,0.432820513,-0.102051282,1,0,0,5.4113,text_option_2,,0,141,141,178,1
5befe2ef7c38740001698b0e,63f3cfca20052e4ae7554ebf,6453cd67f2b29a4b012a8ec0,2023-05-04_17h21.36.704,ga_syllabified_check,2022.2.5,Win32,6.666888896,,,,,,,,,,,,,,./stim/p03_syllable_1_rausto_hit.wav,p03,rausto,hit,raus-to,raus-to,ra-us-to, ,-0.374358974,-0.111282051,1,0,0,0.6927,text_option_1,,0,142,142,31,1
5befe2ef7c38740001698b0e,63f3cfca20052e4ae7554ebf,6453cd67f2b29a4b012a8ec0,2023-05-04_17h21.36.704,ga_syllabified_check,2022.2.5,Win32,6.666888896,,,,,,,,,,,,,,./stim/p08_syllable_1_lakafiaisto_hit.wav,p08,lakafiaisto,hit,la-ka-fi-as-to,la-ka-fiais-to,la-ka-fi-ais-to,la-ka-fia-is-to,0.397948718,-0.097948718,1,0,0,7.1318,text_option_2,,0,143,143,180,1
5befe2ef7c38740001698b0e,63f3cfca20052e4ae7554ebf,6453cd67f2b29a4b012a8ec0,2023-05-04_17h21.36.704,ga_syllabified_check,2022.2.5,Win32,6.666888896,,,,,,,,,,,,,,./stim/p07_syllable_1_palufauto_hit.wav,p07,palufauto,hit,pa-lu-fau-to,pa-lu-fau-to,pa-lu-fa-u-to, ,-0.396923077,-0.107179487,1,0,0,1.9865,text_option_1,,0,144,144,162,1
5befe2ef7c38740001698b0e,63f3cfca20052e4ae7554ebf,6453cd67f2b29a4b012a8ec0,2023-05-04_17h21.36.704,ga_syllabified_check,2022.2.5,Win32,6.666888896,,,,,,,,,,,,,,./stim/p08_syllable_1_paluguato_hit.wav,p08,paluguato,hit,pa-lu-gua-to,pa-lu-gua-to,pa-lu-gu-a-to, ,-0.401025641,-0.105128205,1,0,0,2.7426,text_option_1,,0,145,145,197,1
5befe2ef7c38740001698b0e,63f3cfca20052e4ae7554ebf,6453cd67f2b29a4b012a8ec0,2023-05-04_17h21.36.704,ga_syllabified_check,2022.2.5,Win32,6.666888896,,,,,,,,,,,,,,./stim/p06_syllable_1_lakatiaisto_hit.wav,p06,lakatiaisto,hit,la-ka-pia-is-to,la-ka-tiais-to,la-ka-ti-ais-to,la-ka-tia-is-to,0.002051282,-0.105128205,1,0,0,3.4464,text_option_3,,0,146,146,120,1
5befe2ef7c38740001698b0e,63f3cfca20052e4ae7554ebf,6453cd67f2b29a4b012a8ec0,2023-05-04_17h21.36.704,ga_syllabified_check,2022.2.5,Win32,6.666888896,,,,,,,,,,,,,,./stim/p03_syllable_1_nhiape_hit.wav,p03,ñiape,hit,nhia-pe,ñia-pe,ñi-a-pe, ,-0.412307692,-0.1,1,0,0,1.1013,text_option_1,,0,147,147,23,1
5befe2ef7c38740001698b0e,63f3cfca20052e4ae7554ebf,6453cd67f2b29a4b012a8ec0,2023-05-04_17h21.36.704,ga_syllabified_check,2022.2.5,Win32,6.666888896,,,,,,,,,,,,,,./stim/p08_syllable_1_flauro_hit.wav,p08,flauro,hit,flau-ro,flau-ro,fla-u-ro, ,-0.412307692,-0.1,1,0,0,0.5598,text_option_1,,0,148,148,175,1
5befe2ef7c38740001698b0e,63f3cfca20052e4ae7554ebf,6453cd67f2b29a4b012a8ec0,2023-05-04_17h21.36.704,ga_syllabified_check,2022.2.5,Win32,6.666888896,,,,,,,,,,,,,,./stim/p03_syllable_1_lakakiaisto_hit.wav,p03,lakakiaisto,hit,la-ka-kiais-to,la-ka-kiais-to,la-ka-ki-ais-to,la-ka-kia-is-to,-0.412307692,-0.1,1,0,0,3.4674,text_option_1,,0,149,149,14,1
5befe2ef7c38740001698b0e,63f3cfca20052e4ae7554ebf,6453cd67f2b29a4b012a8ec0,2023-05-04_17h21.36.704,ga_syllabified_check,2022.2.5,Win32,6.666888896,,,,,,,,,,,,,,./stim/p04_syllable_1_lakafuaisto_hit.wav,p04,lakafuaisto,hit,la-ka-fuais-to,la-ka-fuais-to,la-ka-fu-ais-to,la-ka-fua-is-to,-0.412307692,-0.1,1,0,0,0.4123,text_option_1,,0,150,150,45,1
5befe2ef7c38740001698b0e,63f3cfca20052e4ae7554ebf,6453cd67f2b29a4b012a8ec0,2023-05-04_17h21.36.704,ga_syllabified_check,2022.2.5,Win32,6.666888896,,,,,,,,,,,,,,./stim/p04_syllable_1_nhiape_hit.wav,p04,ñiape,hit,nhia-pe,ñia-pe,ñi-a-pe, ,-0.412307692,-0.1,1,0,0,0.9492,text_option_1,,0,151,151,57,1
5befe2ef7c38740001698b0e,63f3cfca20052e4ae7554ebf,6453cd67f2b29a4b012a8ec0,2023-05-04_17h21.36.704,ga_syllabified_check,2022.2.5,Win32,6.666888896,,,,,,,,,,,,,,./stim/p05_syllable_1_lakafuaisto_hit.wav,p05,lakafuaisto,hit,la-ka-fais-to,la-ka-fuais-to,la-ka-fu-ais-to,la-ka-fua-is-to,-0.41025641,-0.095897436,1,0,0,2.2088,text_option_1,,0,152,152,79,1
5befe2ef7c38740001698b0e,63f3cfca20052e4ae7554ebf,6453cd67f2b29a4b012a8ec0,2023-05-04_17h21.36.704,ga_syllabified_check,2022.2.5,Win32,6.666888896,,,,,,,,,,,,,,./stim/p06_syllable_1_costonhialo_hit.wav,p06,costoñialo,hit,cos-to-nhia-lo,cos-to-ñia-lo,cos-to-ñi-a-lo, ,-0.416410256,-0.095897436,1,0,0,6.0245,text_option_1,,0,153,153,103,1
5befe2ef7c38740001698b0e,63f3cfca20052e4ae7554ebf,6453cd67f2b29a4b012a8ec0,2023-05-04_17h21.36.704,ga_syllabified_check,2022.2.5,Win32,6.666888896,,,,,,,,,,,,,,./stim/p05_syllable_1_lakafiaisto_hit.wav,p05,lakafiaisto,hit,la-ka-fi-ais-to,la-ka-fiais-to,la-ka-fi-ais-to,la-ka-fia-is-to,0.387692308,-0.1,1,0,0,3.5313,text_option_2,,0,154,154,78,1
5befe2ef7c38740001698b0e,63f3cfca20052e4ae7554ebf,6453cd67f2b29a4b012a8ec0,2023-05-04_17h21.36.704,ga_syllabified_check,2022.2.5,Win32,6.666888896,,,,,,,,,,,,,,./stim/p03_syllable_1_lakagiaisto_hit.wav,p03,lakagiaisto,hit,la-ka-giais-to,la-ka-giais-to,la-ka-gi-ais-to,la-ka-gia-is-to,-0.337435897,-0.105128205,1,0,0,3.5232,text_option_1,,0,155,155,12,1
5befe2ef7c38740001698b0e,63f3cfca20052e4ae7554ebf,6453cd67f2b29a4b012a8ec0,2023-05-04_17h21.36.704,ga_syllabified_check,2022.2.5,Win32,6.666888896,,,,,,,,,,,,,,./stim/p08_syllable_1_lakakiaisto_hit.wav,p08,lakakiaisto,hit,la-ka-ki-jas-to,la-ka-kiais-to,la-ka-ki-ais-to,la-ka-kia-is-to,0.424615385,-0.098974359,1,0,0,4.1232,text_option_2,,0,156,156,184,1
5befe2ef7c38740001698b0e,63f3cfca20052e4ae7554ebf,6453cd67f2b29a4b012a8ec0,2023-05-04_17h21.36.704,ga_syllabified_check,2022.2.5,Win32,6.666888896,,,,,,,,,,,,,,./stim/p08_syllable_1_pachialo_hit.wav,p08,pachialo,hit,pa-chi-ja-lo,pa-chia-lo,pa-chi-a-lo, ,0.390769231,-0.098974359,1,0,0,2.4028,text_option_2,,0,157,157,194,1
5befe2ef7c38740001698b0e,63f3cfca20052e4ae7554ebf,6453cd67f2b29a4b012a8ec0,2023-05-04_17h21.36.704,ga_syllabified_check,2022.2.5,Win32,6.666888896,,,,,,,,,,,,,,./stim/p06_syllable_1_manhiala_hit.wav,p06,mañiala,hit,ma-nhi-a-la,ma-ñia-la,ma-ñi-a-la, ,0.391794872,-0.106153846,1,0,0,1.9076,text_option_2,,0,158,158,123,1
5befe2ef7c38740001698b0e,63f3cfca20052e4ae7554ebf,6453cd67f2b29a4b012a8ec0,2023-05-04_17h21.36.704,ga_syllabified_check,2022.2.5,Win32,6.666888896,,,,,,,,,,,,,,./stim/p03_syllable_1_falutraigo_hit.wav,p03,falutraigo,hit,fa-lu-trai-go,fa-lu-trai-go,fa-lu-tra-i-go, ,-0.388717949,-0.102051282,1,0,0,2.6055,text_option_1,,0,159,159,4,1
5befe2ef7c38740001698b0e,63f3cfca20052e4ae7554ebf,6453cd67f2b29a4b012a8ec0,2023-05-04_17h21.36.704,ga_syllabified_check,2022.2.5,Win32,6.666888896,,,,,,,,,,,,,,./stim/p08_syllable_1_lliape_hit.wav,p08,lliape,hit,li-a-pe,llia-pe,lli-a-pe, ,0.393846154,-0.091794872,1,0,0,1.0451,text_option_2,,0,160,160,190,1
5befe2ef7c38740001698b0e,63f3cfca20052e4ae7554ebf,6453cd67f2b29a4b012a8ec0,2023-05-04_17h21.36.704,ga_syllabified_check,2022.2.5,Win32,6.666888896,,,,,,,,,,,,,,./stim/p07_syllable_1_lakapuaisto_hit.wav,p07,lakapuaisto,hit,la-ka-puais-to,la-ka-puais-to,la-ka-pu-ais-to,la-ka-pua-is-to,-0.426666667,-0.102051282,1,0,0,2.6179,text_option_1,,0,161,161,153,1
5befe2ef7c38740001698b0e,63f3cfca20052e4ae7554ebf,6453cd67f2b29a4b012a8ec0,2023-05-04_17h21.36.704,ga_syllabified_check,2022.2.5,Win32,6.666888896,,,,,,,,,,,,,,./stim/p06_syllable_1_lakafuaisto_hit.wav,p06,lakafuaisto,hit,la-ka-fu-a-is,la-ka-fuais-to,la-ka-fu-ais-to,la-ka-fua-is-to,0.402051282,-0.106153846,1,0,0,3.7176,text_option_2,,0,162,162,113,1
5befe2ef7c38740001698b0e,63f3cfca20052e4ae7554ebf,6453cd67f2b29a4b012a8ec0,2023-05-04_17h21.36.704,ga_syllabified_check,2022.2.5,Win32,6.666888896,,,,,,,,,,,,,,./stim/p06_syllable_1_palufauro_hit.wav,p06,palufauro,hit,pa-lu-fau-ro,pa-lu-fau-ro,pa-lu-fa-u-ro, ,0.37025641,-0.092820513,1,0,0,3.414,text_option_2,,0,163,163,127,1
5befe2ef7c38740001698b0e,63f3cfca20052e4ae7554ebf,6453cd67f2b29a4b012a8ec0,2023-05-04_17h21.36.704,ga_syllabified_check,2022.2.5,Win32,6.666888896,,,,,,,,,,,,,,./stim/p08_syllable_1_faluduako_hit.wav,p08,faluduako,hit,fa-lu-duai-ko,fa-lu-dua-ko,fa-lu-du-a-ko, ,-0.403076923,-0.097948718,1,0,0,5.9744,text_option_1,,0,164,164,172,1
5befe2ef7c38740001698b0e,63f3cfca20052e4ae7554ebf,6453cd67f2b29a4b012a8ec0,2023-05-04_17h21.36.704,ga_syllabified_check,2022.2.5,Win32,6.666888896,,,,,,,,,,,,,,./stim/p07_syllable_1_tuliafo_hit.wav,p07,tuliafo,hit,tu-lia-fo,tu-lia-fo,tu-li-a-fo, ,-0.407179487,-0.096923077,1,0,0,3.0466,text_option_1,,0,165,165,169,1
5befe2ef7c38740001698b0e,63f3cfca20052e4ae7554ebf,6453cd67f2b29a4b012a8ec0,2023-05-04_17h21.36.704,ga_syllabified_check,2022.2.5,Win32,6.666888896,,,,,,,,,,,,,,./stim/p05_syllable_1_lakakiaisto_hit.wav,p05,lakakiaisto,hit,la-ka-ki-ais-to,la-ka-kiais-to,la-ka-ki-ais-to,la-ka-kia-is-to,-0.397948718,-0.097948718,1,0,0,1.266,text_option_1,,0,166,166,82,1
5befe2ef7c38740001698b0e,63f3cfca20052e4ae7554ebf,6453cd67f2b29a4b012a8ec0,2023-05-04_17h21.36.704,ga_syllabified_check,2022.2.5,Win32,6.666888896,,,,,,,,,,,,,,./stim/p07_syllable_1_nhiape_hit.wav,p07,ñiape,hit,nhia-pe,ñia-pe,ñi-a-pe, ,-0.414358974,-0.101025641,1,0,0,1.8266,text_option_1,,0,167,167,159,1
5befe2ef7c38740001698b0e,63f3cfca20052e4ae7554ebf,6453cd67f2b29a4b012a8ec0,2023-05-04_17h21.36.704,ga_syllabified_check,2022.2.5,Win32,6.666888896,,,,,,,,,,,,,,./stim/p07_syllable_1_faluduako_hit.wav,p07,faluduako,hit,fa-lu-dua-ko,fa-lu-dua-ko,fa-lu-du-a-ko, ,-0.373333333,-0.109230769,1,0,0,1.6718,text_option_1,,0,168,168,138,1
5befe2ef7c38740001698b0e,63f3cfca20052e4ae7554ebf,6453cd67f2b29a4b012a8ec0,2023-05-04_17h21.36.704,ga_syllabified_check,2022.2.5,Win32,6.666888896,,,,,,,,,,,,,,./stim/p04_syllable_1_mebochiana_hit.wav,p04,mebochiana,hit,me-bo-chia-na,me-bo-chia-na,me-bo-chi-a-na, ,-0.489230769,-0.098974359,1,0,0,1.9662,text_option_1,,0,169,169,56,1
5befe2ef7c38740001698b0e,63f3cfca20052e4ae7554ebf,6453cd67f2b29a4b012a8ec0,2023-05-04_17h21.36.704,ga_syllabified_check,2022.2.5,Win32,6.666888896,,,,,,,,,,,,,,./stim/p05_syllable_1_falutraigo_hit.wav,p05,falutraigo,hit,fa-lu-trai-go,fa-lu-trai-go,fa-lu-tra-i-go, ,-0.46974359,-0.097948718,1,0,0,0.2779,text_option_1,,0,170,170,72,1
5befe2ef7c38740001698b0e,63f3cfca20052e4ae7554ebf,6453cd67f2b29a4b012a8ec0,2023-05-04_17h21.36.704,ga_syllabified_check,2022.2.5,Win32,6.666888896,,,,,,,,,,,,,,./stim/p05_syllable_1_lakaduaisto_hit.wav,p05,lakaduaisto,hit,la-ka-dais-to,la-ka-duais-to,la-ka-du-ais-to,la-ka-dua-is-to,-0.451282051,-0.095897436,1,0,0,1.5617,text_option_1,,0,171,171,77,1
5befe2ef7c38740001698b0e,63f3cfca20052e4ae7554ebf,6453cd67f2b29a4b012a8ec0,2023-05-04_17h21.36.704,ga_syllabified_check,2022.2.5,Win32,6.666888896,,,,,,,,,,,,,,./stim/p05_syllable_1_payielo_hit.wav,p05,payielo,hit,pai-yu-we-lo,pa-yie-lo,pa-yi-e-lo, ,-0.458461538,-0.101025641,1,0,0,1.6438,text_option_1,,0,172,172,98,1
5befe2ef7c38740001698b0e,63f3cfca20052e4ae7554ebf,6453cd67f2b29a4b012a8ec0,2023-05-04_17h21.36.704,ga_syllabified_check,2022.2.5,Win32,6.666888896,,,,,,,,,,,,,,./stim/p08_syllable_1_lakagiaisto_hit.wav,p08,lakagiaisto,hit,la-ka-gi-jas-to,la-ka-giais-to,la-ka-gi-ais-to,la-ka-gia-is-to,0.449230769,-0.097948718,1,0,0,4.4345,text_option_2,,0,173,173,182,1
5befe2ef7c38740001698b0e,63f3cfca20052e4ae7554ebf,6453cd67f2b29a4b012a8ec0,2023-05-04_17h21.36.704,ga_syllabified_check,2022.2.5,Win32,6.666888896,,,,,,,,,,,,,,./stim/p06_syllable_1_lliape_hit.wav,p06,lliape,hit,lli-lla-pe,llia-pe,lli-a-pe, ,0.426666667,-0.098974359,1,0,0,1.2613,text_option_2,,0,174,174,122,1
5befe2ef7c38740001698b0e,63f3cfca20052e4ae7554ebf,6453cd67f2b29a4b012a8ec0,2023-05-04_17h21.36.704,ga_syllabified_check,2022.2.5,Win32,6.666888896,,,,,,,,,,,,,,./stim/p07_syllable_1_costonhialo_hit.wav,p07,costoñialo,hit,cos-to-nhia-lo,cos-to-ñia-lo,cos-to-ñi-a-lo, ,-0.388717949,-0.104102564,1,0,0,1.2793,text_option_1,,0,175,175,137,1
5befe2ef7c38740001698b0e,63f3cfca20052e4ae7554ebf,6453cd67f2b29a4b012a8ec0,2023-05-04_17h21.36.704,ga_syllabified_check,2022.2.5,Win32,6.666888896,,,,,,,,,,,,,,./stim/p07_syllable_1_lakabiaisto_hit.wav,p07,lakabiaisto,hit,la-ka-bais-to,la-ka-biais-to,la-ka-bi-ais-to,la-ka-bia-is-to,-0.388717949,-0.104102564,1,0,0,1.8494,text_option_1,,0,176,176,142,1
5befe2ef7c38740001698b0e,63f3cfca20052e4ae7554ebf,6453cd67f2b29a4b012a8ec0,2023-05-04_17h21.36.704,ga_syllabified_check,2022.2.5,Win32,6.666888896,,,,,,,,,,,,,,./stim/p08_syllable_1_lakabiaisto_hit.wav,p08,lakabiaisto,hit,la-ka-bi-as-to,la-ka-biais-to,la-ka-bi-ais-to,la-ka-bia-is-to,0.414358974,-0.11025641,1,0,0,3.2402,text_option_2,,0,177,177,176,1
5befe2ef7c38740001698b0e,63f3cfca20052e4ae7554ebf,6453cd67f2b29a4b012a8ec0,2023-05-04_17h21.36.704,ga_syllabified_check,2022.2.5,Win32,6.666888896,,,,,,,,,,,,,,./stim/p08_syllable_1_lakaguaisto_hit.wav,p08,lakaguaisto,hit,la-ka-gu-ais-to,la-ka-guais-to,la-ka-gu-ais-to,la-ka-gua-is-to,0.430769231,-0.108205128,1,0,0,3.0896,text_option_2,,0,178,178,183,1
5befe2ef7c38740001698b0e,63f3cfca20052e4ae7554ebf,6453cd67f2b29a4b012a8ec0,2023-05-04_17h21.36.704,ga_syllabified_check,2022.2.5,Win32,6.666888896,,,,,,,,,,,,,,./stim/p04_syllable_1_payielo_hit.wav,p04,payielo,hit,pa-yie-lo,pa-yie-lo,pa-yi-e-lo, ,-0.384615385,-0.092820513,1,0,0,0.5606,text_option_1,,0,179,179,64,1
5befe2ef7c38740001698b0e,63f3cfca20052e4ae7554ebf,6453cd67f2b29a4b012a8ec0,2023-05-04_17h21.36.704,ga_syllabified_check,2022.2.5,Win32,6.666888896,,,,,,,,,,,,,,./stim/p03_syllable_1_lakatuaisto_hit.wav,p03,lakatuaisto,hit,la-ka-tuais-to,la-ka-tuais-to,la-ka-tu-ais-to,la-ka-tua-is-to,-0.361025641,-0.1,1,0,0,0.9916,text_option_1,,0,180,180,19,1
5befe2ef7c38740001698b0e,63f3cfca20052e4ae7554ebf,6453cd67f2b29a4b012a8ec0,2023-05-04_17h21.36.704,ga_syllabified_check,2022.2.5,Win32,6.666888896,,,,,,,,,,,,,,./stim/p06_syllable_1_lakatuaisto_hit.wav,p06,lakatuaisto,hit,la-ka-tu-a-is,la-ka-tuais-to,la-ka-tu-ais-to,la-ka-tua-is-to,0.016410256,-0.107179487,1,0,0,7.5603,text_option_3,,0,181,181,121,1
5befe2ef7c38740001698b0e,63f3cfca20052e4ae7554ebf,6453cd67f2b29a4b012a8ec0,2023-05-04_17h21.36.704,ga_syllabified_check,2022.2.5,Win32,6.666888896,,,,,,,,,,,,,,./stim/p08_syllable_1_lakatiaisto_hit.wav,p08,lakatiaisto,hit,la-ka-ti-as-to,la-ka-tiais-to,la-ka-ti-ais-to,la-ka-tia-is-to,0.423589744,-0.079487179,1,0,0,5.3128,text_option_2,,0,182,182,188,1
5befe2ef7c38740001698b0e,63f3cfca20052e4ae7554ebf,6453cd67f2b29a4b012a8ec0,2023-05-04_17h21.36.704,ga_syllabified_check,2022.2.5,Win32,6.666888896,,,,,,,,,,,,,,./stim/p03_syllable_1_faluduako_hit.wav,p03,faluduako,hit,fa-lu-dua-ko,fa-lu-dua-ko,fa-lu-du-a-ko, ,-0.44,-0.106153846,1,0,0,2.2701,text_option_1,,0,183,183,2,1
5befe2ef7c38740001698b0e,63f3cfca20052e4ae7554ebf,6453cd67f2b29a4b012a8ec0,2023-05-04_17h21.36.704,ga_syllabified_check,2022.2.5,Win32,6.666888896,,,,,,,,,,,,,,./stim/p03_syllable_1_costonhialo_hit.wav,p03,costoñialo,hit,cos-to-nhia-lo,cos-to-ñia-lo,cos-to-ñi-a-lo, ,-0.373333333,-0.095897436,1,0,0,6.5523,text_option_1,,0,184,184,1,1
5befe2ef7c38740001698b0e,63f3cfca20052e4ae7554ebf,6453cd67f2b29a4b012a8ec0,2023-05-04_17h21.36.704,ga_syllabified_check,2022.2.5,Win32,6.666888896,,,,,,,,,,,,,,./stim/p04_syllable_1_palumaisto_hit.wav,p04,palumaisto,hit,pa-lu-mais-to,pa-lu-mais-to,pa-lu-ma-is-to, ,-0.373333333,-0.095897436,1,0,0,1.7809,text_option_1,,0,185,185,62,1
5befe2ef7c38740001698b0e,63f3cfca20052e4ae7554ebf,6453cd67f2b29a4b012a8ec0,2023-05-04_17h21.36.704,ga_syllabified_check,2022.2.5,Win32,6.666888896,,,,,,,,,,,,,,./stim/p05_syllable_1_lakapiaisto_hit.wav,p05,lakapiaisto,hit,la-ka-pais-to,la-ka-piais-to,la-ka-pi-ais-to,la-ka-pia-is-to,-0.373333333,-0.095897436,1,0,0,3.0457,text_option_1,,0,186,186,84,1
5befe2ef7c38740001698b0e,63f3cfca20052e4ae7554ebf,6453cd67f2b29a4b012a8ec0,2023-05-04_17h21.36.704,ga_syllabified_check,2022.2.5,Win32,6.666888896,,,,,,,,,,,,,,./stim/p06_syllable_1_flauro_hit.wav,p06,flauro,hit,fla-u-ro,flau-ro,fla-u-ro, ,0.402051282,-0.109230769,1,0,0,0.8306,text_option_2,,0,187,187,107,1
5befe2ef7c38740001698b0e,63f3cfca20052e4ae7554ebf,6453cd67f2b29a4b012a8ec0,2023-05-04_17h21.36.704,ga_syllabified_check,2022.2.5,Win32,6.666888896,,,,,,,,,,,,,,./stim/p08_syllable_1_tuliafo_hit.wav,p08,tuliafo,hit,tu-li-a-fo,tu-lia-fo,tu-li-a-fo, ,0.427692308,-0.103076923,1,0,0,1.6545,text_option_2,,0,188,188,203,1
5befe2ef7c38740001698b0e,63f3cfca20052e4ae7554ebf,6453cd67f2b29a4b012a8ec0,2023-05-04_17h21.36.704,ga_syllabified_check,2022.2.5,Win32,6.666888896,,,,,,,,,,,,,,./stim/p05_syllable_1_flauro_hit.wav,p05,flauro,hit,fa-lu-ro,flau-ro,fla-u-ro, ,0.003076923,-0.3,1,0,0,3.1855,text_option_other,fa-lu-ro,0,189,189,73,1
5befe2ef7c38740001698b0e,63f3cfca20052e4ae7554ebf,6453cd67f2b29a4b012a8ec0,2023-05-04_17h21.36.704,ga_syllabified_check,2022.2.5,Win32,6.666888896,,,,,,,,,,,,,,./stim/p07_syllable_1_manhiala_hit.wav,p07,mañiala,hit,ma-nhia-la,ma-ñia-la,ma-ñi-a-la, ,-0.426666667,-0.095897436,1,0,0,0.5824,text_option_1,,0,190,190,157,1
5befe2ef7c38740001698b0e,63f3cfca20052e4ae7554ebf,6453cd67f2b29a4b012a8ec0,2023-05-04_17h21.36.704,ga_syllabified_check,2022.2.5,Win32,6.666888896,,,,,,,,,,,,,,./stim/p06_syllable_1_lakaguaisto_hit.wav,p06,lakaguaisto,hit,la-ka-gu-a-is,la-ka-guais-to,la-ka-gu-ais-to,la-ka-gua-is-to,0.418461538,-0.104102564,1,0,0,6.194,text_option_2,,0,191,191,115,1
5befe2ef7c38740001698b0e,63f3cfca20052e4ae7554ebf,6453cd67f2b29a4b012a8ec0,2023-05-04_17h21.36.704,ga_syllabified_check,2022.2.5,Win32,6.666888896,,,,,,,,,,,,,,./stim/p06_syllable_1_payielo_hit.wav,p06,payielo,hit,pa-yi-e-lo,pa-yie-lo,pa-yi-e-lo, ,0.354871795,-0.104102564,1,0,0,1.8505,text_option_2,,0,192,192,132,1
5befe2ef7c38740001698b0e,63f3cfca20052e4ae7554ebf,6453cd67f2b29a4b012a8ec0,2023-05-04_17h21.36.704,ga_syllabified_check,2022.2.5,Win32,6.666888896,,,,,,,,,,,,,,./stim/p04_syllable_1_pachialo_hit.wav,p04,pachialo,hit,pa-chia-lo,pa-chia-lo,pa-chi-a-lo, ,-0.445128205,-0.118461538,1,0,0,0.4418,text_option_1,,0,193,193,58,1
5befe2ef7c38740001698b0e,63f3cfca20052e4ae7554ebf,6453cd67f2b29a4b012a8ec0,2023-05-04_17h21.36.704,ga_syllabified_check,2022.2.5,Win32,6.666888896,,,,,,,,,,,,,,./stim/p07_syllable_1_mebochiana_hit.wav,p07,mebochiana,hit,me-bo-chia-na,me-bo-chia-na,me-bo-chi-a-na, ,-0.383589744,-0.102051282,1,0,0,2.2212,text_option_1,,0,194,194,158,1
5befe2ef7c38740001698b0e,63f3cfca20052e4ae7554ebf,6453cd67f2b29a4b012a8ec0,2023-05-04_17h21.36.704,ga_syllabified_check,2022.2.5,Win32,6.666888896,,,,,,,,,,,,,,./stim/p05_syllable_1_tuliafo_hit.wav,p05,tuliafo,hit,tu-lai-fo,tu-lia-fo,tu-li-a-fo, ,-0.413333333,-0.091794872,1,0,0,2.0949,text_option_1,,0,195,195,101,1
5befe2ef7c38740001698b0e,63f3cfca20052e4ae7554ebf,6453cd67f2b29a4b012a8ec0,2023-05-04_17h21.36.704,ga_syllabified_check,2022.2.5,Win32,6.666888896,,,,,,,,,,,,,,./stim/p05_syllable_1_manhiala_hit.wav,p05,mañiala,hit,ma-nhia-la,ma-ñia-la,ma-ñi-a-la, ,-0.38974359,-0.098974359,1,0,0,1.094,text_option_1,,0,196,196,89,1
5befe2ef7c38740001698b0e,63f3cfca20052e4ae7554ebf,6453cd67f2b29a4b012a8ec0,2023-05-04_17h21.36.704,ga_syllabified_check,2022.2.5,Win32,6.666888896,,,,,,,,,,,,,,./stim/p07_syllable_1_lakagiaisto_hit.wav,p07,lakagiaisto,hit,la-ka-gais-to,la-ka-giais-to,la-ka-gi-ais-to,la-ka-gia-is-to,-0.38974359,-0.098974359,1,0,0,1.366,text_option_1,,0,197,197,148,1
5befe2ef7c38740001698b0e,63f3cfca20052e4ae7554ebf,6453cd67f2b29a4b012a8ec0,2023-05-04_17h21.36.704,ga_syllabified_check,2022.2.5,Win32,6.666888896,,,,,,,,,,,,,,./stim/p05_syllable_1_falufaisto_hit.wav,p05,falufaisto,hit,fa-lu-fais-to,fa-lu-fais-to,fa-lu-fa-is-to, ,-0.454358974,-0.102051282,1,0,0,2.2166,text_option_1,,0,198,198,71,1
5befe2ef7c38740001698b0e,63f3cfca20052e4ae7554ebf,6453cd67f2b29a4b012a8ec0,2023-05-04_17h21.36.704,ga_syllabified_check,2022.2.5,Win32,6.666888896,,,,,,,,,,,,,,./stim/p07_syllable_1_palutrauco_hit.wav,p07,palutrauco,hit,pa-lu-trau-co,pa-lu-trau-co,pa-lu-tra-u-co, ,-0.454358974,-0.102051282,1,0,0,0.675,text_option_1,,0,199,199,165,1
5befe2ef7c38740001698b0e,63f3cfca20052e4ae7554ebf,6453cd67f2b29a4b012a8ec0,2023-05-04_17h21.36.704,ga_syllabified_check,2022.2.5,Win32,6.666888896,,,,,,,,,,,,,,./stim/p03_syllable_1_pachialo_hit.wav,p03,pachialo,hit,pa-chia-lo,pa-chia-lo,pa-chi-a-lo, ,-0.401025641,-0.098974359,1,0,0,2.1742,text_option_1,,0,200,200,24,1
5befe2ef7c38740001698b0e,63f3cfca20052e4ae7554ebf,6453cd67f2b29a4b012a8ec0,2023-05-04_17h21.36.704,ga_syllabified_check,2022.2.5,Win32,6.666888896,,,,,,,,,,,,,,./stim/p06_syllable_1_ruyiola_hit.wav,p06,ruyiola,hit,ru-yi-o-la,ru-yio-la,ru-yi-o-la, ,0.420512821,-0.109230769,1,0,0,0.8472,text_option_2,,0,201,201,134,1
5befe2ef7c38740001698b0e,63f3cfca20052e4ae7554ebf,6453cd67f2b29a4b012a8ec0,2023-05-04_17h21.36.704,ga_syllabified_check,2022.2.5,Win32,6.666888896,,,,,,,,,,,,,,./stim/p04_syllable_1_falutraigo_hit.wav,p04,falutraigo,hit,fa-lu-trai-go,fa-lu-trai-go,fa-lu-tra-i-go, ,-0.418461538,-0.097948718,1,0,0,0.4317,text_option_1,,0,202,202,38,1
5befe2ef7c38740001698b0e,63f3cfca20052e4ae7554ebf,6453cd67f2b29a4b012a8ec0,2023-05-04_17h21.36.704,ga_syllabified_check,2022.2.5,Win32,6.666888896,,,,,,,,,,,,,,./stim/p03_syllable_1_payielo_hit.wav,p03,payielo,hit,pa-yie-lo,pa-yie-lo,pa-yi-e-lo, ,-0.408205128,-0.097948718,1,0,0,1.2357,text_option_1,,0,203,203,30,1
5befe2ef7c38740001698b0e,63f3cfca20052e4ae7554ebf,6453cd67f2b29a4b012a8ec0,2023-05-04_17h21.36.704,ga_syllabified_check,2022.2.5,Win32,6.666888896,,,,,,,,,,,,,,,,,,,,,,,,,,,,,,,,,,
