participant,study,session,date,expName,psychopyVersion,OS,frameRate,mouse_practice.x,mouse_practice.y,mouse_practice.leftButton,mouse_practice.midButton,mouse_practice.rightButton,mouse_practice.time,mouse_practice.clicked_name,textbox_followup_practice.text,trials_practice.thisRepN,trials_practice.thisTrialN,trials_practice.thisN,trials_practice.thisIndex,trials_practice.ran,file_path,id,item,status,response,op1,op2,op3,mouse.x,mouse.y,mouse.leftButton,mouse.midButton,mouse.rightButton,mouse.time,mouse.clicked_name,textbox_followup.text,trials.thisRepN,trials.thisTrialN,trials.thisN,trials.thisIndex,trials.ran
5bef1e56c19fcd0001cdf4c7,63f3cfca20052e4ae7554ebf,6453cc782d5b5b11b2d8b5cd,2023-05-04_17h18.09.122,ga_syllabified_check,2022.2.5,Win32,60.40471157,,,,,,,,,,,,,,,,,,,,,,,,,,,,,,,,,,
5bef1e56c19fcd0001cdf4c7,63f3cfca20052e4ae7554ebf,6453cc782d5b5b11b2d8b5cd,2023-05-04_17h18.09.122,ga_syllabified_check,2022.2.5,Win32,60.40471157,0.009114583,-0.309895833,1,0,0,4.6158,text_option_other_practice,le amo,0,0,0,0,1,./stim/p03_syllable_1_liamo_hit.wav,p03,liamo,hit,lia-mo,lia-mo,li-a-mo, ,,,,,,,,,,,,,
5bef1e56c19fcd0001cdf4c7,63f3cfca20052e4ae7554ebf,6453cc782d5b5b11b2d8b5cd,2023-05-04_17h18.09.122,ga_syllabified_check,2022.2.5,Win32,60.40471157,-0.385416667,-0.096354167,1,0,0,2.3167,text_option_1_practice,,0,1,1,1,1,./stim/p05_syllable_1_matio_hit.wav,p05,matio,hit,ma-tio,ma-tio,ma-ti-o, ,,,,,,,,,,,,,
5bef1e56c19fcd0001cdf4c7,63f3cfca20052e4ae7554ebf,6453cc782d5b5b11b2d8b5cd,2023-05-04_17h18.09.122,ga_syllabified_check,2022.2.5,Win32,60.40471157,-0.381510417,-0.10546875,1,0,0,3.4164,text_option_1_practice,,0,2,2,2,1,./stim/p08_syllable_1_liamo_hit.wav,p08,liamo,hit,ja-mo,lia-mo,li-a-mo, ,,,,,,,,,,,,,
5bef1e56c19fcd0001cdf4c7,63f3cfca20052e4ae7554ebf,6453cc782d5b5b11b2d8b5cd,2023-05-04_17h18.09.122,ga_syllabified_check,2022.2.5,Win32,60.40471157,,,,,,,,,,,,,,,,,,,,,,,,,,,,,,,,,,
5bef1e56c19fcd0001cdf4c7,63f3cfca20052e4ae7554ebf,6453cc782d5b5b11b2d8b5cd,2023-05-04_17h18.09.122,ga_syllabified_check,2022.2.5,Win32,60.40471157,,,,,,,,,,,,,,./stim/p07_syllable_1_lakagiaisto_hit.wav,p07,lakagiaisto,hit,la-ka-gais-to,la-ka-giais-to,la-ka-gi-ais-to,la-ka-gia-is-to,-0.361979167,-0.1015625,1,0,0,4.285,text_option_1,,0,0,0,148,1
5bef1e56c19fcd0001cdf4c7,63f3cfca20052e4ae7554ebf,6453cc782d5b5b11b2d8b5cd,2023-05-04_17h18.09.122,ga_syllabified_check,2022.2.5,Win32,60.40471157,,,,,,,,,,,,,,./stim/p08_syllable_1_flauro_hit.wav,p08,flauro,hit,flau-ro,flau-ro,fla-u-ro, ,-0.430989583,-0.1015625,1,0,0,1.1506,text_option_1,,0,1,1,175,1
5bef1e56c19fcd0001cdf4c7,63f3cfca20052e4ae7554ebf,6453cc782d5b5b11b2d8b5cd,2023-05-04_17h18.09.122,ga_syllabified_check,2022.2.5,Win32,60.40471157,,,,,,,,,,,,,,./stim/p06_syllable_1_lakaduaisto_hit.wav,p06,lakaduaisto,hit,la-ka-du-a-is,la-ka-duais-to,la-ka-du-ais-to,la-ka-dua-is-to,0.459635417,-0.110677083,1,0,0,3.7992,text_option_2,,0,2,2,111,1
5bef1e56c19fcd0001cdf4c7,63f3cfca20052e4ae7554ebf,6453cc782d5b5b11b2d8b5cd,2023-05-04_17h18.09.122,ga_syllabified_check,2022.2.5,Win32,60.40471157,,,,,,,,,,,,,,./stim/p06_syllable_1_lakadiaisto_hit.wav,p06,lakadiaisto,hit,la-ka-dia-is-to,la-ka-diais-to,la-ka-di-ais-to,la-ka-dia-is-to,0.0546875,-0.096354167,1,0,0,3.5492,text_option_3,,0,3,3,110,1
5bef1e56c19fcd0001cdf4c7,63f3cfca20052e4ae7554ebf,6453cc782d5b5b11b2d8b5cd,2023-05-04_17h18.09.122,ga_syllabified_check,2022.2.5,Win32,60.40471157,,,,,,,,,,,,,,./stim/p08_syllable_1_palutrauco_hit.wav,p08,palutrauco,hit,pa-lu-trau-ko,pa-lu-trau-co,pa-lu-tra-u-co, ,-0.4375,-0.115885417,1,0,0,3.3973,text_option_1,,0,4,4,199,1
5bef1e56c19fcd0001cdf4c7,63f3cfca20052e4ae7554ebf,6453cc782d5b5b11b2d8b5cd,2023-05-04_17h18.09.122,ga_syllabified_check,2022.2.5,Win32,60.40471157,,,,,,,,,,,,,,./stim/p08_syllable_1_palufauto_hit.wav,p08,palufauto,hit,pa-lu-fau-to,pa-lu-fau-to,pa-lu-fa-u-to, ,-0.31640625,-0.091145833,1,0,0,3.3319,text_option_1,,0,5,5,196,1
5bef1e56c19fcd0001cdf4c7,63f3cfca20052e4ae7554ebf,6453cc782d5b5b11b2d8b5cd,2023-05-04_17h18.09.122,ga_syllabified_check,2022.2.5,Win32,60.40471157,,,,,,,,,,,,,,./stim/p04_syllable_1_falufaisto_hit.wav,p04,falufaisto,hit,fa-lu-fais-to,fa-lu-fais-to,fa-lu-fa-is-to, ,-0.337239583,-0.111979167,1,0,0,1.5999,text_option_1,,0,6,6,37,1
5bef1e56c19fcd0001cdf4c7,63f3cfca20052e4ae7554ebf,6453cc782d5b5b11b2d8b5cd,2023-05-04_17h18.09.122,ga_syllabified_check,2022.2.5,Win32,60.40471157,,,,,,,,,,,,,,./stim/p08_syllable_1_lakabuaisto_hit.wav,p08,lakabuaisto,hit,la-ka-bu-ais-to,la-ka-buais-to,la-ka-bu-ais-to,la-ka-bua-is-to,-0.33984375,-0.106770833,1,0,0,3.5834,text_option_1,,0,7,7,177,1
5bef1e56c19fcd0001cdf4c7,63f3cfca20052e4ae7554ebf,6453cc782d5b5b11b2d8b5cd,2023-05-04_17h18.09.122,ga_syllabified_check,2022.2.5,Win32,60.40471157,,,,,,,,,,,,,,./stim/p07_syllable_1_lakaduaisto_hit.wav,p07,lakaduaisto,hit,la-ka-duais-to,la-ka-duais-to,la-ka-du-ais-to,la-ka-dua-is-to,-0.391927083,-0.08984375,1,0,0,3.366,text_option_1,,0,8,8,145,1
5bef1e56c19fcd0001cdf4c7,63f3cfca20052e4ae7554ebf,6453cc782d5b5b11b2d8b5cd,2023-05-04_17h18.09.122,ga_syllabified_check,2022.2.5,Win32,60.40471157,,,,,,,,,,,,,,./stim/p08_syllable_1_palumaisto_hit.wav,p08,palumaisto,hit,pa-lu-mais-to,pa-lu-mais-to,pa-lu-ma-is-to, ,-0.391927083,-0.08984375,1,0,0,3.0497,text_option_1,,0,9,9,198,1
5bef1e56c19fcd0001cdf4c7,63f3cfca20052e4ae7554ebf,6453cc782d5b5b11b2d8b5cd,2023-05-04_17h18.09.122,ga_syllabified_check,2022.2.5,Win32,60.40471157,,,,,,,,,,,,,,./stim/p05_syllable_1_palufauro_hit.wav,p05,palufauro,hit,pa-lu-fau-ro,pa-lu-fau-ro,pa-lu-fa-u-ro, ,-0.34765625,-0.11328125,1,0,0,1.2833,text_option_1,,0,10,10,93,1
5bef1e56c19fcd0001cdf4c7,63f3cfca20052e4ae7554ebf,6453cc782d5b5b11b2d8b5cd,2023-05-04_17h18.09.122,ga_syllabified_check,2022.2.5,Win32,60.40471157,,,,,,,,,,,,,,./stim/p03_syllable_1_palumaisto_hit.wav,p03,palumaisto,hit,pa-lu-mais-to,pa-lu-mais-to,pa-lu-ma-is-to, ,-0.33203125,-0.106770833,1,0,0,1.9325,text_option_1,,0,11,11,28,1
5bef1e56c19fcd0001cdf4c7,63f3cfca20052e4ae7554ebf,6453cc782d5b5b11b2d8b5cd,2023-05-04_17h18.09.122,ga_syllabified_check,2022.2.5,Win32,60.40471157,,,,,,,,,,,,,,./stim/p07_syllable_1_rausto_hit.wav,p07,rausto,hit,raus-to,raus-to,ra-us-to, ,-0.38671875,-0.088541667,1,0,0,1.5331,text_option_1,,0,12,12,167,1
5bef1e56c19fcd0001cdf4c7,63f3cfca20052e4ae7554ebf,6453cc782d5b5b11b2d8b5cd,2023-05-04_17h18.09.122,ga_syllabified_check,2022.2.5,Win32,60.40471157,,,,,,,,,,,,,,./stim/p07_syllable_1_pachialo_hit.wav,p07,pachialo,hit,pa-cha-lo,pa-chia-lo,pa-chi-a-lo, ,-0.37109375,-0.096354167,1,0,0,2.1327,text_option_1,,0,13,13,160,1
5bef1e56c19fcd0001cdf4c7,63f3cfca20052e4ae7554ebf,6453cc782d5b5b11b2d8b5cd,2023-05-04_17h18.09.122,ga_syllabified_check,2022.2.5,Win32,60.40471157,,,,,,,,,,,,,,./stim/p04_syllable_1_palumaisto_hit.wav,p04,palumaisto,hit,pa-lu-mais-to,pa-lu-mais-to,pa-lu-ma-is-to, ,-0.291666667,-0.106770833,1,0,0,2.4537,text_option_1,,0,14,14,62,1
5bef1e56c19fcd0001cdf4c7,63f3cfca20052e4ae7554ebf,6453cc782d5b5b11b2d8b5cd,2023-05-04_17h18.09.122,ga_syllabified_check,2022.2.5,Win32,60.40471157,,,,,,,,,,,,,,./stim/p04_syllable_1_nhiape_hit.wav,p04,ñiape,hit,nhia-pe,ñia-pe,ñi-a-pe, ,-0.384114583,-0.098958333,1,0,0,0.9007,text_option_1,,0,15,15,57,1
5bef1e56c19fcd0001cdf4c7,63f3cfca20052e4ae7554ebf,6453cc782d5b5b11b2d8b5cd,2023-05-04_17h18.09.122,ga_syllabified_check,2022.2.5,Win32,60.40471157,,,,,,,,,,,,,,./stim/p08_syllable_1_lliape_hit.wav,p08,lliape,hit,li-a-pe,llia-pe,lli-a-pe, ,0.373697917,-0.115885417,1,0,0,2.7999,text_option_2,,0,16,16,190,1
5bef1e56c19fcd0001cdf4c7,63f3cfca20052e4ae7554ebf,6453cc782d5b5b11b2d8b5cd,2023-05-04_17h18.09.122,ga_syllabified_check,2022.2.5,Win32,60.40471157,,,,,,,,,,,,,,./stim/p07_syllable_1_lakabiaisto_hit.wav,p07,lakabiaisto,hit,la-ka-bais-to,la-ka-biais-to,la-ka-bi-ais-to,la-ka-bia-is-to,-0.368489583,-0.108072917,1,0,0,3.8827,text_option_1,,0,17,17,142,1
5bef1e56c19fcd0001cdf4c7,63f3cfca20052e4ae7554ebf,6453cc782d5b5b11b2d8b5cd,2023-05-04_17h18.09.122,ga_syllabified_check,2022.2.5,Win32,60.40471157,,,,,,,,,,,,,,./stim/p03_syllable_1_falufaisto_hit.wav,p03,falufaisto,hit,fa-lu-fais-to,fa-lu-fais-to,fa-lu-fa-is-to, ,-0.342447917,-0.118489583,1,0,0,1.8662,text_option_1,,0,18,18,3,1
5bef1e56c19fcd0001cdf4c7,63f3cfca20052e4ae7554ebf,6453cc782d5b5b11b2d8b5cd,2023-05-04_17h18.09.122,ga_syllabified_check,2022.2.5,Win32,60.40471157,,,,,,,,,,,,,,./stim/p06_syllable_1_rausto_hit.wav,p06,rausto,hit,ra-us-to,raus-to,ra-us-to, ,0.380208333,-0.106770833,1,0,0,1.7499,text_option_2,,0,19,19,133,1
5bef1e56c19fcd0001cdf4c7,63f3cfca20052e4ae7554ebf,6453cc782d5b5b11b2d8b5cd,2023-05-04_17h18.09.122,ga_syllabified_check,2022.2.5,Win32,60.40471157,,,,,,,,,,,,,,./stim/p08_syllable_1_lakadiaisto_hit.wav,p08,lakadiaisto,hit,la-ka-di-jas-to,la-ka-diais-to,la-ka-di-ais-to,la-ka-dia-is-to,-0.39453125,-0.088541667,1,0,0,7.5655,text_option_1,,0,20,20,178,1
5bef1e56c19fcd0001cdf4c7,63f3cfca20052e4ae7554ebf,6453cc782d5b5b11b2d8b5cd,2023-05-04_17h18.09.122,ga_syllabified_check,2022.2.5,Win32,60.40471157,,,,,,,,,,,,,,./stim/p03_syllable_1_faluduako_hit.wav,p03,faluduako,hit,fa-lu-dua-ko,fa-lu-dua-ko,fa-lu-du-a-ko, ,-0.341145833,-0.106770833,1,0,0,3.166,text_option_1,,0,21,21,2,1
5bef1e56c19fcd0001cdf4c7,63f3cfca20052e4ae7554ebf,6453cc782d5b5b11b2d8b5cd,2023-05-04_17h18.09.122,ga_syllabified_check,2022.2.5,Win32,60.40471157,,,,,,,,,,,,,,./stim/p03_syllable_1_flauro_hit.wav,p03,flauro,hit,flau-ro,flau-ro,fla-u-ro, ,-0.43359375,-0.0859375,1,0,0,1.3722,text_option_1,,0,22,22,5,1
5bef1e56c19fcd0001cdf4c7,63f3cfca20052e4ae7554ebf,6453cc782d5b5b11b2d8b5cd,2023-05-04_17h18.09.122,ga_syllabified_check,2022.2.5,Win32,60.40471157,,,,,,,,,,,,,,./stim/p04_syllable_1_lakaguaisto_hit.wav,p04,lakaguaisto,hit,la-ka-guais-to,la-ka-guais-to,la-ka-gu-ais-to,la-ka-gua-is-to,-0.303385417,-0.102864583,1,0,0,2.0168,text_option_1,,0,23,23,47,1
5bef1e56c19fcd0001cdf4c7,63f3cfca20052e4ae7554ebf,6453cc782d5b5b11b2d8b5cd,2023-05-04_17h18.09.122,ga_syllabified_check,2022.2.5,Win32,60.40471157,,,,,,,,,,,,,,./stim/p08_syllable_1_palufauro_hit.wav,p08,palufauro,hit,pa-lu-fau-ro,pa-lu-fau-ro,pa-lu-fa-u-ro, ,-0.337239583,-0.102864583,1,0,0,5.0997,text_option_1,,0,24,24,195,1
5bef1e56c19fcd0001cdf4c7,63f3cfca20052e4ae7554ebf,6453cc782d5b5b11b2d8b5cd,2023-05-04_17h18.09.122,ga_syllabified_check,2022.2.5,Win32,60.40471157,,,,,,,,,,,,,,./stim/p03_syllable_1_mebochiana_hit.wav,p03,mebochiana,hit,me-bo-chia-na,me-bo-chia-na,me-bo-chi-a-na, ,-0.337239583,-0.102864583,1,0,0,2.8836,text_option_1,,0,25,25,22,1
5bef1e56c19fcd0001cdf4c7,63f3cfca20052e4ae7554ebf,6453cc782d5b5b11b2d8b5cd,2023-05-04_17h18.09.122,ga_syllabified_check,2022.2.5,Win32,60.40471157,,,,,,,,,,,,,,./stim/p07_syllable_1_lakatuaisto_hit.wav,p07,lakatuaisto,hit,la-ka-tuais-to,la-ka-tuais-to,la-ka-tu-ais-to,la-ka-tua-is-to,-0.328125,-0.10546875,1,0,0,3.3998,text_option_1,,0,26,26,155,1
5bef1e56c19fcd0001cdf4c7,63f3cfca20052e4ae7554ebf,6453cc782d5b5b11b2d8b5cd,2023-05-04_17h18.09.122,ga_syllabified_check,2022.2.5,Win32,60.40471157,,,,,,,,,,,,,,./stim/p06_syllable_1_lliape_hit.wav,p06,lliape,hit,lli-lla-pe,llia-pe,lli-a-pe, ,0.356770833,-0.088541667,1,0,0,1.0155,text_option_2,,0,27,27,122,1
5bef1e56c19fcd0001cdf4c7,63f3cfca20052e4ae7554ebf,6453cc782d5b5b11b2d8b5cd,2023-05-04_17h18.09.122,ga_syllabified_check,2022.2.5,Win32,60.40471157,,,,,,,,,,,,,,./stim/p08_syllable_1_lakafuaisto_hit.wav,p08,lakafuaisto,hit,la-ka-fju-ais-to,la-ka-fuais-to,la-ka-fu-ais-to,la-ka-fua-is-to,0.040364583,-0.106770833,1,0,0,3.336,text_option_3,,0,28,28,181,1
5bef1e56c19fcd0001cdf4c7,63f3cfca20052e4ae7554ebf,6453cc782d5b5b11b2d8b5cd,2023-05-04_17h18.09.122,ga_syllabified_check,2022.2.5,Win32,60.40471157,,,,,,,,,,,,,,./stim/p07_syllable_1_palufauro_hit.wav,p07,palufauro,hit,pa-lu-fau-ro,pa-lu-fau-ro,pa-lu-fa-u-ro, ,-0.328125,-0.09375,1,0,0,2.233,text_option_1,,0,29,29,161,1
5bef1e56c19fcd0001cdf4c7,63f3cfca20052e4ae7554ebf,6453cc782d5b5b11b2d8b5cd,2023-05-04_17h18.09.122,ga_syllabified_check,2022.2.5,Win32,60.40471157,,,,,,,,,,,,,,./stim/p07_syllable_1_palumaisto_hit.wav,p07,palumaisto,hit,pa-lu-mais-to,pa-lu-mais-to,pa-lu-ma-is-to, ,-0.36328125,-0.108072917,1,0,0,2.9496,text_option_1,,0,30,30,164,1
5bef1e56c19fcd0001cdf4c7,63f3cfca20052e4ae7554ebf,6453cc782d5b5b11b2d8b5cd,2023-05-04_17h18.09.122,ga_syllabified_check,2022.2.5,Win32,60.40471157,,,,,,,,,,,,,,./stim/p03_syllable_1_lakaguaisto_hit.wav,p03,lakaguaisto,hit,la-ka-guais-to,la-ka-guais-to,la-ka-gu-ais-to,la-ka-gua-is-to,-0.348958333,-0.096354167,1,0,0,4.6154,text_option_1,,0,31,31,13,1
5bef1e56c19fcd0001cdf4c7,63f3cfca20052e4ae7554ebf,6453cc782d5b5b11b2d8b5cd,2023-05-04_17h18.09.122,ga_syllabified_check,2022.2.5,Win32,60.40471157,,,,,,,,,,,,,,./stim/p05_syllable_1_payielo_hit.wav,p05,payielo,hit,pai-yu-we-lo,pa-yie-lo,pa-yi-e-lo, ,-0.358072917,-0.100260417,1,0,0,1.8661,text_option_1,,0,32,32,98,1
5bef1e56c19fcd0001cdf4c7,63f3cfca20052e4ae7554ebf,6453cc782d5b5b11b2d8b5cd,2023-05-04_17h18.09.122,ga_syllabified_check,2022.2.5,Win32,60.40471157,,,,,,,,,,,,,,./stim/p06_syllable_1_manhiala_hit.wav,p06,mañiala,hit,ma-nhi-a-la,ma-ñia-la,ma-ñi-a-la, ,-0.358072917,-0.100260417,1,0,0,17.7632,text_option_1,,0,33,33,123,1
5bef1e56c19fcd0001cdf4c7,63f3cfca20052e4ae7554ebf,6453cc782d5b5b11b2d8b5cd,2023-05-04_17h18.09.122,ga_syllabified_check,2022.2.5,Win32,60.40471157,,,,,,,,,,,,,,./stim/p08_syllable_1_lakaduaisto_hit.wav,p08,lakaduaisto,hit,la-ka-du-ais-to,la-ka-duais-to,la-ka-du-ais-to,la-ka-dua-is-to,0.376302083,-0.118489583,1,0,0,5.267,text_option_2,,0,34,34,179,1
5bef1e56c19fcd0001cdf4c7,63f3cfca20052e4ae7554ebf,6453cc782d5b5b11b2d8b5cd,2023-05-04_17h18.09.122,ga_syllabified_check,2022.2.5,Win32,60.40471157,,,,,,,,,,,,,,./stim/p05_syllable_1_paluguato_hit.wav,p05,paluguato,hit,pa-lu-gau-to,pa-lu-gua-to,pa-lu-gu-a-to, ,-0.373697917,-0.08984375,1,0,0,2.6165,text_option_1,,0,35,35,95,1
5bef1e56c19fcd0001cdf4c7,63f3cfca20052e4ae7554ebf,6453cc782d5b5b11b2d8b5cd,2023-05-04_17h18.09.122,ga_syllabified_check,2022.2.5,Win32,60.40471157,,,,,,,,,,,,,,./stim/p03_syllable_1_rausto_hit.wav,p03,rausto,hit,raus-to,raus-to,ra-us-to, ,-0.3984375,-0.098958333,1,0,0,1.1165,text_option_1,,0,36,36,31,1
5bef1e56c19fcd0001cdf4c7,63f3cfca20052e4ae7554ebf,6453cc782d5b5b11b2d8b5cd,2023-05-04_17h18.09.122,ga_syllabified_check,2022.2.5,Win32,60.40471157,,,,,,,,,,,,,,./stim/p07_syllable_1_tuliafo_hit.wav,p07,tuliafo,hit,tu-lia-fo,tu-lia-fo,tu-li-a-fo, ,-0.408854167,-0.111979167,1,0,0,1.6998,text_option_1,,0,37,37,169,1
5bef1e56c19fcd0001cdf4c7,63f3cfca20052e4ae7554ebf,6453cc782d5b5b11b2d8b5cd,2023-05-04_17h18.09.122,ga_syllabified_check,2022.2.5,Win32,60.40471157,,,,,,,,,,,,,,./stim/p08_syllable_1_lakafiaisto_hit.wav,p08,lakafiaisto,hit,la-ka-fi-as-to,la-ka-fiais-to,la-ka-fi-ais-to,la-ka-fia-is-to,-0.408854167,-0.111979167,1,0,0,3.573,text_option_1,,0,38,38,180,1
5bef1e56c19fcd0001cdf4c7,63f3cfca20052e4ae7554ebf,6453cc782d5b5b11b2d8b5cd,2023-05-04_17h18.09.122,ga_syllabified_check,2022.2.5,Win32,60.40471157,,,,,,,,,,,,,,./stim/p04_syllable_1_tuliafo_hit.wav,p04,tuliafo,hit,tu-lia-fo,tu-lia-fo,tu-li-a-fo, ,-0.408854167,-0.111979167,1,0,0,0.8002,text_option_1,,0,39,39,67,1
5bef1e56c19fcd0001cdf4c7,63f3cfca20052e4ae7554ebf,6453cc782d5b5b11b2d8b5cd,2023-05-04_17h18.09.122,ga_syllabified_check,2022.2.5,Win32,60.40471157,,,,,,,,,,,,,,./stim/p06_syllable_1_lakafiaisto_hit.wav,p06,lakafiaisto,hit,la-ka-fia-is-to,la-ka-fiais-to,la-ka-fi-ais-to,la-ka-fia-is-to,0.079427083,-0.111979167,1,0,0,4.1495,text_option_3,,0,40,40,112,1
5bef1e56c19fcd0001cdf4c7,63f3cfca20052e4ae7554ebf,6453cc782d5b5b11b2d8b5cd,2023-05-04_17h18.09.122,ga_syllabified_check,2022.2.5,Win32,60.40471157,,,,,,,,,,,,,,./stim/p08_syllable_1_mebochiana_hit.wav,p08,mebochiana,hit,me-bo-chi-a-na,me-bo-chia-na,me-bo-chi-a-na, ,0.319010417,-0.092447917,1,0,0,5.0665,text_option_2,,0,41,41,192,1
5bef1e56c19fcd0001cdf4c7,63f3cfca20052e4ae7554ebf,6453cc782d5b5b11b2d8b5cd,2023-05-04_17h18.09.122,ga_syllabified_check,2022.2.5,Win32,60.40471157,,,,,,,,,,,,,,./stim/p06_syllable_1_lakaguaisto_hit.wav,p06,lakaguaisto,hit,la-ka-gu-a-is,la-ka-guais-to,la-ka-gu-ais-to,la-ka-gua-is-to,0.412760417,-0.104166667,1,0,0,5.2005,text_option_2,,0,42,42,115,1
5bef1e56c19fcd0001cdf4c7,63f3cfca20052e4ae7554ebf,6453cc782d5b5b11b2d8b5cd,2023-05-04_17h18.09.122,ga_syllabified_check,2022.2.5,Win32,60.40471157,,,,,,,,,,,,,,./stim/p04_syllable_1_lakaduaisto_hit.wav,p04,lakaduaisto,hit,la-ka-duais-to,la-ka-duais-to,la-ka-du-ais-to,la-ka-dua-is-to,-0.325520833,-0.10546875,1,0,0,1.5168,text_option_1,,0,43,43,43,1
5bef1e56c19fcd0001cdf4c7,63f3cfca20052e4ae7554ebf,6453cc782d5b5b11b2d8b5cd,2023-05-04_17h18.09.122,ga_syllabified_check,2022.2.5,Win32,60.40471157,,,,,,,,,,,,,,./stim/p06_syllable_1_lakagiaisto_hit.wav,p06,lakagiaisto,hit,la-ka-gia-is-to,la-ka-giais-to,la-ka-gi-ais-to,la-ka-gia-is-to,0.032552083,-0.09765625,1,0,0,3.7996,text_option_3,,0,44,44,114,1
5bef1e56c19fcd0001cdf4c7,63f3cfca20052e4ae7554ebf,6453cc782d5b5b11b2d8b5cd,2023-05-04_17h18.09.122,ga_syllabified_check,2022.2.5,Win32,60.40471157,,,,,,,,,,,,,,./stim/p03_syllable_1_palufauro_hit.wav,p03,palufauro,hit,pa-lu-fau-ro,pa-lu-fau-ro,pa-lu-fa-u-ro, ,-0.31640625,-0.09765625,1,0,0,1.288,text_option_1,,0,45,45,25,1
5bef1e56c19fcd0001cdf4c7,63f3cfca20052e4ae7554ebf,6453cc782d5b5b11b2d8b5cd,2023-05-04_17h18.09.122,ga_syllabified_check,2022.2.5,Win32,60.40471157,,,,,,,,,,,,,,./stim/p08_syllable_1_lakakuaisto_hit.wav,p08,lakakuaisto,hit,la-ka-ku-ais-to,la-ka-kuais-to,la-ka-ku-ais-to,la-ka-kua-is-to,-0.033854167,-0.104166667,1,0,0,5.7662,text_option_3,,0,46,46,185,1
5bef1e56c19fcd0001cdf4c7,63f3cfca20052e4ae7554ebf,6453cc782d5b5b11b2d8b5cd,2023-05-04_17h18.09.122,ga_syllabified_check,2022.2.5,Win32,60.40471157,,,,,,,,,,,,,,./stim/p05_syllable_1_lakagiaisto_hit.wav,p05,lakagiaisto,hit,la-ka-ki-ais-to,la-ka-giais-to,la-ka-gi-ais-to,la-ka-gia-is-to,-0.302083333,-0.110677083,1,0,0,3.1821,text_option_1,,0,47,47,80,1
5bef1e56c19fcd0001cdf4c7,63f3cfca20052e4ae7554ebf,6453cc782d5b5b11b2d8b5cd,2023-05-04_17h18.09.122,ga_syllabified_check,2022.2.5,Win32,60.40471157,,,,,,,,,,,,,,./stim/p08_syllable_1_lakatuaisto_hit.wav,p08,lakatuaisto,hit,la-ka-tu-i-jis,la-ka-tuais-to,la-ka-tu-ais-to,la-ka-tua-is-to,-0.33984375,-0.1171875,1,0,0,3.849,text_option_1,,0,48,48,189,1
5bef1e56c19fcd0001cdf4c7,63f3cfca20052e4ae7554ebf,6453cc782d5b5b11b2d8b5cd,2023-05-04_17h18.09.122,ga_syllabified_check,2022.2.5,Win32,60.40471157,,,,,,,,,,,,,,./stim/p08_syllable_1_falutraigo_hit.wav,p08,falutraigo,hit,fa-lu-trai-go,fa-lu-trai-go,fa-lu-tra-i-go, ,-0.334635417,-0.110677083,1,0,0,1.4357,text_option_1,,0,49,49,174,1
5bef1e56c19fcd0001cdf4c7,63f3cfca20052e4ae7554ebf,6453cc782d5b5b11b2d8b5cd,2023-05-04_17h18.09.122,ga_syllabified_check,2022.2.5,Win32,60.40471157,,,,,,,,,,,,,,./stim/p03_syllable_1_palutrauco_hit.wav,p03,palutrauco,hit,pa-lu-trau-co,pa-lu-trau-co,pa-lu-tra-u-co, ,-0.3125,-0.098958333,1,0,0,1.7332,text_option_1,,0,50,50,29,1
5bef1e56c19fcd0001cdf4c7,63f3cfca20052e4ae7554ebf,6453cc782d5b5b11b2d8b5cd,2023-05-04_17h18.09.122,ga_syllabified_check,2022.2.5,Win32,60.40471157,,,,,,,,,,,,,,./stim/p06_syllable_1_lakakiaisto_hit.wav,p06,lakakiaisto,hit,la-ka-kia-is-to,la-ka-kiais-to,la-ka-ki-ais-to,la-ka-kia-is-to,-0.03515625,-0.095052083,1,0,0,4.7661,text_option_3,,0,51,51,116,1
5bef1e56c19fcd0001cdf4c7,63f3cfca20052e4ae7554ebf,6453cc782d5b5b11b2d8b5cd,2023-05-04_17h18.09.122,ga_syllabified_check,2022.2.5,Win32,60.40471157,,,,,,,,,,,,,,./stim/p08_syllable_1_falufaisto_hit.wav,p08,falufaisto,hit,fa-lu-fais-to,fa-lu-fais-to,fa-lu-fa-is-to, ,0.364583333,-0.096354167,1,0,0,5.5324,text_option_2,,0,52,52,173,1
5bef1e56c19fcd0001cdf4c7,63f3cfca20052e4ae7554ebf,6453cc782d5b5b11b2d8b5cd,2023-05-04_17h18.09.122,ga_syllabified_check,2022.2.5,Win32,60.40471157,,,,,,,,,,,,,,./stim/p03_syllable_1_pachialo_hit.wav,p03,pachialo,hit,pa-chia-lo,pa-chia-lo,pa-chi-a-lo, ,-0.3671875,-0.11328125,1,0,0,1.6163,text_option_1,,0,53,53,24,1
5bef1e56c19fcd0001cdf4c7,63f3cfca20052e4ae7554ebf,6453cc782d5b5b11b2d8b5cd,2023-05-04_17h18.09.122,ga_syllabified_check,2022.2.5,Win32,60.40471157,,,,,,,,,,,,,,./stim/p05_syllable_1_lakakuaisto_hit.wav,p05,lakakuaisto,hit,la-ka-kais-to,la-ka-kuais-to,la-ka-ku-ais-to,la-ka-kua-is-to,0.00390625,-0.10546875,1,0,0,3.0165,text_option_3,,0,54,54,83,1
5bef1e56c19fcd0001cdf4c7,63f3cfca20052e4ae7554ebf,6453cc782d5b5b11b2d8b5cd,2023-05-04_17h18.09.122,ga_syllabified_check,2022.2.5,Win32,60.40471157,,,,,,,,,,,,,,./stim/p03_syllable_1_tuliafo_hit.wav,p03,tuliafo,hit,tu-lia-fo,tu-lia-fo,tu-li-a-fo, ,-0.381510417,-0.110677083,1,0,0,1.2508,text_option_1,,0,55,55,33,1
5bef1e56c19fcd0001cdf4c7,63f3cfca20052e4ae7554ebf,6453cc782d5b5b11b2d8b5cd,2023-05-04_17h18.09.122,ga_syllabified_check,2022.2.5,Win32,60.40471157,,,,,,,,,,,,,,./stim/p06_syllable_1_palumaisto_hit.wav,p06,palumaisto,hit,pa-lu-ma-is-to,pa-lu-mais-to,pa-lu-ma-is-to, ,0.385416667,-0.080729167,1,0,0,2.8174,text_option_2,,0,56,56,130,1
5bef1e56c19fcd0001cdf4c7,63f3cfca20052e4ae7554ebf,6453cc782d5b5b11b2d8b5cd,2023-05-04_17h18.09.122,ga_syllabified_check,2022.2.5,Win32,60.40471157,,,,,,,,,,,,,,./stim/p04_syllable_1_costonhialo_hit.wav,p04,costoñialo,hit,cos-to-nhia-lo,cos-to-ñia-lo,cos-to-ñi-a-lo, ,-0.34765625,-0.106770833,1,0,0,1.5494,text_option_1,,0,57,57,35,1
5bef1e56c19fcd0001cdf4c7,63f3cfca20052e4ae7554ebf,6453cc782d5b5b11b2d8b5cd,2023-05-04_17h18.09.122,ga_syllabified_check,2022.2.5,Win32,60.40471157,,,,,,,,,,,,,,./stim/p06_syllable_1_lakatuaisto_hit.wav,p06,lakatuaisto,hit,la-ka-tu-a-is,la-ka-tuais-to,la-ka-tu-ais-to,la-ka-tua-is-to,0.462239583,-0.09765625,1,0,0,3.4656,text_option_2,,0,58,58,121,1
5bef1e56c19fcd0001cdf4c7,63f3cfca20052e4ae7554ebf,6453cc782d5b5b11b2d8b5cd,2023-05-04_17h18.09.122,ga_syllabified_check,2022.2.5,Win32,60.40471157,,,,,,,,,,,,,,./stim/p07_syllable_1_lliape_hit.wav,p07,lliape,hit,lliai-pe,llia-pe,lli-a-pe, ,-0.364583333,-0.114583333,1,0,0,0.9166,text_option_1,,0,59,59,156,1
5bef1e56c19fcd0001cdf4c7,63f3cfca20052e4ae7554ebf,6453cc782d5b5b11b2d8b5cd,2023-05-04_17h18.09.122,ga_syllabified_check,2022.2.5,Win32,60.40471157,,,,,,,,,,,,,,./stim/p07_syllable_1_faluduako_hit.wav,p07,faluduako,hit,fa-lu-dua-ko,fa-lu-dua-ko,fa-lu-du-a-ko, ,-0.31640625,-0.102864583,1,0,0,2.15,text_option_1,,0,60,60,138,1
5bef1e56c19fcd0001cdf4c7,63f3cfca20052e4ae7554ebf,6453cc782d5b5b11b2d8b5cd,2023-05-04_17h18.09.122,ga_syllabified_check,2022.2.5,Win32,60.40471157,,,,,,,,,,,,,,./stim/p06_syllable_1_lakafuaisto_hit.wav,p06,lakafuaisto,hit,la-ka-fu-a-is,la-ka-fuais-to,la-ka-fu-ais-to,la-ka-fua-is-to,-0.0390625,-0.291666667,1,0,0,4.4826,text_option_other,la-ka-fu-a-is-to,0,61,61,113,1
5bef1e56c19fcd0001cdf4c7,63f3cfca20052e4ae7554ebf,6453cc782d5b5b11b2d8b5cd,2023-05-04_17h18.09.122,ga_syllabified_check,2022.2.5,Win32,60.40471157,,,,,,,,,,,,,,./stim/p08_syllable_1_lakabiaisto_hit.wav,p08,lakabiaisto,hit,la-ka-bi-as-to,la-ka-biais-to,la-ka-bi-ais-to,la-ka-bia-is-to,-0.3203125,-0.098958333,1,0,0,4.9167,text_option_1,,0,62,62,176,1
5bef1e56c19fcd0001cdf4c7,63f3cfca20052e4ae7554ebf,6453cc782d5b5b11b2d8b5cd,2023-05-04_17h18.09.122,ga_syllabified_check,2022.2.5,Win32,60.40471157,,,,,,,,,,,,,,./stim/p07_syllable_1_lakakuaisto_hit.wav,p07,lakakuaisto,hit,la-ka-kuais-to,la-ka-kuais-to,la-ka-ku-ais-to,la-ka-kua-is-to,0.00390625,-0.106770833,1,0,0,13.6782,text_option_3,,0,63,63,151,1
5bef1e56c19fcd0001cdf4c7,63f3cfca20052e4ae7554ebf,6453cc782d5b5b11b2d8b5cd,2023-05-04_17h18.09.122,ga_syllabified_check,2022.2.5,Win32,60.40471157,,,,,,,,,,,,,,./stim/p03_syllable_1_chiaba_hit.wav,p03,chiaba,hit,chia-ba,chia-ba,chi-a-ba, ,-0.368489583,-0.108072917,1,0,0,1.3163,text_option_1,,0,64,64,0,1
5bef1e56c19fcd0001cdf4c7,63f3cfca20052e4ae7554ebf,6453cc782d5b5b11b2d8b5cd,2023-05-04_17h18.09.122,ga_syllabified_check,2022.2.5,Win32,60.40471157,,,,,,,,,,,,,,./stim/p03_syllable_1_lakakuaisto_hit.wav,p03,lakakuaisto,hit,la-ka-kuais-to,la-ka-kuais-to,la-ka-ku-ais-to,la-ka-kua-is-to,-0.345052083,-0.119791667,1,0,0,2.6659,text_option_1,,0,65,65,15,1
5bef1e56c19fcd0001cdf4c7,63f3cfca20052e4ae7554ebf,6453cc782d5b5b11b2d8b5cd,2023-05-04_17h18.09.122,ga_syllabified_check,2022.2.5,Win32,60.40471157,,,,,,,,,,,,,,./stim/p06_syllable_1_lakabuaisto_hit.wav,p06,lakabuaisto,hit,la-ka-bu-a-is,la-ka-buais-to,la-ka-bu-ais-to,la-ka-bua-is-to,0.365885417,-0.114583333,1,0,0,4.8493,text_option_2,,0,66,66,109,1
5bef1e56c19fcd0001cdf4c7,63f3cfca20052e4ae7554ebf,6453cc782d5b5b11b2d8b5cd,2023-05-04_17h18.09.122,ga_syllabified_check,2022.2.5,Win32,60.40471157,,,,,,,,,,,,,,./stim/p05_syllable_1_ruyiola_hit.wav,p05,ruyiola,hit,ru-yio-la,ru-yio-la,ru-yi-o-la, ,-0.377604167,-0.102864583,1,0,0,1.3333,text_option_1,,0,67,67,100,1
5bef1e56c19fcd0001cdf4c7,63f3cfca20052e4ae7554ebf,6453cc782d5b5b11b2d8b5cd,2023-05-04_17h18.09.122,ga_syllabified_check,2022.2.5,Win32,60.40471157,,,,,,,,,,,,,,./stim/p03_syllable_1_lakagiaisto_hit.wav,p03,lakagiaisto,hit,la-ka-giais-to,la-ka-giais-to,la-ka-gi-ais-to,la-ka-gia-is-to,-0.365885417,-0.11328125,1,0,0,5.5818,text_option_1,,0,68,68,12,1
5bef1e56c19fcd0001cdf4c7,63f3cfca20052e4ae7554ebf,6453cc782d5b5b11b2d8b5cd,2023-05-04_17h18.09.122,ga_syllabified_check,2022.2.5,Win32,60.40471157,,,,,,,,,,,,,,./stim/p04_syllable_1_rausto_hit.wav,p04,rausto,hit,raus-to,raus-to,ra-us-to, ,-0.372395833,-0.1015625,1,0,0,0.8663,text_option_1,,0,69,69,65,1
5bef1e56c19fcd0001cdf4c7,63f3cfca20052e4ae7554ebf,6453cc782d5b5b11b2d8b5cd,2023-05-04_17h18.09.122,ga_syllabified_check,2022.2.5,Win32,60.40471157,,,,,,,,,,,,,,./stim/p06_syllable_1_palufauto_hit.wav,p06,palufauto,hit,pa-lu-fau-to,pa-lu-fau-to,pa-lu-fa-u-to, ,-0.358072917,-0.102864583,1,0,0,3.0827,text_option_1,,0,70,70,128,1
5bef1e56c19fcd0001cdf4c7,63f3cfca20052e4ae7554ebf,6453cc782d5b5b11b2d8b5cd,2023-05-04_17h18.09.122,ga_syllabified_check,2022.2.5,Win32,60.40471157,,,,,,,,,,,,,,./stim/p03_syllable_1_lakadiaisto_hit.wav,p03,lakadiaisto,hit,la-ka-diais-to,la-ka-diais-to,la-ka-di-ais-to,la-ka-dia-is-to,0,-0.115885417,1,0,0,13.8486,text_option_3,,0,71,71,8,1
5bef1e56c19fcd0001cdf4c7,63f3cfca20052e4ae7554ebf,6453cc782d5b5b11b2d8b5cd,2023-05-04_17h18.09.122,ga_syllabified_check,2022.2.5,Win32,60.40471157,,,,,,,,,,,,,,./stim/p07_syllable_1_palutrauco_hit.wav,p07,palutrauco,hit,pa-lu-trau-co,pa-lu-trau-co,pa-lu-tra-u-co, ,-0.412760417,-0.110677083,1,0,0,1.8999,text_option_1,,0,72,72,165,1
5bef1e56c19fcd0001cdf4c7,63f3cfca20052e4ae7554ebf,6453cc782d5b5b11b2d8b5cd,2023-05-04_17h18.09.122,ga_syllabified_check,2022.2.5,Win32,60.40471157,,,,,,,,,,,,,,./stim/p03_syllable_1_lakaduaisto_hit.wav,p03,lakaduaisto,hit,la-ka-duais-to,la-ka-duais-to,la-ka-du-ais-to,la-ka-dua-is-to,-0.412760417,-0.110677083,1,0,0,1.6164,text_option_1,,0,73,73,9,1
5bef1e56c19fcd0001cdf4c7,63f3cfca20052e4ae7554ebf,6453cc782d5b5b11b2d8b5cd,2023-05-04_17h18.09.122,ga_syllabified_check,2022.2.5,Win32,60.40471157,,,,,,,,,,,,,,./stim/p08_syllable_1_lakagiaisto_hit.wav,p08,lakagiaisto,hit,la-ka-gi-jas-to,la-ka-giais-to,la-ka-gi-ais-to,la-ka-gia-is-to,0.020833333,-0.109375,1,0,0,2.9659,text_option_3,,0,74,74,182,1
5bef1e56c19fcd0001cdf4c7,63f3cfca20052e4ae7554ebf,6453cc782d5b5b11b2d8b5cd,2023-05-04_17h18.09.122,ga_syllabified_check,2022.2.5,Win32,60.40471157,,,,,,,,,,,,,,./stim/p04_syllable_1_paluguato_hit.wav,p04,paluguato,hit,pa-lu-gua,pa-lu-gua-to,pa-lu-gu-a-to, ,-0.34765625,-0.102864583,1,0,0,2.3331,text_option_1,,0,75,75,61,1
5bef1e56c19fcd0001cdf4c7,63f3cfca20052e4ae7554ebf,6453cc782d5b5b11b2d8b5cd,2023-05-04_17h18.09.122,ga_syllabified_check,2022.2.5,Win32,60.40471157,,,,,,,,,,,,,,./stim/p05_syllable_1_lakapiaisto_hit.wav,p05,lakapiaisto,hit,la-ka-pais-to,la-ka-piais-to,la-ka-pi-ais-to,la-ka-pia-is-to,-0.37109375,-0.110677083,1,0,0,2.6505,text_option_1,,0,76,76,84,1
5bef1e56c19fcd0001cdf4c7,63f3cfca20052e4ae7554ebf,6453cc782d5b5b11b2d8b5cd,2023-05-04_17h18.09.122,ga_syllabified_check,2022.2.5,Win32,60.40471157,,,,,,,,,,,,,,./stim/p04_syllable_1_lakapiaisto_hit.wav,p04,lakapiaisto,hit,la-ka-piais-to,la-ka-piais-to,la-ka-pi-ais-to,la-ka-pia-is-to,-0.373697917,-0.102864583,1,0,0,3.2813,text_option_1,,0,77,77,50,1
5bef1e56c19fcd0001cdf4c7,63f3cfca20052e4ae7554ebf,6453cc782d5b5b11b2d8b5cd,2023-05-04_17h18.09.122,ga_syllabified_check,2022.2.5,Win32,60.40471157,,,,,,,,,,,,,,./stim/p04_syllable_1_lliape_hit.wav,p04,lliape,hit,lia-pe,llia-pe,lli-a-pe, ,-0.381510417,-0.09765625,1,0,0,2.4171,text_option_1,,0,78,78,54,1
5bef1e56c19fcd0001cdf4c7,63f3cfca20052e4ae7554ebf,6453cc782d5b5b11b2d8b5cd,2023-05-04_17h18.09.122,ga_syllabified_check,2022.2.5,Win32,60.40471157,,,,,,,,,,,,,,./stim/p03_syllable_1_falutraigo_hit.wav,p03,falutraigo,hit,fa-lu-trai-go,fa-lu-trai-go,fa-lu-tra-i-go, ,-0.319010417,-0.11328125,1,0,0,1.4665,text_option_1,,0,79,79,4,1
5bef1e56c19fcd0001cdf4c7,63f3cfca20052e4ae7554ebf,6453cc782d5b5b11b2d8b5cd,2023-05-04_17h18.09.122,ga_syllabified_check,2022.2.5,Win32,60.40471157,,,,,,,,,,,,,,./stim/p08_syllable_1_lakapuaisto_hit.wav,p08,lakapuaisto,hit,la-ka-pu-as-to,la-ka-puais-to,la-ka-pu-ais-to,la-ka-pua-is-to,0.352864583,-0.122395833,1,0,0,5.6329,text_option_2,,0,80,80,187,1
5bef1e56c19fcd0001cdf4c7,63f3cfca20052e4ae7554ebf,6453cc782d5b5b11b2d8b5cd,2023-05-04_17h18.09.122,ga_syllabified_check,2022.2.5,Win32,60.40471157,,,,,,,,,,,,,,./stim/p07_syllable_1_manhiala_hit.wav,p07,mañiala,hit,ma-nhia-la,ma-ñia-la,ma-ñi-a-la, ,-0.412760417,-0.09765625,1,0,0,2.8998,text_option_1,,0,81,81,157,1
5bef1e56c19fcd0001cdf4c7,63f3cfca20052e4ae7554ebf,6453cc782d5b5b11b2d8b5cd,2023-05-04_17h18.09.122,ga_syllabified_check,2022.2.5,Win32,60.40471157,,,,,,,,,,,,,,./stim/p07_syllable_1_chiaba_hit.wav,p07,chiaba,hit,chia-ba,chia-ba,chi-a-ba, ,-0.373697917,-0.098958333,1,0,0,0.8997,text_option_1,,0,82,82,136,1
5bef1e56c19fcd0001cdf4c7,63f3cfca20052e4ae7554ebf,6453cc782d5b5b11b2d8b5cd,2023-05-04_17h18.09.122,ga_syllabified_check,2022.2.5,Win32,60.40471157,,,,,,,,,,,,,,./stim/p05_syllable_1_lakaduaisto_hit.wav,p05,lakaduaisto,hit,la-ka-dais-to,la-ka-duais-to,la-ka-du-ais-to,la-ka-dua-is-to,0.046875,-0.109375,1,0,0,18.5637,text_option_3,,0,83,83,77,1
5bef1e56c19fcd0001cdf4c7,63f3cfca20052e4ae7554ebf,6453cc782d5b5b11b2d8b5cd,2023-05-04_17h18.09.122,ga_syllabified_check,2022.2.5,Win32,60.40471157,,,,,,,,,,,,,,./stim/p05_syllable_1_lakapuaisto_hit.wav,p05,lakapuaisto,hit,la-ka-pais-to,la-ka-puais-to,la-ka-pu-ais-to,la-ka-pua-is-to,-0.408854167,-0.10546875,1,0,0,3.0669,text_option_1,,0,84,84,85,1
5bef1e56c19fcd0001cdf4c7,63f3cfca20052e4ae7554ebf,6453cc782d5b5b11b2d8b5cd,2023-05-04_17h18.09.122,ga_syllabified_check,2022.2.5,Win32,60.40471157,,,,,,,,,,,,,,./stim/p08_syllable_1_pachialo_hit.wav,p08,pachialo,hit,pa-chi-ja-lo,pa-chia-lo,pa-chi-a-lo, ,0.377604167,-0.104166667,1,0,0,2.1329,text_option_2,,0,85,85,194,1
5bef1e56c19fcd0001cdf4c7,63f3cfca20052e4ae7554ebf,6453cc782d5b5b11b2d8b5cd,2023-05-04_17h18.09.122,ga_syllabified_check,2022.2.5,Win32,60.40471157,,,,,,,,,,,,,,./stim/p07_syllable_1_nhiape_hit.wav,p07,ñiape,hit,nhia-pe,ñia-pe,ñi-a-pe, ,-0.369791667,-0.106770833,1,0,0,18.6478,text_option_1,,0,86,86,159,1
5bef1e56c19fcd0001cdf4c7,63f3cfca20052e4ae7554ebf,6453cc782d5b5b11b2d8b5cd,2023-05-04_17h18.09.122,ga_syllabified_check,2022.2.5,Win32,60.40471157,,,,,,,,,,,,,,./stim/p05_syllable_1_flauro_hit.wav,p05,flauro,hit,fa-lu-ro,flau-ro,fla-u-ro, ,0.069010417,-0.30078125,1,0,0,4.5655,text_option_other,fa-lu-ro,0,87,87,73,1
5bef1e56c19fcd0001cdf4c7,63f3cfca20052e4ae7554ebf,6453cc782d5b5b11b2d8b5cd,2023-05-04_17h18.09.122,ga_syllabified_check,2022.2.5,Win32,60.40471157,,,,,,,,,,,,,,./stim/p05_syllable_1_chiaba_hit.wav,p05,chiaba,hit,chia-ba,chia-ba,chi-a-ba, ,0.0625,-0.296875,1,0,0,1.9503,text_option_other,chai-ba,0,88,88,68,1
5bef1e56c19fcd0001cdf4c7,63f3cfca20052e4ae7554ebf,6453cc782d5b5b11b2d8b5cd,2023-05-04_17h18.09.122,ga_syllabified_check,2022.2.5,Win32,60.40471157,,,,,,,,,,,,,,./stim/p04_syllable_1_lakapuaisto_hit.wav,p04,lakapuaisto,hit,la-ka-puais-to,la-ka-puais-to,la-ka-pu-ais-to,la-ka-pua-is-to,-0.407552083,-0.096354167,1,0,0,2.183,text_option_1,,0,89,89,51,1
5bef1e56c19fcd0001cdf4c7,63f3cfca20052e4ae7554ebf,6453cc782d5b5b11b2d8b5cd,2023-05-04_17h18.09.122,ga_syllabified_check,2022.2.5,Win32,60.40471157,,,,,,,,,,,,,,./stim/p06_syllable_1_falutraigo_hit.wav,p06,falutraigo,hit,fa-lu-tra-i-go,fa-lu-trai-go,fa-lu-tra-i-go, ,0.381510417,-0.118489583,1,0,0,3.2995,text_option_2,,0,90,90,106,1
5bef1e56c19fcd0001cdf4c7,63f3cfca20052e4ae7554ebf,6453cc782d5b5b11b2d8b5cd,2023-05-04_17h18.09.122,ga_syllabified_check,2022.2.5,Win32,60.40471157,,,,,,,,,,,,,,./stim/p03_syllable_1_payielo_hit.wav,p03,payielo,hit,pa-yie-lo,pa-yie-lo,pa-yi-e-lo, ,-0.424479167,-0.109375,1,0,0,1.5993,text_option_1,,0,91,91,30,1
5bef1e56c19fcd0001cdf4c7,63f3cfca20052e4ae7554ebf,6453cc782d5b5b11b2d8b5cd,2023-05-04_17h18.09.122,ga_syllabified_check,2022.2.5,Win32,60.40471157,,,,,,,,,,,,,,./stim/p05_syllable_1_lakafiaisto_hit.wav,p05,lakafiaisto,hit,la-ka-fi-ais-to,la-ka-fiais-to,la-ka-fi-ais-to,la-ka-fia-is-to,-0.00390625,-0.12109375,1,0,0,1.9998,text_option_3,,0,92,92,78,1
5bef1e56c19fcd0001cdf4c7,63f3cfca20052e4ae7554ebf,6453cc782d5b5b11b2d8b5cd,2023-05-04_17h18.09.122,ga_syllabified_check,2022.2.5,Win32,60.40471157,,,,,,,,,,,,,,./stim/p05_syllable_1_lakadiaisto_hit.wav,p05,lakadiaisto,hit,la-ka-di-ais-to,la-ka-diais-to,la-ka-di-ais-to,la-ka-dia-is-to,-0.427083333,-0.109375,1,0,0,1.8665,text_option_1,,0,93,93,76,1
5bef1e56c19fcd0001cdf4c7,63f3cfca20052e4ae7554ebf,6453cc782d5b5b11b2d8b5cd,2023-05-04_17h18.09.122,ga_syllabified_check,2022.2.5,Win32,60.40471157,,,,,,,,,,,,,,./stim/p03_syllable_1_lakafuaisto_hit.wav,p03,lakafuaisto,hit,la-ka-fuais-to,la-ka-fuais-to,la-ka-fu-ais-to,la-ka-fua-is-to,-0.399739583,-0.09765625,1,0,0,1.3498,text_option_1,,0,94,94,11,1
5bef1e56c19fcd0001cdf4c7,63f3cfca20052e4ae7554ebf,6453cc782d5b5b11b2d8b5cd,2023-05-04_17h18.09.122,ga_syllabified_check,2022.2.5,Win32,60.40471157,,,,,,,,,,,,,,./stim/p07_syllable_1_lakafiaisto_hit.wav,p07,lakafiaisto,hit,la-ka-fiais-to,la-ka-fiais-to,la-ka-fi-ais-to,la-ka-fia-is-to,-0.333333333,-0.098958333,1,0,0,1.3692,text_option_1,,0,95,95,146,1
5bef1e56c19fcd0001cdf4c7,63f3cfca20052e4ae7554ebf,6453cc782d5b5b11b2d8b5cd,2023-05-04_17h18.09.122,ga_syllabified_check,2022.2.5,Win32,60.40471157,,,,,,,,,,,,,,./stim/p05_syllable_1_faluduako_hit.wav,p05,faluduako,hit,fa-lu-ba-ko,fa-lu-dua-ko,fa-lu-du-a-ko, ,-0.380208333,-0.108072917,1,0,0,2.0661,text_option_1,,0,96,96,70,1
5bef1e56c19fcd0001cdf4c7,63f3cfca20052e4ae7554ebf,6453cc782d5b5b11b2d8b5cd,2023-05-04_17h18.09.122,ga_syllabified_check,2022.2.5,Win32,60.40471157,,,,,,,,,,,,,,./stim/p07_syllable_1_lakabuaisto_hit.wav,p07,lakabuaisto,hit,la-ka-buais-to,la-ka-buais-to,la-ka-bu-ais-to,la-ka-bua-is-to,-0.369791667,-0.111979167,1,0,0,2.0834,text_option_1,,0,97,97,143,1
5bef1e56c19fcd0001cdf4c7,63f3cfca20052e4ae7554ebf,6453cc782d5b5b11b2d8b5cd,2023-05-04_17h18.09.122,ga_syllabified_check,2022.2.5,Win32,60.40471157,,,,,,,,,,,,,,./stim/p08_syllable_1_payielo_hit.wav,p08,payielo,hit,pa-yie-lo,pa-yie-lo,pa-yi-e-lo, ,-0.380208333,-0.100260417,1,0,0,1.1021,text_option_1,,0,98,98,200,1
5bef1e56c19fcd0001cdf4c7,63f3cfca20052e4ae7554ebf,6453cc782d5b5b11b2d8b5cd,2023-05-04_17h18.09.122,ga_syllabified_check,2022.2.5,Win32,60.40471157,,,,,,,,,,,,,,./stim/p05_syllable_1_rausto_hit.wav,p05,rausto,hit,raus-to,raus-to,ra-us-to, ,-0.380208333,-0.100260417,1,0,0,0.3679,text_option_1,,0,99,99,99,1
5bef1e56c19fcd0001cdf4c7,63f3cfca20052e4ae7554ebf,6453cc782d5b5b11b2d8b5cd,2023-05-04_17h18.09.122,ga_syllabified_check,2022.2.5,Win32,60.40471157,,,,,,,,,,,,,,./stim/p04_syllable_1_ruyiola_hit.wav,p04,ruyiola,hit,ru-yio-la,ru-yio-la,ru-yi-o-la, ,-0.380208333,-0.100260417,1,0,0,0.6505,text_option_1,,0,100,100,66,1
5bef1e56c19fcd0001cdf4c7,63f3cfca20052e4ae7554ebf,6453cc782d5b5b11b2d8b5cd,2023-05-04_17h18.09.122,ga_syllabified_check,2022.2.5,Win32,60.40471157,,,,,,,,,,,,,,./stim/p05_syllable_1_falufaisto_hit.wav,p05,falufaisto,hit,fa-lu-fais-to,fa-lu-fais-to,fa-lu-fa-is-to, ,-0.380208333,-0.100260417,1,0,0,1.1001,text_option_1,,0,101,101,71,1
5bef1e56c19fcd0001cdf4c7,63f3cfca20052e4ae7554ebf,6453cc782d5b5b11b2d8b5cd,2023-05-04_17h18.09.122,ga_syllabified_check,2022.2.5,Win32,60.40471157,,,,,,,,,,,,,,./stim/p06_syllable_1_faluduako_hit.wav,p06,faluduako,hit,fa-lu-dua-ko,fa-lu-dua-ko,fa-lu-du-a-ko, ,-0.380208333,-0.100260417,1,0,0,3.317,text_option_1,,0,102,102,104,1
5bef1e56c19fcd0001cdf4c7,63f3cfca20052e4ae7554ebf,6453cc782d5b5b11b2d8b5cd,2023-05-04_17h18.09.122,ga_syllabified_check,2022.2.5,Win32,60.40471157,,,,,,,,,,,,,,./stim/p07_syllable_1_lakaguaisto_hit.wav,p07,lakaguaisto,hit,la-ka-guais-to,la-ka-guais-to,la-ka-gu-ais-to,la-ka-gua-is-to,-0.313802083,-0.106770833,1,0,0,2.5668,text_option_1,,0,103,103,149,1
5bef1e56c19fcd0001cdf4c7,63f3cfca20052e4ae7554ebf,6453cc782d5b5b11b2d8b5cd,2023-05-04_17h18.09.122,ga_syllabified_check,2022.2.5,Win32,60.40471157,,,,,,,,,,,,,,./stim/p07_syllable_1_flauro_hit.wav,p07,flauro,hit,flau-ro,flau-ro,fla-u-ro, ,-0.376302083,-0.088541667,1,0,0,1.6499,text_option_1,,0,104,104,141,1
5bef1e56c19fcd0001cdf4c7,63f3cfca20052e4ae7554ebf,6453cc782d5b5b11b2d8b5cd,2023-05-04_17h18.09.122,ga_syllabified_check,2022.2.5,Win32,60.40471157,,,,,,,,,,,,,,./stim/p04_syllable_1_lakafiaisto_hit.wav,p04,lakafiaisto,hit,la-ka-fiais-to,la-ka-fiais-to,la-ka-fi-ais-to,la-ka-fia-is-to,-0.376302083,-0.088541667,1,0,0,2.0164,text_option_1,,0,105,105,44,1
5bef1e56c19fcd0001cdf4c7,63f3cfca20052e4ae7554ebf,6453cc782d5b5b11b2d8b5cd,2023-05-04_17h18.09.122,ga_syllabified_check,2022.2.5,Win32,60.40471157,,,,,,,,,,,,,,./stim/p04_syllable_1_lakakiaisto_hit.wav,p04,lakakiaisto,hit,la-ka-kiais-to,la-ka-kiais-to,la-ka-ki-ais-to,la-ka-kia-is-to,-0.376302083,-0.088541667,1,0,0,3.9506,text_option_1,,0,106,106,48,1
5bef1e56c19fcd0001cdf4c7,63f3cfca20052e4ae7554ebf,6453cc782d5b5b11b2d8b5cd,2023-05-04_17h18.09.122,ga_syllabified_check,2022.2.5,Win32,60.40471157,,,,,,,,,,,,,,./stim/p05_syllable_1_tuliafo_hit.wav,p05,tuliafo,hit,tu-lai-fo,tu-lia-fo,tu-li-a-fo, ,-0.376302083,-0.104166667,1,0,0,1.5332,text_option_1,,0,107,107,101,1
5bef1e56c19fcd0001cdf4c7,63f3cfca20052e4ae7554ebf,6453cc782d5b5b11b2d8b5cd,2023-05-04_17h18.09.122,ga_syllabified_check,2022.2.5,Win32,60.40471157,,,,,,,,,,,,,,./stim/p06_syllable_1_tuliafo_hit.wav,p06,tuliafo,hit,tu-li-a-fo,tu-lia-fo,tu-li-a-fo, ,0.4140625,-0.096354167,1,0,0,2.5333,text_option_2,,0,108,108,135,1
5bef1e56c19fcd0001cdf4c7,63f3cfca20052e4ae7554ebf,6453cc782d5b5b11b2d8b5cd,2023-05-04_17h18.09.122,ga_syllabified_check,2022.2.5,Win32,60.40471157,,,,,,,,,,,,,,./stim/p06_syllable_1_flauro_hit.wav,p06,flauro,hit,fla-u-ro,flau-ro,fla-u-ro, ,0.364583333,-0.114583333,1,0,0,1.2663,text_option_2,,0,109,109,107,1
5bef1e56c19fcd0001cdf4c7,63f3cfca20052e4ae7554ebf,6453cc782d5b5b11b2d8b5cd,2023-05-04_17h18.09.122,ga_syllabified_check,2022.2.5,Win32,60.40471157,,,,,,,,,,,,,,./stim/p04_syllable_1_manhiala_hit.wav,p04,mañiala,hit,ma-nhia-la,ma-ñia-la,ma-ñi-a-la, ,-0.354166667,-0.096354167,1,0,0,2.8489,text_option_1,,0,110,110,55,1
5bef1e56c19fcd0001cdf4c7,63f3cfca20052e4ae7554ebf,6453cc782d5b5b11b2d8b5cd,2023-05-04_17h18.09.122,ga_syllabified_check,2022.2.5,Win32,60.40471157,,,,,,,,,,,,,,./stim/p03_syllable_1_paluguato_hit.wav,p03,paluguato,hit,pa-lu-gua,pa-lu-gua-to,pa-lu-gu-a-to, ,-0.354166667,-0.096354167,1,0,0,1.4831,text_option_1,,0,111,111,27,1
5bef1e56c19fcd0001cdf4c7,63f3cfca20052e4ae7554ebf,6453cc782d5b5b11b2d8b5cd,2023-05-04_17h18.09.122,ga_syllabified_check,2022.2.5,Win32,60.40471157,,,,,,,,,,,,,,./stim/p07_syllable_1_lakakiaisto_hit.wav,p07,lakakiaisto,hit,la-ka-kais-to,la-ka-kiais-to,la-ka-ki-ais-to,la-ka-kia-is-to,-0.330729167,-0.09375,1,0,0,17.7142,text_option_1,,0,112,112,150,1
5bef1e56c19fcd0001cdf4c7,63f3cfca20052e4ae7554ebf,6453cc782d5b5b11b2d8b5cd,2023-05-04_17h18.09.122,ga_syllabified_check,2022.2.5,Win32,60.40471157,,,,,,,,,,,,,,./stim/p06_syllable_1_falufaisto_hit.wav,p06,falufaisto,hit,fa-lu-fa-is-to,fa-lu-fais-to,fa-lu-fa-is-to, ,0.358072917,-0.096354167,1,0,0,3.8828,text_option_2,,0,113,113,105,1
5bef1e56c19fcd0001cdf4c7,63f3cfca20052e4ae7554ebf,6453cc782d5b5b11b2d8b5cd,2023-05-04_17h18.09.122,ga_syllabified_check,2022.2.5,Win32,60.40471157,,,,,,,,,,,,,,./stim/p05_syllable_1_manhiala_hit.wav,p05,mañiala,hit,ma-nhia-la,ma-ñia-la,ma-ñi-a-la, ,-0.421875,-0.114583333,1,0,0,1.1181,text_option_1,,0,114,114,89,1
5bef1e56c19fcd0001cdf4c7,63f3cfca20052e4ae7554ebf,6453cc782d5b5b11b2d8b5cd,2023-05-04_17h18.09.122,ga_syllabified_check,2022.2.5,Win32,60.40471157,,,,,,,,,,,,,,./stim/p06_syllable_1_lakapiaisto_hit.wav,p06,lakapiaisto,hit,la-ka-pia-is-to,la-ka-piais-to,la-ka-pi-ais-to,la-ka-pia-is-to,-0.020833333,-0.096354167,1,0,0,4.9662,text_option_3,,0,115,115,118,1
5bef1e56c19fcd0001cdf4c7,63f3cfca20052e4ae7554ebf,6453cc782d5b5b11b2d8b5cd,2023-05-04_17h18.09.122,ga_syllabified_check,2022.2.5,Win32,60.40471157,,,,,,,,,,,,,,./stim/p04_syllable_1_palutrauco_hit.wav,p04,palutrauco,hit,pa-lu-trau-co,pa-lu-trau-co,pa-lu-tra-u-co, ,-0.350260417,-0.098958333,1,0,0,18.5637,text_option_1,,0,116,116,63,1
5bef1e56c19fcd0001cdf4c7,63f3cfca20052e4ae7554ebf,6453cc782d5b5b11b2d8b5cd,2023-05-04_17h18.09.122,ga_syllabified_check,2022.2.5,Win32,60.40471157,,,,,,,,,,,,,,./stim/p05_syllable_1_lakakiaisto_hit.wav,p05,lakakiaisto,hit,la-ka-ki-ais-to,la-ka-kiais-to,la-ka-ki-ais-to,la-ka-kia-is-to,-0.326822917,-0.119791667,1,0,0,1.5999,text_option_1,,0,117,117,82,1
5bef1e56c19fcd0001cdf4c7,63f3cfca20052e4ae7554ebf,6453cc782d5b5b11b2d8b5cd,2023-05-04_17h18.09.122,ga_syllabified_check,2022.2.5,Win32,60.40471157,,,,,,,,,,,,,,./stim/p05_syllable_1_palumaisto_hit.wav,p05,palumaisto,hit,pa-lu-mais-to,pa-lu-mais-to,pa-lu-ma-is-to, ,-0.326822917,-0.119791667,1,0,0,1.0499,text_option_1,,0,118,118,96,1
5bef1e56c19fcd0001cdf4c7,63f3cfca20052e4ae7554ebf,6453cc782d5b5b11b2d8b5cd,2023-05-04_17h18.09.122,ga_syllabified_check,2022.2.5,Win32,60.40471157,,,,,,,,,,,,,,./stim/p03_syllable_1_nhiape_hit.wav,p03,ñiape,hit,nhia-pe,ñia-pe,ñi-a-pe, ,-0.369791667,-0.109375,1,0,0,0.783,text_option_1,,0,119,119,23,1
5bef1e56c19fcd0001cdf4c7,63f3cfca20052e4ae7554ebf,6453cc782d5b5b11b2d8b5cd,2023-05-04_17h18.09.122,ga_syllabified_check,2022.2.5,Win32,60.40471157,,,,,,,,,,,,,,./stim/p06_syllable_1_lakabiaisto_hit.wav,p06,lakabiaisto,hit,la-ka-bia-is-to,la-ka-biais-to,la-ka-bi-ais-to,la-ka-bia-is-to,0.0625,-0.096354167,1,0,0,4.1492,text_option_3,,0,120,120,108,1
5bef1e56c19fcd0001cdf4c7,63f3cfca20052e4ae7554ebf,6453cc782d5b5b11b2d8b5cd,2023-05-04_17h18.09.122,ga_syllabified_check,2022.2.5,Win32,60.40471157,,,,,,,,,,,,,,./stim/p05_syllable_1_nhiape_hit.wav,p05,ñiape,hit,nhia-pe,ñia-pe,ñi-a-pe, ,-0.427083333,-0.087239583,1,0,0,0.9839,text_option_1,,0,121,121,91,1
5bef1e56c19fcd0001cdf4c7,63f3cfca20052e4ae7554ebf,6453cc782d5b5b11b2d8b5cd,2023-05-04_17h18.09.122,ga_syllabified_check,2022.2.5,Win32,60.40471157,,,,,,,,,,,,,,./stim/p07_syllable_1_lakadiaisto_hit.wav,p07,lakadiaisto,hit,la-ka-dia-is-to,la-ka-diais-to,la-ka-di-ais-to,la-ka-dia-is-to,0.059895833,-0.095052083,1,0,0,2.4345,text_option_3,,0,122,122,144,1
5bef1e56c19fcd0001cdf4c7,63f3cfca20052e4ae7554ebf,6453cc782d5b5b11b2d8b5cd,2023-05-04_17h18.09.122,ga_syllabified_check,2022.2.5,Win32,60.40471157,,,,,,,,,,,,,,./stim/p06_syllable_1_mebochiana_hit.wav,p06,mebochiana,hit,me-bo-shi-a-na,me-bo-chia-na,me-bo-chi-a-na, ,0.329427083,-0.095052083,1,0,0,3.2332,text_option_2,,0,123,123,124,1
5bef1e56c19fcd0001cdf4c7,63f3cfca20052e4ae7554ebf,6453cc782d5b5b11b2d8b5cd,2023-05-04_17h18.09.122,ga_syllabified_check,2022.2.5,Win32,60.40471157,,,,,,,,,,,,,,./stim/p04_syllable_1_lakatuaisto_hit.wav,p04,lakatuaisto,hit,la-ka-kuais-to,la-ka-tuais-to,la-ka-tu-ais-to,la-ka-tua-is-to,-0.390625,-0.1015625,1,0,0,1.5666,text_option_1,,0,124,124,53,1
5bef1e56c19fcd0001cdf4c7,63f3cfca20052e4ae7554ebf,6453cc782d5b5b11b2d8b5cd,2023-05-04_17h18.09.122,ga_syllabified_check,2022.2.5,Win32,60.40471157,,,,,,,,,,,,,,./stim/p07_syllable_1_payielo_hit.wav,p07,payielo,hit,pa-yie-lo,pa-yie-lo,pa-yi-e-lo, ,-0.34375,-0.108072917,1,0,0,1.1213,text_option_1,,0,125,125,166,1
5bef1e56c19fcd0001cdf4c7,63f3cfca20052e4ae7554ebf,6453cc782d5b5b11b2d8b5cd,2023-05-04_17h18.09.122,ga_syllabified_check,2022.2.5,Win32,60.40471157,,,,,,,,,,,,,,./stim/p07_syllable_1_palufauto_hit.wav,p07,palufauto,hit,pa-lu-fau-to,pa-lu-fau-to,pa-lu-fa-u-to, ,-0.3203125,-0.1171875,1,0,0,1.75,text_option_1,,0,126,126,162,1
5bef1e56c19fcd0001cdf4c7,63f3cfca20052e4ae7554ebf,6453cc782d5b5b11b2d8b5cd,2023-05-04_17h18.09.122,ga_syllabified_check,2022.2.5,Win32,60.40471157,,,,,,,,,,,,,,./stim/p05_syllable_1_pachialo_hit.wav,p05,pachialo,hit,pan-chia-lo,pa-chia-lo,pa-chi-a-lo, ,-0.3203125,-0.1171875,1,0,0,1.6006,text_option_1,,0,127,127,92,1
5bef1e56c19fcd0001cdf4c7,63f3cfca20052e4ae7554ebf,6453cc782d5b5b11b2d8b5cd,2023-05-04_17h18.09.122,ga_syllabified_check,2022.2.5,Win32,60.40471157,,,,,,,,,,,,,,./stim/p07_syllable_1_lakapuaisto_hit.wav,p07,lakapuaisto,hit,la-ka-puais-to,la-ka-puais-to,la-ka-pu-ais-to,la-ka-pua-is-to,-0.3203125,-0.1171875,1,0,0,1.9333,text_option_1,,0,128,128,153,1
5bef1e56c19fcd0001cdf4c7,63f3cfca20052e4ae7554ebf,6453cc782d5b5b11b2d8b5cd,2023-05-04_17h18.09.122,ga_syllabified_check,2022.2.5,Win32,60.40471157,,,,,,,,,,,,,,./stim/p04_syllable_1_mebochiana_hit.wav,p04,mebochiana,hit,me-bo-chia-na,me-bo-chia-na,me-bo-chi-a-na, ,-0.3203125,-0.1171875,1,0,0,1.1333,text_option_1,,0,129,129,56,1
5bef1e56c19fcd0001cdf4c7,63f3cfca20052e4ae7554ebf,6453cc782d5b5b11b2d8b5cd,2023-05-04_17h18.09.122,ga_syllabified_check,2022.2.5,Win32,60.40471157,,,,,,,,,,,,,,./stim/p06_syllable_1_costonhialo_hit.wav,p06,costoñialo,hit,cos-to-nhia-lo,cos-to-ñia-lo,cos-to-ñi-a-lo, ,-0.3203125,-0.1171875,1,0,0,2.6498,text_option_1,,0,130,130,103,1
5bef1e56c19fcd0001cdf4c7,63f3cfca20052e4ae7554ebf,6453cc782d5b5b11b2d8b5cd,2023-05-04_17h18.09.122,ga_syllabified_check,2022.2.5,Win32,60.40471157,,,,,,,,,,,,,,./stim/p08_syllable_1_costonhialo_hit.wav,p08,costoñialo,hit,cos-to-nhia-lo,cos-to-ñia-lo,cos-to-ñi-a-lo, ,-0.3203125,-0.1171875,1,0,0,2.3001,text_option_1,,0,131,131,171,1
5bef1e56c19fcd0001cdf4c7,63f3cfca20052e4ae7554ebf,6453cc782d5b5b11b2d8b5cd,2023-05-04_17h18.09.122,ga_syllabified_check,2022.2.5,Win32,60.40471157,,,,,,,,,,,,,,./stim/p03_syllable_1_ruyiola_hit.wav,p03,ruyiola,hit,ru-yio-la,ru-yio-la,ru-yi-o-la, ,-0.3515625,-0.106770833,1,0,0,0.9995,text_option_1,,0,132,132,32,1
5bef1e56c19fcd0001cdf4c7,63f3cfca20052e4ae7554ebf,6453cc782d5b5b11b2d8b5cd,2023-05-04_17h18.09.122,ga_syllabified_check,2022.2.5,Win32,60.40471157,,,,,,,,,,,,,,./stim/p06_syllable_1_palufauro_hit.wav,p06,palufauro,hit,pa-lu-fau-ro,pa-lu-fau-ro,pa-lu-fa-u-ro, ,0.430989583,-0.110677083,1,0,0,4.0499,text_option_2,,0,133,133,127,1
5bef1e56c19fcd0001cdf4c7,63f3cfca20052e4ae7554ebf,6453cc782d5b5b11b2d8b5cd,2023-05-04_17h18.09.122,ga_syllabified_check,2022.2.5,Win32,60.40471157,,,,,,,,,,,,,,./stim/p03_syllable_1_lakatiaisto_hit.wav,p03,lakatiaisto,hit,la-ka-tiais-to,la-ka-tiais-to,la-ka-ti-ais-to,la-ka-tia-is-to,-0.390625,-0.110677083,1,0,0,2.8836,text_option_1,,0,134,134,18,1
5bef1e56c19fcd0001cdf4c7,63f3cfca20052e4ae7554ebf,6453cc782d5b5b11b2d8b5cd,2023-05-04_17h18.09.122,ga_syllabified_check,2022.2.5,Win32,60.40471157,,,,,,,,,,,,,,./stim/p05_syllable_1_lakatiaisto_hit.wav,p05,lakatiaisto,hit,la-ka-ti-ais-to,la-ka-tiais-to,la-ka-ti-ais-to,la-ka-tia-is-to,-0.34765625,-0.096354167,1,0,0,1.8833,text_option_1,,0,135,135,86,1
5bef1e56c19fcd0001cdf4c7,63f3cfca20052e4ae7554ebf,6453cc782d5b5b11b2d8b5cd,2023-05-04_17h18.09.122,ga_syllabified_check,2022.2.5,Win32,60.40471157,,,,,,,,,,,,,,./stim/p05_syllable_1_lakatuaisto_hit.wav,p05,lakatuaisto,hit,la-ka-tais-to,la-ka-tuais-to,la-ka-tu-ais-to,la-ka-tua-is-to,-0.345052083,-0.09375,1,0,0,2.1564,text_option_1,,0,136,136,87,1
5bef1e56c19fcd0001cdf4c7,63f3cfca20052e4ae7554ebf,6453cc782d5b5b11b2d8b5cd,2023-05-04_17h18.09.122,ga_syllabified_check,2022.2.5,Win32,60.40471157,,,,,,,,,,,,,,./stim/p05_syllable_1_palufauto_hit.wav,p05,palufauto,hit,pa-lu-fau-to,pa-lu-fau-to,pa-lu-fa-u-to, ,-0.346354167,-0.102864583,1,0,0,1.7495,text_option_1,,0,137,137,94,1
5bef1e56c19fcd0001cdf4c7,63f3cfca20052e4ae7554ebf,6453cc782d5b5b11b2d8b5cd,2023-05-04_17h18.09.122,ga_syllabified_check,2022.2.5,Win32,60.40471157,,,,,,,,,,,,,,./stim/p08_syllable_1_lakakiaisto_hit.wav,p08,lakakiaisto,hit,la-ka-ki-jas-to,la-ka-kiais-to,la-ka-ki-ais-to,la-ka-kia-is-to,-0.34375,-0.102864583,1,0,0,3.0483,text_option_1,,0,138,138,184,1
5bef1e56c19fcd0001cdf4c7,63f3cfca20052e4ae7554ebf,6453cc782d5b5b11b2d8b5cd,2023-05-04_17h18.09.122,ga_syllabified_check,2022.2.5,Win32,60.40471157,,,,,,,,,,,,,,./stim/p03_syllable_1_lliape_hit.wav,p03,lliape,hit,llia,llia-pe,lli-a-pe, ,-0.37109375,-0.102864583,1,0,0,0.6992,text_option_1,,0,139,139,20,1
5bef1e56c19fcd0001cdf4c7,63f3cfca20052e4ae7554ebf,6453cc782d5b5b11b2d8b5cd,2023-05-04_17h18.09.122,ga_syllabified_check,2022.2.5,Win32,60.40471157,,,,,,,,,,,,,,./stim/p04_syllable_1_chiaba_hit.wav,p04,chiaba,hit,chia-ba,chia-ba,chi-a-ba, ,-0.37109375,-0.102864583,1,0,0,0.169,text_option_1,,0,140,140,34,1
5bef1e56c19fcd0001cdf4c7,63f3cfca20052e4ae7554ebf,6453cc782d5b5b11b2d8b5cd,2023-05-04_17h18.09.122,ga_syllabified_check,2022.2.5,Win32,60.40471157,,,,,,,,,,,,,,./stim/p08_syllable_1_lakatiaisto_hit.wav,p08,lakatiaisto,hit,la-ka-ti-as-to,la-ka-tiais-to,la-ka-ti-ais-to,la-ka-tia-is-to,-0.37109375,-0.102864583,1,0,0,3.1336,text_option_1,,0,141,141,188,1
5bef1e56c19fcd0001cdf4c7,63f3cfca20052e4ae7554ebf,6453cc782d5b5b11b2d8b5cd,2023-05-04_17h18.09.122,ga_syllabified_check,2022.2.5,Win32,60.40471157,,,,,,,,,,,,,,./stim/p04_syllable_1_faluduako_hit.wav,p04,faluduako,hit,fa-lu-dua-ko,fa-lu-dua-ko,fa-lu-du-a-ko, ,-0.37109375,-0.102864583,1,0,0,1.1666,text_option_1,,0,142,142,36,1
5bef1e56c19fcd0001cdf4c7,63f3cfca20052e4ae7554ebf,6453cc782d5b5b11b2d8b5cd,2023-05-04_17h18.09.122,ga_syllabified_check,2022.2.5,Win32,60.40471157,,,,,,,,,,,,,,./stim/p06_syllable_1_nhiape_hit.wav,p06,ñiape,hit,nhi-a-pe,ñia-pe,ñi-a-pe, ,0.419270833,-0.1015625,1,0,0,1.5499,text_option_2,,0,143,143,125,1
5bef1e56c19fcd0001cdf4c7,63f3cfca20052e4ae7554ebf,6453cc782d5b5b11b2d8b5cd,2023-05-04_17h18.09.122,ga_syllabified_check,2022.2.5,Win32,60.40471157,,,,,,,,,,,,,,./stim/p05_syllable_1_mebochiana_hit.wav,p05,mebochiana,hit,me-cho-chai-na,me-bo-chia-na,me-bo-chi-a-na, ,-0.33984375,-0.10546875,1,0,0,2.4829,text_option_1,,0,144,144,90,1
5bef1e56c19fcd0001cdf4c7,63f3cfca20052e4ae7554ebf,6453cc782d5b5b11b2d8b5cd,2023-05-04_17h18.09.122,ga_syllabified_check,2022.2.5,Win32,60.40471157,,,,,,,,,,,,,,./stim/p05_syllable_1_costonhialo_hit.wav,p05,costoñialo,hit,cos-to-nhia-lo,cos-to-ñia-lo,cos-to-ñi-a-lo, ,-0.3203125,-0.095052083,1,0,0,1.0503,text_option_1,,0,145,145,69,1
5bef1e56c19fcd0001cdf4c7,63f3cfca20052e4ae7554ebf,6453cc782d5b5b11b2d8b5cd,2023-05-04_17h18.09.122,ga_syllabified_check,2022.2.5,Win32,60.40471157,,,,,,,,,,,,,,./stim/p04_syllable_1_palufauro_hit.wav,p04,palufauro,hit,pa-lu-fau-ro,pa-lu-fau-ro,pa-lu-fa-u-ro, ,-0.360677083,-0.104166667,1,0,0,1.3002,text_option_1,,0,146,146,59,1
5bef1e56c19fcd0001cdf4c7,63f3cfca20052e4ae7554ebf,6453cc782d5b5b11b2d8b5cd,2023-05-04_17h18.09.122,ga_syllabified_check,2022.2.5,Win32,60.40471157,,,,,,,,,,,,,,./stim/p04_syllable_1_lakatiaisto_hit.wav,p04,lakatiaisto,hit,la-ka-kiais-to,la-ka-tiais-to,la-ka-ti-ais-to,la-ka-tia-is-to,-0.317708333,-0.108072917,1,0,0,1.4998,text_option_1,,0,147,147,52,1
5bef1e56c19fcd0001cdf4c7,63f3cfca20052e4ae7554ebf,6453cc782d5b5b11b2d8b5cd,2023-05-04_17h18.09.122,ga_syllabified_check,2022.2.5,Win32,60.40471157,,,,,,,,,,,,,,./stim/p08_syllable_1_tuliafo_hit.wav,p08,tuliafo,hit,tu-li-a-fo,tu-lia-fo,tu-li-a-fo, ,0.399739583,-0.102864583,1,0,0,1.9831,text_option_2,,0,148,148,203,1
5bef1e56c19fcd0001cdf4c7,63f3cfca20052e4ae7554ebf,6453cc782d5b5b11b2d8b5cd,2023-05-04_17h18.09.122,ga_syllabified_check,2022.2.5,Win32,60.40471157,,,,,,,,,,,,,,./stim/p04_syllable_1_lakakuaisto_hit.wav,p04,lakakuaisto,hit,la-ka-kuais-to,la-ka-kuais-to,la-ka-ku-ais-to,la-ka-kua-is-to,-0.419270833,-0.095052083,1,0,0,1.2495,text_option_1,,0,149,149,49,1
5bef1e56c19fcd0001cdf4c7,63f3cfca20052e4ae7554ebf,6453cc782d5b5b11b2d8b5cd,2023-05-04_17h18.09.122,ga_syllabified_check,2022.2.5,Win32,60.40471157,,,,,,,,,,,,,,./stim/p06_syllable_1_lakapuaisto_hit.wav,p06,lakapuaisto,hit,la-ka-pu-a-is,la-ka-puais-to,la-ka-pu-ais-to,la-ka-pua-is-to,-0.016927083,-0.311197917,1,0,0,5.835,text_option_other,la-ka-pu-a-is-to,0,150,150,119,1
5bef1e56c19fcd0001cdf4c7,63f3cfca20052e4ae7554ebf,6453cc782d5b5b11b2d8b5cd,2023-05-04_17h18.09.122,ga_syllabified_check,2022.2.5,Win32,60.40471157,,,,,,,,,,,,,,./stim/p03_syllable_1_lakapiaisto_hit.wav,p03,lakapiaisto,hit,la-ka-piais-to,la-ka-piais-to,la-ka-pi-ais-to,la-ka-pia-is-to,-0.348958333,-0.115885417,1,0,0,1.516,text_option_1,,0,151,151,16,1
5bef1e56c19fcd0001cdf4c7,63f3cfca20052e4ae7554ebf,6453cc782d5b5b11b2d8b5cd,2023-05-04_17h18.09.122,ga_syllabified_check,2022.2.5,Win32,60.40471157,,,,,,,,,,,,,,./stim/p07_syllable_1_paluguato_hit.wav,p07,paluguato,hit,pa-lu-gua-to,pa-lu-gua-to,pa-lu-gu-a-to, ,-0.330729167,-0.115885417,1,0,0,1.0997,text_option_1,,0,152,152,163,1
5bef1e56c19fcd0001cdf4c7,63f3cfca20052e4ae7554ebf,6453cc782d5b5b11b2d8b5cd,2023-05-04_17h18.09.122,ga_syllabified_check,2022.2.5,Win32,60.40471157,,,,,,,,,,,,,,./stim/p07_syllable_1_mebochiana_hit.wav,p07,mebochiana,hit,me-bo-chia-na,me-bo-chia-na,me-bo-chi-a-na, ,-0.321614583,-0.1171875,1,0,0,2.4496,text_option_1,,0,153,153,158,1
5bef1e56c19fcd0001cdf4c7,63f3cfca20052e4ae7554ebf,6453cc782d5b5b11b2d8b5cd,2023-05-04_17h18.09.122,ga_syllabified_check,2022.2.5,Win32,60.40471157,,,,,,,,,,,,,,./stim/p08_syllable_1_nhiape_hit.wav,p08,ñiape,hit,ni-a-pe,ñia-pe,ñi-a-pe, ,0.3671875,-0.108072917,1,0,0,1.3165,text_option_2,,0,154,154,193,1
5bef1e56c19fcd0001cdf4c7,63f3cfca20052e4ae7554ebf,6453cc782d5b5b11b2d8b5cd,2023-05-04_17h18.09.122,ga_syllabified_check,2022.2.5,Win32,60.40471157,,,,,,,,,,,,,,./stim/p03_syllable_1_lakatuaisto_hit.wav,p03,lakatuaisto,hit,la-ka-tuais-to,la-ka-tuais-to,la-ka-tu-ais-to,la-ka-tua-is-to,-0.328125,-0.111979167,1,0,0,2.5504,text_option_1,,0,155,155,19,1
5bef1e56c19fcd0001cdf4c7,63f3cfca20052e4ae7554ebf,6453cc782d5b5b11b2d8b5cd,2023-05-04_17h18.09.122,ga_syllabified_check,2022.2.5,Win32,60.40471157,,,,,,,,,,,,,,./stim/p07_syllable_1_lakapiaisto_hit.wav,p07,lakapiaisto,hit,la-ka-pia-sto,la-ka-piais-to,la-ka-pi-ais-to,la-ka-pia-is-to,-0.325520833,-0.102864583,1,0,0,4.066,text_option_1,,0,156,156,152,1
5bef1e56c19fcd0001cdf4c7,63f3cfca20052e4ae7554ebf,6453cc782d5b5b11b2d8b5cd,2023-05-04_17h18.09.122,ga_syllabified_check,2022.2.5,Win32,60.40471157,,,,,,,,,,,,,,./stim/p07_syllable_1_lakatiaisto_hit.wav,p07,lakatiaisto,hit,la-ka-tiai-sto,la-ka-tiais-to,la-ka-ti-ais-to,la-ka-tia-is-to,-0.325520833,-0.102864583,1,0,0,2.833,text_option_1,,0,157,157,154,1
5bef1e56c19fcd0001cdf4c7,63f3cfca20052e4ae7554ebf,6453cc782d5b5b11b2d8b5cd,2023-05-04_17h18.09.122,ga_syllabified_check,2022.2.5,Win32,60.40471157,,,,,,,,,,,,,,./stim/p06_syllable_1_payielo_hit.wav,p06,payielo,hit,pa-yi-e-lo,pa-yie-lo,pa-yi-e-lo, ,0.389322917,-0.092447917,1,0,0,1.8496,text_option_2,,0,158,158,132,1
5bef1e56c19fcd0001cdf4c7,63f3cfca20052e4ae7554ebf,6453cc782d5b5b11b2d8b5cd,2023-05-04_17h18.09.122,ga_syllabified_check,2022.2.5,Win32,60.40471157,,,,,,,,,,,,,,./stim/p08_syllable_1_lakaguaisto_hit.wav,p08,lakaguaisto,hit,la-ka-gu-ais-to,la-ka-guais-to,la-ka-gu-ais-to,la-ka-gua-is-to,0.029947917,-0.11328125,1,0,0,4.0662,text_option_3,,0,159,159,183,1
5bef1e56c19fcd0001cdf4c7,63f3cfca20052e4ae7554ebf,6453cc782d5b5b11b2d8b5cd,2023-05-04_17h18.09.122,ga_syllabified_check,2022.2.5,Win32,60.40471157,,,,,,,,,,,,,,./stim/p06_syllable_1_palutrauco_hit.wav,p06,palutrauco,hit,pa-lu-tra-u-co,pa-lu-trau-co,pa-lu-tra-u-co, ,0.455729167,-0.10546875,1,0,0,2.4832,text_option_2,,0,160,160,131,1
5bef1e56c19fcd0001cdf4c7,63f3cfca20052e4ae7554ebf,6453cc782d5b5b11b2d8b5cd,2023-05-04_17h18.09.122,ga_syllabified_check,2022.2.5,Win32,60.40471157,,,,,,,,,,,,,,./stim/p07_syllable_1_ruyiola_hit.wav,p07,ruyiola,hit,ru-yio-la,ru-yio-la,ru-yi-o-la, ,-0.381510417,-0.09375,1,0,0,1.1002,text_option_1,,0,161,161,168,1
5bef1e56c19fcd0001cdf4c7,63f3cfca20052e4ae7554ebf,6453cc782d5b5b11b2d8b5cd,2023-05-04_17h18.09.122,ga_syllabified_check,2022.2.5,Win32,60.40471157,,,,,,,,,,,,,,./stim/p05_syllable_1_lakafuaisto_hit.wav,p05,lakafuaisto,hit,la-ka-fais-to,la-ka-fuais-to,la-ka-fu-ais-to,la-ka-fua-is-to,-0.381510417,-0.09375,1,0,0,2.9517,text_option_1,,0,162,162,79,1
5bef1e56c19fcd0001cdf4c7,63f3cfca20052e4ae7554ebf,6453cc782d5b5b11b2d8b5cd,2023-05-04_17h18.09.122,ga_syllabified_check,2022.2.5,Win32,60.40471157,,,,,,,,,,,,,,./stim/p07_syllable_1_falufaisto_hit.wav,p07,falufaisto,hit,fa-lu-fais-to,fa-lu-fais-to,fa-lu-fa-is-to, ,-0.345052083,-0.09765625,1,0,0,1.6003,text_option_1,,0,163,163,139,1
5bef1e56c19fcd0001cdf4c7,63f3cfca20052e4ae7554ebf,6453cc782d5b5b11b2d8b5cd,2023-05-04_17h18.09.122,ga_syllabified_check,2022.2.5,Win32,60.40471157,,,,,,,,,,,,,,./stim/p03_syllable_1_lakapuaisto_hit.wav,p03,lakapuaisto,hit,la-ka-puais-to,la-ka-puais-to,la-ka-pu-ais-to,la-ka-pua-is-to,-0.345052083,-0.09765625,1,0,0,11.9476,text_option_1,,0,164,164,17,1
5bef1e56c19fcd0001cdf4c7,63f3cfca20052e4ae7554ebf,6453cc782d5b5b11b2d8b5cd,2023-05-04_17h18.09.122,ga_syllabified_check,2022.2.5,Win32,60.40471157,,,,,,,,,,,,,,./stim/p05_syllable_1_lliape_hit.wav,p05,lliape,hit,liai-pe,llia-pe,lli-a-pe, ,-0.345052083,-0.09765625,1,0,0,2.6841,text_option_1,,0,165,165,88,1
5bef1e56c19fcd0001cdf4c7,63f3cfca20052e4ae7554ebf,6453cc782d5b5b11b2d8b5cd,2023-05-04_17h18.09.122,ga_syllabified_check,2022.2.5,Win32,60.40471157,,,,,,,,,,,,,,./stim/p06_syllable_1_lakakuaisto_hit.wav,p06,lakakuaisto,hit,la-ka-ku-a-is,la-ka-kuais-to,la-ka-ku-ais-to,la-ka-kua-is-to,0.446614583,-0.108072917,1,0,0,3.666,text_option_2,,0,166,166,117,1
5bef1e56c19fcd0001cdf4c7,63f3cfca20052e4ae7554ebf,6453cc782d5b5b11b2d8b5cd,2023-05-04_17h18.09.122,ga_syllabified_check,2022.2.5,Win32,60.40471157,,,,,,,,,,,,,,./stim/p06_syllable_1_ruyiola_hit.wav,p06,ruyiola,hit,ru-yi-o-la,ru-yio-la,ru-yi-o-la, ,0.459635417,-0.092447917,1,0,0,1.7997,text_option_2,,0,167,167,134,1
5bef1e56c19fcd0001cdf4c7,63f3cfca20052e4ae7554ebf,6453cc782d5b5b11b2d8b5cd,2023-05-04_17h18.09.122,ga_syllabified_check,2022.2.5,Win32,60.40471157,,,,,,,,,,,,,,./stim/p03_syllable_1_lakabiaisto_hit.wav,p03,lakabiaisto,hit,la-ka-biais-to,la-ka-biais-to,la-ka-bi-ais-to,la-ka-bia-is-to,-0.359375,-0.110677083,1,0,0,1.6499,text_option_1,,0,168,168,6,1
5bef1e56c19fcd0001cdf4c7,63f3cfca20052e4ae7554ebf,6453cc782d5b5b11b2d8b5cd,2023-05-04_17h18.09.122,ga_syllabified_check,2022.2.5,Win32,60.40471157,,,,,,,,,,,,,,./stim/p05_syllable_1_lakabiaisto_hit.wav,p05,lakabiaisto,hit,la-ka-bi-ais-to,la-ka-biais-to,la-ka-bi-ais-to,la-ka-bia-is-to,-0.399739583,-0.09375,1,0,0,1.8117,text_option_1,,0,169,169,74,1
5bef1e56c19fcd0001cdf4c7,63f3cfca20052e4ae7554ebf,6453cc782d5b5b11b2d8b5cd,2023-05-04_17h18.09.122,ga_syllabified_check,2022.2.5,Win32,60.40471157,,,,,,,,,,,,,,./stim/p04_syllable_1_pachialo_hit.wav,p04,pachialo,hit,pa-chia-lo,pa-chia-lo,pa-chi-a-lo, ,-0.399739583,-0.09375,1,0,0,1.2502,text_option_1,,0,170,170,58,1
5bef1e56c19fcd0001cdf4c7,63f3cfca20052e4ae7554ebf,6453cc782d5b5b11b2d8b5cd,2023-05-04_17h18.09.122,ga_syllabified_check,2022.2.5,Win32,60.40471157,,,,,,,,,,,,,,./stim/p04_syllable_1_palufauto_hit.wav,p04,palufauto,hit,pa-lu-fau-to,pa-lu-fau-to,pa-lu-fa-u-to, ,-0.376302083,-0.095052083,1,0,0,0.8168,text_option_1,,0,171,171,60,1
5bef1e56c19fcd0001cdf4c7,63f3cfca20052e4ae7554ebf,6453cc782d5b5b11b2d8b5cd,2023-05-04_17h18.09.122,ga_syllabified_check,2022.2.5,Win32,60.40471157,,,,,,,,,,,,,,./stim/p04_syllable_1_flauro_hit.wav,p04,flauro,hit,flau-ro,flau-ro,fla-u-ro, ,-0.376302083,-0.095052083,1,0,0,0.3333,text_option_1,,0,172,172,39,1
5bef1e56c19fcd0001cdf4c7,63f3cfca20052e4ae7554ebf,6453cc782d5b5b11b2d8b5cd,2023-05-04_17h18.09.122,ga_syllabified_check,2022.2.5,Win32,60.40471157,,,,,,,,,,,,,,./stim/p03_syllable_1_costonhialo_hit.wav,p03,costoñialo,hit,cos-to-nhia-lo,cos-to-ñia-lo,cos-to-ñi-a-lo, ,-0.376302083,-0.095052083,1,0,0,1.2834,text_option_1,,0,173,173,1,1
5bef1e56c19fcd0001cdf4c7,63f3cfca20052e4ae7554ebf,6453cc782d5b5b11b2d8b5cd,2023-05-04_17h18.09.122,ga_syllabified_check,2022.2.5,Win32,60.40471157,,,,,,,,,,,,,,./stim/p07_syllable_1_costonhialo_hit.wav,p07,costoñialo,hit,cos-to-nhia-lo,cos-to-ñia-lo,cos-to-ñi-a-lo, ,-0.376302083,-0.095052083,1,0,0,1.5534,text_option_1,,0,174,174,137,1
5bef1e56c19fcd0001cdf4c7,63f3cfca20052e4ae7554ebf,6453cc782d5b5b11b2d8b5cd,2023-05-04_17h18.09.122,ga_syllabified_check,2022.2.5,Win32,60.40471157,,,,,,,,,,,,,,./stim/p03_syllable_1_lakabuaisto_hit.wav,p03,lakabuaisto,hit,la-ka-buais-to,la-ka-buais-to,la-ka-bu-ais-to,la-ka-bua-is-to,-0.376302083,-0.095052083,1,0,0,1.35,text_option_1,,0,175,175,7,1
5bef1e56c19fcd0001cdf4c7,63f3cfca20052e4ae7554ebf,6453cc782d5b5b11b2d8b5cd,2023-05-04_17h18.09.122,ga_syllabified_check,2022.2.5,Win32,60.40471157,,,,,,,,,,,,,,./stim/p03_syllable_1_lakafiaisto_hit.wav,p03,lakafiaisto,hit,la-ka-fiais-to,la-ka-fiais-to,la-ka-fi-ais-to,la-ka-fia-is-to,-0.376302083,-0.095052083,1,0,0,1.0999,text_option_1,,0,176,176,10,1
5bef1e56c19fcd0001cdf4c7,63f3cfca20052e4ae7554ebf,6453cc782d5b5b11b2d8b5cd,2023-05-04_17h18.09.122,ga_syllabified_check,2022.2.5,Win32,60.40471157,,,,,,,,,,,,,,./stim/p08_syllable_1_paluguato_hit.wav,p08,paluguato,hit,pa-lu-gua-to,pa-lu-gua-to,pa-lu-gu-a-to, ,-0.376302083,-0.095052083,1,0,0,2.0666,text_option_1,,0,177,177,197,1
5bef1e56c19fcd0001cdf4c7,63f3cfca20052e4ae7554ebf,6453cc782d5b5b11b2d8b5cd,2023-05-04_17h18.09.122,ga_syllabified_check,2022.2.5,Win32,60.40471157,,,,,,,,,,,,,,./stim/p04_syllable_1_lakabiaisto_hit.wav,p04,lakabiaisto,hit,la-ka-biais-to,la-ka-biais-to,la-ka-bi-ais-to,la-ka-bia-is-to,-0.376302083,-0.095052083,1,0,0,1.3497,text_option_1,,0,178,178,40,1
5bef1e56c19fcd0001cdf4c7,63f3cfca20052e4ae7554ebf,6453cc782d5b5b11b2d8b5cd,2023-05-04_17h18.09.122,ga_syllabified_check,2022.2.5,Win32,60.40471157,,,,,,,,,,,,,,./stim/p05_syllable_1_falutraigo_hit.wav,p05,falutraigo,hit,fa-lu-trai-go,fa-lu-trai-go,fa-lu-tra-i-go, ,-0.376302083,-0.095052083,1,0,0,4.0836,text_option_1,,0,179,179,72,1
5bef1e56c19fcd0001cdf4c7,63f3cfca20052e4ae7554ebf,6453cc782d5b5b11b2d8b5cd,2023-05-04_17h18.09.122,ga_syllabified_check,2022.2.5,Win32,60.40471157,,,,,,,,,,,,,,./stim/p04_syllable_1_lakafuaisto_hit.wav,p04,lakafuaisto,hit,la-ka-fuais-to,la-ka-fuais-to,la-ka-fu-ais-to,la-ka-fua-is-to,-0.376302083,-0.095052083,1,0,0,0.9997,text_option_1,,0,180,180,45,1
5bef1e56c19fcd0001cdf4c7,63f3cfca20052e4ae7554ebf,6453cc782d5b5b11b2d8b5cd,2023-05-04_17h18.09.122,ga_syllabified_check,2022.2.5,Win32,60.40471157,,,,,,,,,,,,,,./stim/p03_syllable_1_manhiala_hit.wav,p03,mañiala,hit,ma-nhia-la,ma-ñia-la,ma-ñi-a-la, ,-0.376302083,-0.095052083,1,0,0,1.6335,text_option_1,,0,181,181,21,1
5bef1e56c19fcd0001cdf4c7,63f3cfca20052e4ae7554ebf,6453cc782d5b5b11b2d8b5cd,2023-05-04_17h18.09.122,ga_syllabified_check,2022.2.5,Win32,60.40471157,,,,,,,,,,,,,,./stim/p08_syllable_1_chiaba_hit.wav,p08,chiaba,hit,chi-a-ba,chia-ba,chi-a-ba, ,0.432291667,-0.11328125,1,0,0,1.1663,text_option_2,,0,182,182,170,1
5bef1e56c19fcd0001cdf4c7,63f3cfca20052e4ae7554ebf,6453cc782d5b5b11b2d8b5cd,2023-05-04_17h18.09.122,ga_syllabified_check,2022.2.5,Win32,60.40471157,,,,,,,,,,,,,,./stim/p04_syllable_1_payielo_hit.wav,p04,payielo,hit,pa-yie-lo,pa-yie-lo,pa-yi-e-lo, ,-0.420572917,-0.1015625,1,0,0,0.5833,text_option_1,,0,183,183,64,1
5bef1e56c19fcd0001cdf4c7,63f3cfca20052e4ae7554ebf,6453cc782d5b5b11b2d8b5cd,2023-05-04_17h18.09.122,ga_syllabified_check,2022.2.5,Win32,60.40471157,,,,,,,,,,,,,,./stim/p05_syllable_1_lakaguaisto_hit.wav,p05,lakaguaisto,hit,la-ka-gais,la-ka-guais-to,la-ka-gu-ais-to,la-ka-gua-is-to,-0.377604167,-0.104166667,1,0,0,1.3992,text_option_1,,0,184,184,81,1
5bef1e56c19fcd0001cdf4c7,63f3cfca20052e4ae7554ebf,6453cc782d5b5b11b2d8b5cd,2023-05-04_17h18.09.122,ga_syllabified_check,2022.2.5,Win32,60.40471157,,,,,,,,,,,,,,./stim/p07_syllable_1_falutraigo_hit.wav,p07,falutraigo,hit,fa-lu-trai-go,fa-lu-trai-go,fa-lu-tra-i-go, ,-0.348958333,-0.10546875,1,0,0,2.4329,text_option_1,,0,185,185,140,1
5bef1e56c19fcd0001cdf4c7,63f3cfca20052e4ae7554ebf,6453cc782d5b5b11b2d8b5cd,2023-05-04_17h18.09.122,ga_syllabified_check,2022.2.5,Win32,60.40471157,,,,,,,,,,,,,,./stim/p03_syllable_1_lakakiaisto_hit.wav,p03,lakakiaisto,hit,la-ka-kiais-to,la-ka-kiais-to,la-ka-ki-ais-to,la-ka-kia-is-to,-0.348958333,-0.10546875,1,0,0,2.7294,text_option_1,,0,186,186,14,1
5bef1e56c19fcd0001cdf4c7,63f3cfca20052e4ae7554ebf,6453cc782d5b5b11b2d8b5cd,2023-05-04_17h18.09.122,ga_syllabified_check,2022.2.5,Win32,60.40471157,,,,,,,,,,,,,,./stim/p08_syllable_1_faluduako_hit.wav,p08,faluduako,hit,fa-lu-duai-ko,fa-lu-dua-ko,fa-lu-du-a-ko, ,-0.334635417,-0.1015625,1,0,0,2.8663,text_option_1,,0,187,187,172,1
5bef1e56c19fcd0001cdf4c7,63f3cfca20052e4ae7554ebf,6453cc782d5b5b11b2d8b5cd,2023-05-04_17h18.09.122,ga_syllabified_check,2022.2.5,Win32,60.40471157,,,,,,,,,,,,,,./stim/p07_syllable_1_lakafuaisto_hit.wav,p07,lakafuaisto,hit,la-ka-fuais-to,la-ka-fuais-to,la-ka-fu-ais-to,la-ka-fua-is-to,-0.342447917,-0.095052083,1,0,0,2.2666,text_option_1,,0,188,188,147,1
5bef1e56c19fcd0001cdf4c7,63f3cfca20052e4ae7554ebf,6453cc782d5b5b11b2d8b5cd,2023-05-04_17h18.09.122,ga_syllabified_check,2022.2.5,Win32,60.40471157,,,,,,,,,,,,,,./stim/p05_syllable_1_palutrauco_hit.wav,p05,palutrauco,hit,pa-lu-trai-co,pa-lu-trau-co,pa-lu-tra-u-co, ,-0.286458333,-0.122395833,1,0,0,2.4505,text_option_1,,0,189,189,97,1
5bef1e56c19fcd0001cdf4c7,63f3cfca20052e4ae7554ebf,6453cc782d5b5b11b2d8b5cd,2023-05-04_17h18.09.122,ga_syllabified_check,2022.2.5,Win32,60.40471157,,,,,,,,,,,,,,./stim/p06_syllable_1_chiaba_hit.wav,p06,chiaba,hit,chi-a-ba,chia-ba,chi-a-ba, ,-0.356770833,-0.104166667,1,0,0,9.5644,text_option_1,,0,190,190,102,1
5bef1e56c19fcd0001cdf4c7,63f3cfca20052e4ae7554ebf,6453cc782d5b5b11b2d8b5cd,2023-05-04_17h18.09.122,ga_syllabified_check,2022.2.5,Win32,60.40471157,,,,,,,,,,,,,,./stim/p06_syllable_1_pachialo_hit.wav,p06,pachialo,hit,pa-shi-a-lo,pa-chia-lo,pa-chi-a-lo, ,0.321614583,-0.095052083,1,0,0,4.1997,text_option_2,,0,191,191,126,1
5bef1e56c19fcd0001cdf4c7,63f3cfca20052e4ae7554ebf,6453cc782d5b5b11b2d8b5cd,2023-05-04_17h18.09.122,ga_syllabified_check,2022.2.5,Win32,60.40471157,,,,,,,,,,,,,,./stim/p08_syllable_1_rausto_hit.wav,p08,rausto,hit,raus-to,raus-to,ra-us-to, ,-0.35546875,-0.092447917,1,0,0,0.8325,text_option_1,,0,192,192,201,1
5bef1e56c19fcd0001cdf4c7,63f3cfca20052e4ae7554ebf,6453cc782d5b5b11b2d8b5cd,2023-05-04_17h18.09.122,ga_syllabified_check,2022.2.5,Win32,60.40471157,,,,,,,,,,,,,,./stim/p06_syllable_1_paluguato_hit.wav,p06,paluguato,hit,pa-lu-gua-to,pa-lu-gua-to,pa-lu-gu-a-to, ,-0.35546875,-0.092447917,1,0,0,2.6155,text_option_1,,0,193,193,129,1
5bef1e56c19fcd0001cdf4c7,63f3cfca20052e4ae7554ebf,6453cc782d5b5b11b2d8b5cd,2023-05-04_17h18.09.122,ga_syllabified_check,2022.2.5,Win32,60.40471157,,,,,,,,,,,,,,./stim/p08_syllable_1_manhiala_hit.wav,p08,mañiala,hit,ma-nhia-la,ma-ñia-la,ma-ñi-a-la, ,-0.337239583,-0.098958333,1,0,0,1.4499,text_option_1,,0,194,194,191,1
5bef1e56c19fcd0001cdf4c7,63f3cfca20052e4ae7554ebf,6453cc782d5b5b11b2d8b5cd,2023-05-04_17h18.09.122,ga_syllabified_check,2022.2.5,Win32,60.40471157,,,,,,,,,,,,,,./stim/p04_syllable_1_lakagiaisto_hit.wav,p04,lakagiaisto,hit,la-ka-giais-to,la-ka-giais-to,la-ka-gi-ais-to,la-ka-gia-is-to,-0.360677083,-0.114583333,1,0,0,1.833,text_option_1,,0,195,195,46,1
5bef1e56c19fcd0001cdf4c7,63f3cfca20052e4ae7554ebf,6453cc782d5b5b11b2d8b5cd,2023-05-04_17h18.09.122,ga_syllabified_check,2022.2.5,Win32,60.40471157,,,,,,,,,,,,,,./stim/p05_syllable_1_lakabuaisto_hit.wav,p05,lakabuaisto,hit,la-ka-buais-to,la-ka-buais-to,la-ka-bu-ais-to,la-ka-bua-is-to,-0.360677083,-0.114583333,1,0,0,1.3666,text_option_1,,0,196,196,75,1
5bef1e56c19fcd0001cdf4c7,63f3cfca20052e4ae7554ebf,6453cc782d5b5b11b2d8b5cd,2023-05-04_17h18.09.122,ga_syllabified_check,2022.2.5,Win32,60.40471157,,,,,,,,,,,,,,./stim/p04_syllable_1_falutraigo_hit.wav,p04,falutraigo,hit,fa-lu-trai-go,fa-lu-trai-go,fa-lu-tra-i-go, ,-0.360677083,-0.114583333,1,0,0,0.8498,text_option_1,,0,197,197,38,1
5bef1e56c19fcd0001cdf4c7,63f3cfca20052e4ae7554ebf,6453cc782d5b5b11b2d8b5cd,2023-05-04_17h18.09.122,ga_syllabified_check,2022.2.5,Win32,60.40471157,,,,,,,,,,,,,,./stim/p06_syllable_1_lakatiaisto_hit.wav,p06,lakatiaisto,hit,la-ka-pia-is-to,la-ka-tiais-to,la-ka-ti-ais-to,la-ka-tia-is-to,0.02734375,-0.1015625,1,0,0,3.6994,text_option_3,,0,198,198,120,1
5bef1e56c19fcd0001cdf4c7,63f3cfca20052e4ae7554ebf,6453cc782d5b5b11b2d8b5cd,2023-05-04_17h18.09.122,ga_syllabified_check,2022.2.5,Win32,60.40471157,,,,,,,,,,,,,,./stim/p04_syllable_1_lakadiaisto_hit.wav,p04,lakadiaisto,hit,la-ka-dias-to,la-ka-diais-to,la-ka-di-ais-to,la-ka-dia-is-to,-0.34375,-0.08984375,1,0,0,1.4998,text_option_1,,0,199,199,42,1
5bef1e56c19fcd0001cdf4c7,63f3cfca20052e4ae7554ebf,6453cc782d5b5b11b2d8b5cd,2023-05-04_17h18.09.122,ga_syllabified_check,2022.2.5,Win32,60.40471157,,,,,,,,,,,,,,./stim/p08_syllable_1_ruyiola_hit.wav,p08,ruyiola,hit,ru-yio-la,ru-yio-la,ru-yi-o-la, ,-0.334635417,-0.098958333,1,0,0,1.0998,text_option_1,,0,200,200,202,1
5bef1e56c19fcd0001cdf4c7,63f3cfca20052e4ae7554ebf,6453cc782d5b5b11b2d8b5cd,2023-05-04_17h18.09.122,ga_syllabified_check,2022.2.5,Win32,60.40471157,,,,,,,,,,,,,,./stim/p03_syllable_1_palufauto_hit.wav,p03,palufauto,hit,pa-lu-fau,pa-lu-fau-to,pa-lu-fa-u-to, ,-0.34765625,-0.104166667,1,0,0,1.2657,text_option_1,,0,201,201,26,1
5bef1e56c19fcd0001cdf4c7,63f3cfca20052e4ae7554ebf,6453cc782d5b5b11b2d8b5cd,2023-05-04_17h18.09.122,ga_syllabified_check,2022.2.5,Win32,60.40471157,,,,,,,,,,,,,,./stim/p08_syllable_1_lakapiaisto_hit.wav,p08,lakapiaisto,hit,la-ka-pi-as-to,la-ka-piais-to,la-ka-pi-ais-to,la-ka-pia-is-to,0.4296875,-0.11328125,1,0,0,5.2164,text_option_2,,0,202,202,186,1
5bef1e56c19fcd0001cdf4c7,63f3cfca20052e4ae7554ebf,6453cc782d5b5b11b2d8b5cd,2023-05-04_17h18.09.122,ga_syllabified_check,2022.2.5,Win32,60.40471157,,,,,,,,,,,,,,./stim/p04_syllable_1_lakabuaisto_hit.wav,p04,lakabuaisto,hit,la-ka-buais-to,la-ka-buais-to,la-ka-bu-ais-to,la-ka-bua-is-to,-0.389322917,-0.115885417,1,0,0,1.1836,text_option_1,,0,203,203,41,1
5bef1e56c19fcd0001cdf4c7,63f3cfca20052e4ae7554ebf,6453cc782d5b5b11b2d8b5cd,2023-05-04_17h18.09.122,ga_syllabified_check,2022.2.5,Win32,60.40471157,,,,,,,,,,,,,,,,,,,,,,,,,,,,,,,,,,
