participant,study,session,date,expName,psychopyVersion,OS,frameRate,mouse_practice.x,mouse_practice.y,mouse_practice.leftButton,mouse_practice.midButton,mouse_practice.rightButton,mouse_practice.time,mouse_practice.clicked_name,textbox_followup_practice.text,trials_practice.thisRepN,trials_practice.thisTrialN,trials_practice.thisN,trials_practice.thisIndex,trials_practice.ran,file_path,id,item,status,response,op1,op2,op3,mouse.x,mouse.y,mouse.leftButton,mouse.midButton,mouse.rightButton,mouse.time,mouse.clicked_name,textbox_followup.text,trials.thisRepN,trials.thisTrialN,trials.thisN,trials.thisIndex,trials.ran
5bf9dae56ecc0c00017ce46e,63f3cfca20052e4ae7554ebf,6453ce3f188007b096724f8c,2023-05-04_17h28.41.522,ga_syllabified_check,2022.2.5,Win32,60.0240096,,,,,,,,,,,,,,,,,,,,,,,,,,,,,,,,,,
5bf9dae56ecc0c00017ce46e,63f3cfca20052e4ae7554ebf,6453ce3f188007b096724f8c,2023-05-04_17h28.41.522,ga_syllabified_check,2022.2.5,Win32,60.0240096,-0.413011696,-0.104532164,1,0,0,3.586,text_option_1_practice,,0,0,0,0,1,./stim/p03_syllable_1_liamo_hit.wav,p03,liamo,hit,lia-mo,lia-mo,li-a-mo, ,,,,,,,,,,,,,
5bf9dae56ecc0c00017ce46e,63f3cfca20052e4ae7554ebf,6453ce3f188007b096724f8c,2023-05-04_17h28.41.522,ga_syllabified_check,2022.2.5,Win32,60.0240096,-0.413011696,-0.104532164,1,0,0,2.285,text_option_1_practice,,0,1,1,1,1,./stim/p05_syllable_1_matio_hit.wav,p05,matio,hit,ma-tio,ma-tio,ma-ti-o, ,,,,,,,,,,,,,
5bf9dae56ecc0c00017ce46e,63f3cfca20052e4ae7554ebf,6453ce3f188007b096724f8c,2023-05-04_17h28.41.522,ga_syllabified_check,2022.2.5,Win32,60.0240096,-0.413011696,-0.104532164,1,0,0,1.951,text_option_1_practice,,0,2,2,2,1,./stim/p08_syllable_1_liamo_hit.wav,p08,liamo,hit,ja-mo,lia-mo,li-a-mo, ,,,,,,,,,,,,,
5bf9dae56ecc0c00017ce46e,63f3cfca20052e4ae7554ebf,6453ce3f188007b096724f8c,2023-05-04_17h28.41.522,ga_syllabified_check,2022.2.5,Win32,60.0240096,,,,,,,,,,,,,,,,,,,,,,,,,,,,,,,,,,
5bf9dae56ecc0c00017ce46e,63f3cfca20052e4ae7554ebf,6453ce3f188007b096724f8c,2023-05-04_17h28.41.522,ga_syllabified_check,2022.2.5,Win32,60.0240096,,,,,,,,,,,,,,./stim/p07_syllable_1_mebochiana_hit.wav,p07,mebochiana,hit,me-bo-chia-na,me-bo-chia-na,me-bo-chi-a-na, ,0.415849057,-0.117358491,1,0,0,3.336,text_option_2,,0,0,0,158,1
5bf9dae56ecc0c00017ce46e,63f3cfca20052e4ae7554ebf,6453ce3f188007b096724f8c,2023-05-04_17h28.41.522,ga_syllabified_check,2022.2.5,Win32,60.0240096,,,,,,,,,,,,,,./stim/p07_syllable_1_lakafiaisto_hit.wav,p07,lakafiaisto,hit,la-ka-fiais-to,la-ka-fiais-to,la-ka-fi-ais-to,la-ka-fia-is-to,-0.350943396,-0.112830189,1,0,0,4.304,text_option_1,,0,1,1,146,1
5bf9dae56ecc0c00017ce46e,63f3cfca20052e4ae7554ebf,6453ce3f188007b096724f8c,2023-05-04_17h28.41.522,ga_syllabified_check,2022.2.5,Win32,60.0240096,,,,,,,,,,,,,,./stim/p04_syllable_1_lakatuaisto_hit.wav,p04,lakatuaisto,hit,la-ka-kuais-to,la-ka-tuais-to,la-ka-tu-ais-to,la-ka-tua-is-to,-0.368301887,-0.106037736,1,0,0,3.02,text_option_1,,0,2,2,53,1
5bf9dae56ecc0c00017ce46e,63f3cfca20052e4ae7554ebf,6453ce3f188007b096724f8c,2023-05-04_17h28.41.522,ga_syllabified_check,2022.2.5,Win32,60.0240096,,,,,,,,,,,,,,./stim/p03_syllable_1_costonhialo_hit.wav,p03,costoñialo,hit,cos-to-nhia-lo,cos-to-ñia-lo,cos-to-ñi-a-lo, ,-0.368301887,-0.106037736,1,0,0,3.97,text_option_1,,0,3,3,1,1
5bf9dae56ecc0c00017ce46e,63f3cfca20052e4ae7554ebf,6453ce3f188007b096724f8c,2023-05-04_17h28.41.522,ga_syllabified_check,2022.2.5,Win32,60.0240096,,,,,,,,,,,,,,./stim/p06_syllable_1_lakafiaisto_hit.wav,p06,lakafiaisto,hit,la-ka-fia-is-to,la-ka-fiais-to,la-ka-fi-ais-to,la-ka-fia-is-to,0.038490566,-0.099245283,1,0,0,6.074,text_option_3,,0,4,4,112,1
5bf9dae56ecc0c00017ce46e,63f3cfca20052e4ae7554ebf,6453ce3f188007b096724f8c,2023-05-04_17h28.41.522,ga_syllabified_check,2022.2.5,Win32,60.0240096,,,,,,,,,,,,,,./stim/p04_syllable_1_lakatiaisto_hit.wav,p04,lakatiaisto,hit,la-ka-kiais-to,la-ka-tiais-to,la-ka-ti-ais-to,la-ka-tia-is-to,-0.32,-0.103018868,1,0,0,1.436,text_option_1,,0,5,5,52,1
5bf9dae56ecc0c00017ce46e,63f3cfca20052e4ae7554ebf,6453ce3f188007b096724f8c,2023-05-04_17h28.41.522,ga_syllabified_check,2022.2.5,Win32,60.0240096,,,,,,,,,,,,,,./stim/p06_syllable_1_nhiape_hit.wav,p06,ñiape,hit,nhi-a-pe,ñia-pe,ñi-a-pe, ,0.40754717,-0.103773585,1,0,0,1.301,text_option_2,,0,6,6,125,1
5bf9dae56ecc0c00017ce46e,63f3cfca20052e4ae7554ebf,6453ce3f188007b096724f8c,2023-05-04_17h28.41.522,ga_syllabified_check,2022.2.5,Win32,60.0240096,,,,,,,,,,,,,,./stim/p08_syllable_1_paluguato_hit.wav,p08,paluguato,hit,pa-lu-gua-to,pa-lu-gua-to,pa-lu-gu-a-to, ,-0.358490566,-0.100754717,1,0,0,2.087,text_option_1,,0,7,7,197,1
5bf9dae56ecc0c00017ce46e,63f3cfca20052e4ae7554ebf,6453ce3f188007b096724f8c,2023-05-04_17h28.41.522,ga_syllabified_check,2022.2.5,Win32,60.0240096,,,,,,,,,,,,,,./stim/p08_syllable_1_lakadiaisto_hit.wav,p08,lakadiaisto,hit,la-ka-di-jas-to,la-ka-diais-to,la-ka-di-ais-to,la-ka-dia-is-to,0.024150943,-0.296226415,1,0,0,6.206,text_option_other,la-ka-di-as-to,0,8,8,178,1
5bf9dae56ecc0c00017ce46e,63f3cfca20052e4ae7554ebf,6453ce3f188007b096724f8c,2023-05-04_17h28.41.522,ga_syllabified_check,2022.2.5,Win32,60.0240096,,,,,,,,,,,,,,./stim/p03_syllable_1_flauro_hit.wav,p03,flauro,hit,flau-ro,flau-ro,fla-u-ro, ,-0.390943396,-0.091698113,1,0,0,1.701,text_option_1,,0,9,9,5,1
5bf9dae56ecc0c00017ce46e,63f3cfca20052e4ae7554ebf,6453ce3f188007b096724f8c,2023-05-04_17h28.41.522,ga_syllabified_check,2022.2.5,Win32,60.0240096,,,,,,,,,,,,,,./stim/p04_syllable_1_ruyiola_hit.wav,p04,ruyiola,hit,ru-yio-la,ru-yio-la,ru-yi-o-la, ,-0.36,-0.101509434,1,0,0,1.468,text_option_1,,0,10,10,66,1
5bf9dae56ecc0c00017ce46e,63f3cfca20052e4ae7554ebf,6453ce3f188007b096724f8c,2023-05-04_17h28.41.522,ga_syllabified_check,2022.2.5,Win32,60.0240096,,,,,,,,,,,,,,./stim/p08_syllable_1_falufaisto_hit.wav,p08,falufaisto,hit,fa-lu-fais-to,fa-lu-fais-to,fa-lu-fa-is-to, ,-0.378113208,-0.094716981,1,0,0,3.003,text_option_1,,0,11,11,173,1
5bf9dae56ecc0c00017ce46e,63f3cfca20052e4ae7554ebf,6453ce3f188007b096724f8c,2023-05-04_17h28.41.522,ga_syllabified_check,2022.2.5,Win32,60.0240096,,,,,,,,,,,,,,./stim/p08_syllable_1_lakabiaisto_hit.wav,p08,lakabiaisto,hit,la-ka-bi-as-to,la-ka-biais-to,la-ka-bi-ais-to,la-ka-bia-is-to,-0.020377358,-0.296226415,1,0,0,7.39,text_option_other,la-ka-bi-as-to,0,12,12,176,1
5bf9dae56ecc0c00017ce46e,63f3cfca20052e4ae7554ebf,6453ce3f188007b096724f8c,2023-05-04_17h28.41.522,ga_syllabified_check,2022.2.5,Win32,60.0240096,,,,,,,,,,,,,,./stim/p03_syllable_1_palufauto_hit.wav,p03,palufauto,hit,pa-lu-fau,pa-lu-fau-to,pa-lu-fa-u-to, ,-0.345660377,-0.106792453,1,0,0,3.454,text_option_1,,0,13,13,26,1
5bf9dae56ecc0c00017ce46e,63f3cfca20052e4ae7554ebf,6453ce3f188007b096724f8c,2023-05-04_17h28.41.522,ga_syllabified_check,2022.2.5,Win32,60.0240096,,,,,,,,,,,,,,./stim/p08_syllable_1_lakafuaisto_hit.wav,p08,lakafuaisto,hit,la-ka-fju-ais-to,la-ka-fuais-to,la-ka-fu-ais-to,la-ka-fua-is-to,-0.000754717,-0.296226415,1,0,0,6.072,text_option_other,la-ka-fiu-a-isto,0,14,14,181,1
5bf9dae56ecc0c00017ce46e,63f3cfca20052e4ae7554ebf,6453ce3f188007b096724f8c,2023-05-04_17h28.41.522,ga_syllabified_check,2022.2.5,Win32,60.0240096,,,,,,,,,,,,,,./stim/p05_syllable_1_tuliafo_hit.wav,p05,tuliafo,hit,tu-lai-fo,tu-lia-fo,tu-li-a-fo, ,-0.026415094,-0.290188679,1,0,0,2.386,text_option_other,tu-lai-fo,0,15,15,101,1
5bf9dae56ecc0c00017ce46e,63f3cfca20052e4ae7554ebf,6453ce3f188007b096724f8c,2023-05-04_17h28.41.522,ga_syllabified_check,2022.2.5,Win32,60.0240096,,,,,,,,,,,,,,./stim/p08_syllable_1_faluduako_hit.wav,p08,faluduako,hit,fa-lu-duai-ko,fa-lu-dua-ko,fa-lu-du-a-ko, ,-0.029433962,-0.28490566,1,0,0,3.771,text_option_other,fa-lu-du-ai-ko,0,16,16,172,1
5bf9dae56ecc0c00017ce46e,63f3cfca20052e4ae7554ebf,6453ce3f188007b096724f8c,2023-05-04_17h28.41.522,ga_syllabified_check,2022.2.5,Win32,60.0240096,,,,,,,,,,,,,,./stim/p05_syllable_1_lakaduaisto_hit.wav,p05,lakaduaisto,hit,la-ka-dais-to,la-ka-duais-to,la-ka-du-ais-to,la-ka-dua-is-to,-0.008301887,-0.294716981,1,0,0,2.135,text_option_other,la-ka-tais-to,0,17,17,77,1
5bf9dae56ecc0c00017ce46e,63f3cfca20052e4ae7554ebf,6453ce3f188007b096724f8c,2023-05-04_17h28.41.522,ga_syllabified_check,2022.2.5,Win32,60.0240096,,,,,,,,,,,,,,./stim/p05_syllable_1_costonhialo_hit.wav,p05,costoñialo,hit,cos-to-nhia-lo,cos-to-ñia-lo,cos-to-ñi-a-lo, ,0.012075472,-0.29245283,1,0,0,2.886,text_option_other,cos-to-ña-lo,0,18,18,69,1
5bf9dae56ecc0c00017ce46e,63f3cfca20052e4ae7554ebf,6453ce3f188007b096724f8c,2023-05-04_17h28.41.522,ga_syllabified_check,2022.2.5,Win32,60.0240096,,,,,,,,,,,,,,./stim/p03_syllable_1_mebochiana_hit.wav,p03,mebochiana,hit,me-bo-chia-na,me-bo-chia-na,me-bo-chi-a-na, ,0.369811321,-0.095471698,1,0,0,2.52,text_option_2,,0,19,19,22,1
5bf9dae56ecc0c00017ce46e,63f3cfca20052e4ae7554ebf,6453ce3f188007b096724f8c,2023-05-04_17h28.41.522,ga_syllabified_check,2022.2.5,Win32,60.0240096,,,,,,,,,,,,,,./stim/p05_syllable_1_lakafuaisto_hit.wav,p05,lakafuaisto,hit,la-ka-fais-to,la-ka-fuais-to,la-ka-fu-ais-to,la-ka-fua-is-to,-0.006792453,-0.288679245,1,0,0,3.036,text_option_other,la-ka-fais-to,0,20,20,79,1
5bf9dae56ecc0c00017ce46e,63f3cfca20052e4ae7554ebf,6453ce3f188007b096724f8c,2023-05-04_17h28.41.522,ga_syllabified_check,2022.2.5,Win32,60.0240096,,,,,,,,,,,,,,./stim/p04_syllable_1_lakapiaisto_hit.wav,p04,lakapiaisto,hit,la-ka-piais-to,la-ka-piais-to,la-ka-pi-ais-to,la-ka-pia-is-to,-0.318490566,-0.095471698,1,0,0,1.835,text_option_1,,0,21,21,50,1
5bf9dae56ecc0c00017ce46e,63f3cfca20052e4ae7554ebf,6453ce3f188007b096724f8c,2023-05-04_17h28.41.522,ga_syllabified_check,2022.2.5,Win32,60.0240096,,,,,,,,,,,,,,./stim/p03_syllable_1_lakaduaisto_hit.wav,p03,lakaduaisto,hit,la-ka-duais-to,la-ka-duais-to,la-ka-du-ais-to,la-ka-dua-is-to,-0.323018868,-0.095471698,1,0,0,1.352,text_option_1,,0,22,22,9,1
5bf9dae56ecc0c00017ce46e,63f3cfca20052e4ae7554ebf,6453ce3f188007b096724f8c,2023-05-04_17h28.41.522,ga_syllabified_check,2022.2.5,Win32,60.0240096,,,,,,,,,,,,,,./stim/p05_syllable_1_lakakiaisto_hit.wav,p05,lakakiaisto,hit,la-ka-ki-ais-to,la-ka-kiais-to,la-ka-ki-ais-to,la-ka-kia-is-to,-0.341886792,-0.093962264,1,0,0,1.202,text_option_1,,0,23,23,82,1
5bf9dae56ecc0c00017ce46e,63f3cfca20052e4ae7554ebf,6453ce3f188007b096724f8c,2023-05-04_17h28.41.522,ga_syllabified_check,2022.2.5,Win32,60.0240096,,,,,,,,,,,,,,./stim/p05_syllable_1_lakatuaisto_hit.wav,p05,lakatuaisto,hit,la-ka-tais-to,la-ka-tuais-to,la-ka-tu-ais-to,la-ka-tua-is-to,-0.361509434,-0.105283019,1,0,0,3.387,text_option_1,,0,24,24,87,1
5bf9dae56ecc0c00017ce46e,63f3cfca20052e4ae7554ebf,6453ce3f188007b096724f8c,2023-05-04_17h28.41.522,ga_syllabified_check,2022.2.5,Win32,60.0240096,,,,,,,,,,,,,,./stim/p03_syllable_1_ruyiola_hit.wav,p03,ruyiola,hit,ru-yio-la,ru-yio-la,ru-yi-o-la, ,-0.37509434,-0.081132075,1,0,0,0.951,text_option_1,,0,25,25,32,1
5bf9dae56ecc0c00017ce46e,63f3cfca20052e4ae7554ebf,6453ce3f188007b096724f8c,2023-05-04_17h28.41.522,ga_syllabified_check,2022.2.5,Win32,60.0240096,,,,,,,,,,,,,,./stim/p04_syllable_1_lakabiaisto_hit.wav,p04,lakabiaisto,hit,la-ka-biais-to,la-ka-biais-to,la-ka-bi-ais-to,la-ka-bia-is-to,-0.39245283,-0.113584906,1,0,0,1.036,text_option_1,,0,26,26,40,1
5bf9dae56ecc0c00017ce46e,63f3cfca20052e4ae7554ebf,6453ce3f188007b096724f8c,2023-05-04_17h28.41.522,ga_syllabified_check,2022.2.5,Win32,60.0240096,,,,,,,,,,,,,,./stim/p08_syllable_1_ruyiola_hit.wav,p08,ruyiola,hit,ru-yio-la,ru-yio-la,ru-yi-o-la, ,-0.396226415,-0.109056604,1,0,0,1.168,text_option_1,,0,27,27,202,1
5bf9dae56ecc0c00017ce46e,63f3cfca20052e4ae7554ebf,6453ce3f188007b096724f8c,2023-05-04_17h28.41.522,ga_syllabified_check,2022.2.5,Win32,60.0240096,,,,,,,,,,,,,,./stim/p05_syllable_1_rausto_hit.wav,p05,rausto,hit,raus-to,raus-to,ra-us-to, ,-0.370566038,-0.094716981,1,0,0,0.55,text_option_1,,0,28,28,99,1
5bf9dae56ecc0c00017ce46e,63f3cfca20052e4ae7554ebf,6453ce3f188007b096724f8c,2023-05-04_17h28.41.522,ga_syllabified_check,2022.2.5,Win32,60.0240096,,,,,,,,,,,,,,./stim/p06_syllable_1_tuliafo_hit.wav,p06,tuliafo,hit,tu-li-a-fo,tu-lia-fo,tu-li-a-fo, ,0.417358491,-0.10754717,1,0,0,1.269,text_option_2,,0,29,29,135,1
5bf9dae56ecc0c00017ce46e,63f3cfca20052e4ae7554ebf,6453ce3f188007b096724f8c,2023-05-04_17h28.41.522,ga_syllabified_check,2022.2.5,Win32,60.0240096,,,,,,,,,,,,,,./stim/p04_syllable_1_palufauro_hit.wav,p04,palufauro,hit,pa-lu-fau-ro,pa-lu-fau-ro,pa-lu-fa-u-ro, ,-0.387169811,-0.110566038,1,0,0,1.318,text_option_1,,0,30,30,59,1
5bf9dae56ecc0c00017ce46e,63f3cfca20052e4ae7554ebf,6453ce3f188007b096724f8c,2023-05-04_17h28.41.522,ga_syllabified_check,2022.2.5,Win32,60.0240096,,,,,,,,,,,,,,./stim/p07_syllable_1_lliape_hit.wav,p07,lliape,hit,lliai-pe,llia-pe,lli-a-pe, ,-0.413584906,-0.091698113,1,0,0,1.585,text_option_1,,0,31,31,156,1
5bf9dae56ecc0c00017ce46e,63f3cfca20052e4ae7554ebf,6453ce3f188007b096724f8c,2023-05-04_17h28.41.522,ga_syllabified_check,2022.2.5,Win32,60.0240096,,,,,,,,,,,,,,./stim/p05_syllable_1_falutraigo_hit.wav,p05,falutraigo,hit,fa-lu-trai-go,fa-lu-trai-go,fa-lu-tra-i-go, ,-0.372830189,-0.089433962,1,0,0,1.251,text_option_1,,0,32,32,72,1
5bf9dae56ecc0c00017ce46e,63f3cfca20052e4ae7554ebf,6453ce3f188007b096724f8c,2023-05-04_17h28.41.522,ga_syllabified_check,2022.2.5,Win32,60.0240096,,,,,,,,,,,,,,./stim/p04_syllable_1_lakaguaisto_hit.wav,p04,lakaguaisto,hit,la-ka-guais-to,la-ka-guais-to,la-ka-gu-ais-to,la-ka-gua-is-to,-0.356226415,-0.103773585,1,0,0,1.336,text_option_1,,0,33,33,47,1
5bf9dae56ecc0c00017ce46e,63f3cfca20052e4ae7554ebf,6453ce3f188007b096724f8c,2023-05-04_17h28.41.522,ga_syllabified_check,2022.2.5,Win32,60.0240096,,,,,,,,,,,,,,./stim/p05_syllable_1_faluduako_hit.wav,p05,faluduako,hit,fa-lu-ba-ko,fa-lu-dua-ko,fa-lu-du-a-ko, ,-0.339622642,-0.104528302,1,0,0,1.635,text_option_1,,0,34,34,70,1
5bf9dae56ecc0c00017ce46e,63f3cfca20052e4ae7554ebf,6453ce3f188007b096724f8c,2023-05-04_17h28.41.522,ga_syllabified_check,2022.2.5,Win32,60.0240096,,,,,,,,,,,,,,./stim/p05_syllable_1_nhiape_hit.wav,p05,ñiape,hit,nhia-pe,ñia-pe,ñi-a-pe, ,-0.386415094,-0.106792453,1,0,0,0.535,text_option_1,,0,35,35,91,1
5bf9dae56ecc0c00017ce46e,63f3cfca20052e4ae7554ebf,6453ce3f188007b096724f8c,2023-05-04_17h28.41.522,ga_syllabified_check,2022.2.5,Win32,60.0240096,,,,,,,,,,,,,,./stim/p07_syllable_1_lakadiaisto_hit.wav,p07,lakadiaisto,hit,la-ka-dia-is-to,la-ka-diais-to,la-ka-di-ais-to,la-ka-dia-is-to,0.049056604,-0.108301887,1,0,0,2.167,text_option_3,,0,36,36,144,1
5bf9dae56ecc0c00017ce46e,63f3cfca20052e4ae7554ebf,6453ce3f188007b096724f8c,2023-05-04_17h28.41.522,ga_syllabified_check,2022.2.5,Win32,60.0240096,,,,,,,,,,,,,,./stim/p03_syllable_1_palumaisto_hit.wav,p03,palumaisto,hit,pa-lu-mais-to,pa-lu-mais-to,pa-lu-ma-is-to, ,-0.386415094,-0.095471698,1,0,0,1.334,text_option_1,,0,37,37,28,1
5bf9dae56ecc0c00017ce46e,63f3cfca20052e4ae7554ebf,6453ce3f188007b096724f8c,2023-05-04_17h28.41.522,ga_syllabified_check,2022.2.5,Win32,60.0240096,,,,,,,,,,,,,,./stim/p07_syllable_1_lakapiaisto_hit.wav,p07,lakapiaisto,hit,la-ka-pia-sto,la-ka-piais-to,la-ka-pi-ais-to,la-ka-pia-is-to,-0.036981132,-0.10754717,1,0,0,2.568,text_option_3,,0,38,38,152,1
5bf9dae56ecc0c00017ce46e,63f3cfca20052e4ae7554ebf,6453ce3f188007b096724f8c,2023-05-04_17h28.41.522,ga_syllabified_check,2022.2.5,Win32,60.0240096,,,,,,,,,,,,,,./stim/p06_syllable_1_palufauro_hit.wav,p06,palufauro,hit,pa-lu-fau-ro,pa-lu-fau-ro,pa-lu-fa-u-ro, ,0.334339623,-0.110566038,1,0,0,3.596,text_option_2,,0,39,39,127,1
5bf9dae56ecc0c00017ce46e,63f3cfca20052e4ae7554ebf,6453ce3f188007b096724f8c,2023-05-04_17h28.41.522,ga_syllabified_check,2022.2.5,Win32,60.0240096,,,,,,,,,,,,,,./stim/p07_syllable_1_lakagiaisto_hit.wav,p07,lakagiaisto,hit,la-ka-gais-to,la-ka-giais-to,la-ka-gi-ais-to,la-ka-gia-is-to,-0.335849057,-0.114339623,1,0,0,2.619,text_option_1,,0,40,40,148,1
5bf9dae56ecc0c00017ce46e,63f3cfca20052e4ae7554ebf,6453ce3f188007b096724f8c,2023-05-04_17h28.41.522,ga_syllabified_check,2022.2.5,Win32,60.0240096,,,,,,,,,,,,,,./stim/p08_syllable_1_chiaba_hit.wav,p08,chiaba,hit,chi-a-ba,chia-ba,chi-a-ba, ,0.384150943,-0.110566038,1,0,0,0.935,text_option_2,,0,41,41,170,1
5bf9dae56ecc0c00017ce46e,63f3cfca20052e4ae7554ebf,6453ce3f188007b096724f8c,2023-05-04_17h28.41.522,ga_syllabified_check,2022.2.5,Win32,60.0240096,,,,,,,,,,,,,,./stim/p04_syllable_1_faluduako_hit.wav,p04,faluduako,hit,fa-lu-dua-ko,fa-lu-dua-ko,fa-lu-du-a-ko, ,-0.402264151,-0.114339623,1,0,0,0.634,text_option_1,,0,42,42,36,1
5bf9dae56ecc0c00017ce46e,63f3cfca20052e4ae7554ebf,6453ce3f188007b096724f8c,2023-05-04_17h28.41.522,ga_syllabified_check,2022.2.5,Win32,60.0240096,,,,,,,,,,,,,,./stim/p06_syllable_1_paluguato_hit.wav,p06,paluguato,hit,pa-lu-gua-to,pa-lu-gua-to,pa-lu-gu-a-to, ,-0.318490566,-0.098490566,1,0,0,1.785,text_option_1,,0,43,43,129,1
5bf9dae56ecc0c00017ce46e,63f3cfca20052e4ae7554ebf,6453ce3f188007b096724f8c,2023-05-04_17h28.41.522,ga_syllabified_check,2022.2.5,Win32,60.0240096,,,,,,,,,,,,,,./stim/p06_syllable_1_lakaduaisto_hit.wav,p06,lakaduaisto,hit,la-ka-du-a-is,la-ka-duais-to,la-ka-du-ais-to,la-ka-dua-is-to,0.313962264,-0.098490566,1,0,0,3.17,text_option_2,,0,44,44,111,1
5bf9dae56ecc0c00017ce46e,63f3cfca20052e4ae7554ebf,6453ce3f188007b096724f8c,2023-05-04_17h28.41.522,ga_syllabified_check,2022.2.5,Win32,60.0240096,,,,,,,,,,,,,,./stim/p03_syllable_1_lakabiaisto_hit.wav,p03,lakabiaisto,hit,la-ka-biais-to,la-ka-biais-to,la-ka-bi-ais-to,la-ka-bia-is-to,-0.353962264,-0.094716981,1,0,0,2.987,text_option_1,,0,45,45,6,1
5bf9dae56ecc0c00017ce46e,63f3cfca20052e4ae7554ebf,6453ce3f188007b096724f8c,2023-05-04_17h28.41.522,ga_syllabified_check,2022.2.5,Win32,60.0240096,,,,,,,,,,,,,,./stim/p05_syllable_1_chiaba_hit.wav,p05,chiaba,hit,chia-ba,chia-ba,chi-a-ba, ,-0.403773585,-0.096226415,1,0,0,0.684,text_option_1,,0,46,46,68,1
5bf9dae56ecc0c00017ce46e,63f3cfca20052e4ae7554ebf,6453ce3f188007b096724f8c,2023-05-04_17h28.41.522,ga_syllabified_check,2022.2.5,Win32,60.0240096,,,,,,,,,,,,,,./stim/p06_syllable_1_lakatiaisto_hit.wav,p06,lakatiaisto,hit,la-ka-pia-is-to,la-ka-tiais-to,la-ka-ti-ais-to,la-ka-tia-is-to,0.034716981,-0.101509434,1,0,0,3.119,text_option_3,,0,47,47,120,1
5bf9dae56ecc0c00017ce46e,63f3cfca20052e4ae7554ebf,6453ce3f188007b096724f8c,2023-05-04_17h28.41.522,ga_syllabified_check,2022.2.5,Win32,60.0240096,,,,,,,,,,,,,,./stim/p06_syllable_1_flauro_hit.wav,p06,flauro,hit,fla-u-ro,flau-ro,fla-u-ro, ,0.387169811,-0.097735849,1,0,0,1.218,text_option_2,,0,48,48,107,1
5bf9dae56ecc0c00017ce46e,63f3cfca20052e4ae7554ebf,6453ce3f188007b096724f8c,2023-05-04_17h28.41.522,ga_syllabified_check,2022.2.5,Win32,60.0240096,,,,,,,,,,,,,,./stim/p04_syllable_1_falutraigo_hit.wav,p04,falutraigo,hit,fa-lu-trai-go,fa-lu-trai-go,fa-lu-tra-i-go, ,-0.409811321,-0.114339623,1,0,0,1.118,text_option_1,,0,49,49,38,1
5bf9dae56ecc0c00017ce46e,63f3cfca20052e4ae7554ebf,6453ce3f188007b096724f8c,2023-05-04_17h28.41.522,ga_syllabified_check,2022.2.5,Win32,60.0240096,,,,,,,,,,,,,,./stim/p08_syllable_1_lakagiaisto_hit.wav,p08,lakagiaisto,hit,la-ka-gi-jas-to,la-ka-giais-to,la-ka-gi-ais-to,la-ka-gia-is-to,0.043018868,-0.106037736,1,0,0,2.736,text_option_3,,0,50,50,182,1
5bf9dae56ecc0c00017ce46e,63f3cfca20052e4ae7554ebf,6453ce3f188007b096724f8c,2023-05-04_17h28.41.522,ga_syllabified_check,2022.2.5,Win32,60.0240096,,,,,,,,,,,,,,./stim/p03_syllable_1_rausto_hit.wav,p03,rausto,hit,raus-to,raus-to,ra-us-to, ,0.369811321,-0.093962264,1,0,0,2.887,text_option_2,,0,51,51,31,1
5bf9dae56ecc0c00017ce46e,63f3cfca20052e4ae7554ebf,6453ce3f188007b096724f8c,2023-05-04_17h28.41.522,ga_syllabified_check,2022.2.5,Win32,60.0240096,,,,,,,,,,,,,,./stim/p06_syllable_1_ruyiola_hit.wav,p06,ruyiola,hit,ru-yi-o-la,ru-yio-la,ru-yi-o-la, ,0.347169811,-0.094716981,1,0,0,1.101,text_option_2,,0,52,52,134,1
5bf9dae56ecc0c00017ce46e,63f3cfca20052e4ae7554ebf,6453ce3f188007b096724f8c,2023-05-04_17h28.41.522,ga_syllabified_check,2022.2.5,Win32,60.0240096,,,,,,,,,,,,,,./stim/p03_syllable_1_tuliafo_hit.wav,p03,tuliafo,hit,tu-lia-fo,tu-lia-fo,tu-li-a-fo, ,-0.386415094,-0.110566038,1,0,0,1.167,text_option_1,,0,53,53,33,1
5bf9dae56ecc0c00017ce46e,63f3cfca20052e4ae7554ebf,6453ce3f188007b096724f8c,2023-05-04_17h28.41.522,ga_syllabified_check,2022.2.5,Win32,60.0240096,,,,,,,,,,,,,,./stim/p06_syllable_1_lakakuaisto_hit.wav,p06,lakakuaisto,hit,la-ka-ku-a-is,la-ka-kuais-to,la-ka-ku-ais-to,la-ka-kua-is-to,0.384150943,-0.090943396,1,0,0,2.035,text_option_2,,0,54,54,117,1
5bf9dae56ecc0c00017ce46e,63f3cfca20052e4ae7554ebf,6453ce3f188007b096724f8c,2023-05-04_17h28.41.522,ga_syllabified_check,2022.2.5,Win32,60.0240096,,,,,,,,,,,,,,./stim/p08_syllable_1_nhiape_hit.wav,p08,ñiape,hit,ni-a-pe,ñia-pe,ñi-a-pe, ,0.38490566,-0.099245283,1,0,0,4.171,text_option_2,,0,55,55,193,1
5bf9dae56ecc0c00017ce46e,63f3cfca20052e4ae7554ebf,6453ce3f188007b096724f8c,2023-05-04_17h28.41.522,ga_syllabified_check,2022.2.5,Win32,60.0240096,,,,,,,,,,,,,,./stim/p05_syllable_1_lliape_hit.wav,p05,lliape,hit,liai-pe,llia-pe,lli-a-pe, ,-0.401509434,-0.106037736,1,0,0,0.433,text_option_1,,0,56,56,88,1
5bf9dae56ecc0c00017ce46e,63f3cfca20052e4ae7554ebf,6453ce3f188007b096724f8c,2023-05-04_17h28.41.522,ga_syllabified_check,2022.2.5,Win32,60.0240096,,,,,,,,,,,,,,./stim/p04_syllable_1_lliape_hit.wav,p04,lliape,hit,lia-pe,llia-pe,lli-a-pe, ,-0.419622642,-0.103773585,1,0,0,0.117,text_option_1,,0,57,57,54,1
5bf9dae56ecc0c00017ce46e,63f3cfca20052e4ae7554ebf,6453ce3f188007b096724f8c,2023-05-04_17h28.41.522,ga_syllabified_check,2022.2.5,Win32,60.0240096,,,,,,,,,,,,,,./stim/p04_syllable_1_lakaduaisto_hit.wav,p04,lakaduaisto,hit,la-ka-duais-to,la-ka-duais-to,la-ka-du-ais-to,la-ka-dua-is-to,-0.341132075,-0.086415094,1,0,0,0.769,text_option_1,,0,58,58,43,1
5bf9dae56ecc0c00017ce46e,63f3cfca20052e4ae7554ebf,6453ce3f188007b096724f8c,2023-05-04_17h28.41.522,ga_syllabified_check,2022.2.5,Win32,60.0240096,,,,,,,,,,,,,,./stim/p07_syllable_1_tuliafo_hit.wav,p07,tuliafo,hit,tu-lia-fo,tu-lia-fo,tu-li-a-fo, ,-0.345660377,-0.078867925,1,0,0,0.718,text_option_1,,0,59,59,169,1
5bf9dae56ecc0c00017ce46e,63f3cfca20052e4ae7554ebf,6453ce3f188007b096724f8c,2023-05-04_17h28.41.522,ga_syllabified_check,2022.2.5,Win32,60.0240096,,,,,,,,,,,,,,./stim/p04_syllable_1_falufaisto_hit.wav,p04,falufaisto,hit,fa-lu-fais-to,fa-lu-fais-to,fa-lu-fa-is-to, ,-0.35245283,-0.105283019,1,0,0,0.45,text_option_1,,0,60,60,37,1
5bf9dae56ecc0c00017ce46e,63f3cfca20052e4ae7554ebf,6453ce3f188007b096724f8c,2023-05-04_17h28.41.522,ga_syllabified_check,2022.2.5,Win32,60.0240096,,,,,,,,,,,,,,./stim/p05_syllable_1_palumaisto_hit.wav,p05,palumaisto,hit,pa-lu-mais-to,pa-lu-mais-to,pa-lu-ma-is-to, ,-0.341132075,-0.099245283,1,0,0,0.917,text_option_1,,0,61,61,96,1
5bf9dae56ecc0c00017ce46e,63f3cfca20052e4ae7554ebf,6453ce3f188007b096724f8c,2023-05-04_17h28.41.522,ga_syllabified_check,2022.2.5,Win32,60.0240096,,,,,,,,,,,,,,./stim/p03_syllable_1_lakadiaisto_hit.wav,p03,lakadiaisto,hit,la-ka-diais-to,la-ka-diais-to,la-ka-di-ais-to,la-ka-dia-is-to,-0.328301887,-0.096981132,1,0,0,1.452,text_option_1,,0,62,62,8,1
5bf9dae56ecc0c00017ce46e,63f3cfca20052e4ae7554ebf,6453ce3f188007b096724f8c,2023-05-04_17h28.41.522,ga_syllabified_check,2022.2.5,Win32,60.0240096,,,,,,,,,,,,,,./stim/p08_syllable_1_lakabuaisto_hit.wav,p08,lakabuaisto,hit,la-ka-bu-ais-to,la-ka-buais-to,la-ka-bu-ais-to,la-ka-bua-is-to,0.028679245,-0.096981132,1,0,0,2.634,text_option_3,,0,63,63,177,1
5bf9dae56ecc0c00017ce46e,63f3cfca20052e4ae7554ebf,6453ce3f188007b096724f8c,2023-05-04_17h28.41.522,ga_syllabified_check,2022.2.5,Win32,60.0240096,,,,,,,,,,,,,,./stim/p05_syllable_1_lakabiaisto_hit.wav,p05,lakabiaisto,hit,la-ka-bi-ais-to,la-ka-biais-to,la-ka-bi-ais-to,la-ka-bia-is-to,-0.369811321,-0.097735849,1,0,0,2.453,text_option_1,,0,64,64,74,1
5bf9dae56ecc0c00017ce46e,63f3cfca20052e4ae7554ebf,6453ce3f188007b096724f8c,2023-05-04_17h28.41.522,ga_syllabified_check,2022.2.5,Win32,60.0240096,,,,,,,,,,,,,,./stim/p06_syllable_1_palutrauco_hit.wav,p06,palutrauco,hit,pa-lu-tra-u-co,pa-lu-trau-co,pa-lu-tra-u-co, ,0.430943396,-0.111320755,1,0,0,1.968,text_option_2,,0,65,65,131,1
5bf9dae56ecc0c00017ce46e,63f3cfca20052e4ae7554ebf,6453ce3f188007b096724f8c,2023-05-04_17h28.41.522,ga_syllabified_check,2022.2.5,Win32,60.0240096,,,,,,,,,,,,,,./stim/p07_syllable_1_palumaisto_hit.wav,p07,palumaisto,hit,pa-lu-mais-to,pa-lu-mais-to,pa-lu-ma-is-to, ,-0.33509434,-0.100754717,1,0,0,2.403,text_option_1,,0,66,66,164,1
5bf9dae56ecc0c00017ce46e,63f3cfca20052e4ae7554ebf,6453ce3f188007b096724f8c,2023-05-04_17h28.41.522,ga_syllabified_check,2022.2.5,Win32,60.0240096,,,,,,,,,,,,,,./stim/p04_syllable_1_palufauto_hit.wav,p04,palufauto,hit,pa-lu-fau-to,pa-lu-fau-to,pa-lu-fa-u-to, ,-0.386415094,-0.112075472,1,0,0,3.97,text_option_1,,0,67,67,60,1
5bf9dae56ecc0c00017ce46e,63f3cfca20052e4ae7554ebf,6453ce3f188007b096724f8c,2023-05-04_17h28.41.522,ga_syllabified_check,2022.2.5,Win32,60.0240096,,,,,,,,,,,,,,./stim/p04_syllable_1_rausto_hit.wav,p04,rausto,hit,raus-to,raus-to,ra-us-to, ,-0.386415094,-0.112075472,1,0,0,0.334,text_option_1,,0,68,68,65,1
5bf9dae56ecc0c00017ce46e,63f3cfca20052e4ae7554ebf,6453ce3f188007b096724f8c,2023-05-04_17h28.41.522,ga_syllabified_check,2022.2.5,Win32,60.0240096,,,,,,,,,,,,,,./stim/p03_syllable_1_payielo_hit.wav,p03,payielo,hit,pa-yie-lo,pa-yie-lo,pa-yi-e-lo, ,-0.386415094,-0.112075472,1,0,0,0.445,text_option_1,,0,69,69,30,1
5bf9dae56ecc0c00017ce46e,63f3cfca20052e4ae7554ebf,6453ce3f188007b096724f8c,2023-05-04_17h28.41.522,ga_syllabified_check,2022.2.5,Win32,60.0240096,,,,,,,,,,,,,,./stim/p04_syllable_1_nhiape_hit.wav,p04,ñiape,hit,nhia-pe,ñia-pe,ñi-a-pe, ,-0.386415094,-0.112075472,1,0,0,0.434,text_option_1,,0,70,70,57,1
5bf9dae56ecc0c00017ce46e,63f3cfca20052e4ae7554ebf,6453ce3f188007b096724f8c,2023-05-04_17h28.41.522,ga_syllabified_check,2022.2.5,Win32,60.0240096,,,,,,,,,,,,,,./stim/p08_syllable_1_rausto_hit.wav,p08,rausto,hit,raus-to,raus-to,ra-us-to, ,-0.386415094,-0.112075472,1,0,0,0.667,text_option_1,,0,71,71,201,1
5bf9dae56ecc0c00017ce46e,63f3cfca20052e4ae7554ebf,6453ce3f188007b096724f8c,2023-05-04_17h28.41.522,ga_syllabified_check,2022.2.5,Win32,60.0240096,,,,,,,,,,,,,,./stim/p07_syllable_1_palufauro_hit.wav,p07,palufauro,hit,pa-lu-fau-ro,pa-lu-fau-ro,pa-lu-fa-u-ro, ,-0.386415094,-0.112075472,1,0,0,1.201,text_option_1,,0,72,72,161,1
5bf9dae56ecc0c00017ce46e,63f3cfca20052e4ae7554ebf,6453ce3f188007b096724f8c,2023-05-04_17h28.41.522,ga_syllabified_check,2022.2.5,Win32,60.0240096,,,,,,,,,,,,,,./stim/p07_syllable_1_paluguato_hit.wav,p07,paluguato,hit,pa-lu-gua-to,pa-lu-gua-to,pa-lu-gu-a-to, ,-0.386415094,-0.112075472,1,0,0,1.168,text_option_1,,0,73,73,163,1
5bf9dae56ecc0c00017ce46e,63f3cfca20052e4ae7554ebf,6453ce3f188007b096724f8c,2023-05-04_17h28.41.522,ga_syllabified_check,2022.2.5,Win32,60.0240096,,,,,,,,,,,,,,./stim/p04_syllable_1_manhiala_hit.wav,p04,mañiala,hit,ma-nhia-la,ma-ñia-la,ma-ñi-a-la, ,-0.386415094,-0.112075472,1,0,0,0.689,text_option_1,,0,74,74,55,1
5bf9dae56ecc0c00017ce46e,63f3cfca20052e4ae7554ebf,6453ce3f188007b096724f8c,2023-05-04_17h28.41.522,ga_syllabified_check,2022.2.5,Win32,60.0240096,,,,,,,,,,,,,,./stim/p04_syllable_1_payielo_hit.wav,p04,payielo,hit,pa-yie-lo,pa-yie-lo,pa-yi-e-lo, ,-0.386415094,-0.112075472,1,0,0,0.584,text_option_1,,0,75,75,64,1
5bf9dae56ecc0c00017ce46e,63f3cfca20052e4ae7554ebf,6453ce3f188007b096724f8c,2023-05-04_17h28.41.522,ga_syllabified_check,2022.2.5,Win32,60.0240096,,,,,,,,,,,,,,./stim/p08_syllable_1_falutraigo_hit.wav,p08,falutraigo,hit,fa-lu-trai-go,fa-lu-trai-go,fa-lu-tra-i-go, ,-0.386415094,-0.112075472,1,0,0,1.603,text_option_1,,0,76,76,174,1
5bf9dae56ecc0c00017ce46e,63f3cfca20052e4ae7554ebf,6453ce3f188007b096724f8c,2023-05-04_17h28.41.522,ga_syllabified_check,2022.2.5,Win32,60.0240096,,,,,,,,,,,,,,./stim/p08_syllable_1_palumaisto_hit.wav,p08,palumaisto,hit,pa-lu-mais-to,pa-lu-mais-to,pa-lu-ma-is-to, ,-0.386415094,-0.112075472,1,0,0,1.768,text_option_1,,0,77,77,198,1
5bf9dae56ecc0c00017ce46e,63f3cfca20052e4ae7554ebf,6453ce3f188007b096724f8c,2023-05-04_17h28.41.522,ga_syllabified_check,2022.2.5,Win32,60.0240096,,,,,,,,,,,,,,./stim/p05_syllable_1_palufauro_hit.wav,p05,palufauro,hit,pa-lu-fau-ro,pa-lu-fau-ro,pa-lu-fa-u-ro, ,-0.386415094,-0.112075472,1,0,0,52.544,text_option_1,,0,78,78,93,1
5bf9dae56ecc0c00017ce46e,63f3cfca20052e4ae7554ebf,6453ce3f188007b096724f8c,2023-05-04_17h28.41.522,ga_syllabified_check,2022.2.5,Win32,60.0240096,,,,,,,,,,,,,,./stim/p08_syllable_1_tuliafo_hit.wav,p08,tuliafo,hit,tu-li-a-fo,tu-lia-fo,tu-li-a-fo, ,0.379622642,-0.098490566,1,0,0,1.903,text_option_2,,0,79,79,203,1
5bf9dae56ecc0c00017ce46e,63f3cfca20052e4ae7554ebf,6453ce3f188007b096724f8c,2023-05-04_17h28.41.522,ga_syllabified_check,2022.2.5,Win32,60.0240096,,,,,,,,,,,,,,./stim/p03_syllable_1_lakatiaisto_hit.wav,p03,lakatiaisto,hit,la-ka-tiais-to,la-ka-tiais-to,la-ka-ti-ais-to,la-ka-tia-is-to,0.033207547,-0.097735849,1,0,0,1.652,text_option_3,,0,80,80,18,1
5bf9dae56ecc0c00017ce46e,63f3cfca20052e4ae7554ebf,6453ce3f188007b096724f8c,2023-05-04_17h28.41.522,ga_syllabified_check,2022.2.5,Win32,60.0240096,,,,,,,,,,,,,,./stim/p06_syllable_1_lakafuaisto_hit.wav,p06,lakafuaisto,hit,la-ka-fu-a-is,la-ka-fuais-to,la-ka-fu-ais-to,la-ka-fua-is-to,0.035471698,-0.284150943,1,0,0,4.721,text_option_other,la-ka-fu-a-is-to,0,81,81,113,1
5bf9dae56ecc0c00017ce46e,63f3cfca20052e4ae7554ebf,6453ce3f188007b096724f8c,2023-05-04_17h28.41.522,ga_syllabified_check,2022.2.5,Win32,60.0240096,,,,,,,,,,,,,,./stim/p06_syllable_1_lliape_hit.wav,p06,lliape,hit,lli-lla-pe,llia-pe,lli-a-pe, ,0.369811321,-0.090943396,1,0,0,1.268,text_option_2,,0,82,82,122,1
5bf9dae56ecc0c00017ce46e,63f3cfca20052e4ae7554ebf,6453ce3f188007b096724f8c,2023-05-04_17h28.41.522,ga_syllabified_check,2022.2.5,Win32,60.0240096,,,,,,,,,,,,,,./stim/p07_syllable_1_lakatuaisto_hit.wav,p07,lakatuaisto,hit,la-ka-tuais-to,la-ka-tuais-to,la-ka-tu-ais-to,la-ka-tua-is-to,-0.383396226,-0.096226415,1,0,0,2.319,text_option_1,,0,83,83,155,1
5bf9dae56ecc0c00017ce46e,63f3cfca20052e4ae7554ebf,6453ce3f188007b096724f8c,2023-05-04_17h28.41.522,ga_syllabified_check,2022.2.5,Win32,60.0240096,,,,,,,,,,,,,,./stim/p03_syllable_1_lakakiaisto_hit.wav,p03,lakakiaisto,hit,la-ka-kiais-to,la-ka-kiais-to,la-ka-ki-ais-to,la-ka-kia-is-to,-0.344150943,-0.096981132,1,0,0,1.417,text_option_1,,0,84,84,14,1
5bf9dae56ecc0c00017ce46e,63f3cfca20052e4ae7554ebf,6453ce3f188007b096724f8c,2023-05-04_17h28.41.522,ga_syllabified_check,2022.2.5,Win32,60.0240096,,,,,,,,,,,,,,./stim/p06_syllable_1_lakabiaisto_hit.wav,p06,lakabiaisto,hit,la-ka-bia-is-to,la-ka-biais-to,la-ka-bi-ais-to,la-ka-bia-is-to,0.060377358,-0.104528302,1,0,0,3.737,text_option_3,,0,85,85,108,1
5bf9dae56ecc0c00017ce46e,63f3cfca20052e4ae7554ebf,6453ce3f188007b096724f8c,2023-05-04_17h28.41.522,ga_syllabified_check,2022.2.5,Win32,60.0240096,,,,,,,,,,,,,,./stim/p06_syllable_1_palumaisto_hit.wav,p06,palumaisto,hit,pa-lu-ma-is-to,pa-lu-mais-to,pa-lu-ma-is-to, ,0.375849057,-0.096981132,1,0,0,2.435,text_option_2,,0,86,86,130,1
5bf9dae56ecc0c00017ce46e,63f3cfca20052e4ae7554ebf,6453ce3f188007b096724f8c,2023-05-04_17h28.41.522,ga_syllabified_check,2022.2.5,Win32,60.0240096,,,,,,,,,,,,,,./stim/p03_syllable_1_chiaba_hit.wav,p03,chiaba,hit,chia-ba,chia-ba,chi-a-ba, ,-0.372075472,-0.089433962,1,0,0,0.7,text_option_1,,0,87,87,0,1
5bf9dae56ecc0c00017ce46e,63f3cfca20052e4ae7554ebf,6453ce3f188007b096724f8c,2023-05-04_17h28.41.522,ga_syllabified_check,2022.2.5,Win32,60.0240096,,,,,,,,,,,,,,./stim/p05_syllable_1_payielo_hit.wav,p05,payielo,hit,pai-yu-we-lo,pa-yie-lo,pa-yi-e-lo, ,-0.421132075,-0.097735849,1,0,0,1.267,text_option_1,,0,88,88,98,1
5bf9dae56ecc0c00017ce46e,63f3cfca20052e4ae7554ebf,6453ce3f188007b096724f8c,2023-05-04_17h28.41.522,ga_syllabified_check,2022.2.5,Win32,60.0240096,,,,,,,,,,,,,,./stim/p07_syllable_1_nhiape_hit.wav,p07,ñiape,hit,nhia-pe,ñia-pe,ñi-a-pe, ,-0.400754717,-0.106037736,1,0,0,0.667,text_option_1,,0,89,89,159,1
5bf9dae56ecc0c00017ce46e,63f3cfca20052e4ae7554ebf,6453ce3f188007b096724f8c,2023-05-04_17h28.41.522,ga_syllabified_check,2022.2.5,Win32,60.0240096,,,,,,,,,,,,,,./stim/p05_syllable_1_lakapiaisto_hit.wav,p05,lakapiaisto,hit,la-ka-pais-to,la-ka-piais-to,la-ka-pi-ais-to,la-ka-pia-is-to,0.046037736,-0.104528302,1,0,0,1.818,text_option_3,,0,90,90,84,1
5bf9dae56ecc0c00017ce46e,63f3cfca20052e4ae7554ebf,6453ce3f188007b096724f8c,2023-05-04_17h28.41.522,ga_syllabified_check,2022.2.5,Win32,60.0240096,,,,,,,,,,,,,,./stim/p07_syllable_1_lakabuaisto_hit.wav,p07,lakabuaisto,hit,la-ka-buais-to,la-ka-buais-to,la-ka-bu-ais-to,la-ka-bua-is-to,-0.477735849,-0.087924528,1,0,0,2.202,text_option_1,,0,91,91,143,1
5bf9dae56ecc0c00017ce46e,63f3cfca20052e4ae7554ebf,6453ce3f188007b096724f8c,2023-05-04_17h28.41.522,ga_syllabified_check,2022.2.5,Win32,60.0240096,,,,,,,,,,,,,,./stim/p06_syllable_1_faluduako_hit.wav,p06,faluduako,hit,fa-lu-dua-ko,fa-lu-dua-ko,fa-lu-du-a-ko, ,0.501886792,-0.104528302,1,0,0,3.119,text_option_2,,0,92,92,104,1
5bf9dae56ecc0c00017ce46e,63f3cfca20052e4ae7554ebf,6453ce3f188007b096724f8c,2023-05-04_17h28.41.522,ga_syllabified_check,2022.2.5,Win32,60.0240096,,,,,,,,,,,,,,./stim/p08_syllable_1_costonhialo_hit.wav,p08,costoñialo,hit,cos-to-nhia-lo,cos-to-ñia-lo,cos-to-ñi-a-lo, ,-0.430188679,-0.090943396,1,0,0,1.798,text_option_1,,0,93,93,171,1
5bf9dae56ecc0c00017ce46e,63f3cfca20052e4ae7554ebf,6453ce3f188007b096724f8c,2023-05-04_17h28.41.522,ga_syllabified_check,2022.2.5,Win32,60.0240096,,,,,,,,,,,,,,./stim/p08_syllable_1_palufauro_hit.wav,p08,palufauro,hit,pa-lu-fau-ro,pa-lu-fau-ro,pa-lu-fa-u-ro, ,-0.388679245,-0.093207547,1,0,0,2.285,text_option_1,,0,94,94,195,1
5bf9dae56ecc0c00017ce46e,63f3cfca20052e4ae7554ebf,6453ce3f188007b096724f8c,2023-05-04_17h28.41.522,ga_syllabified_check,2022.2.5,Win32,60.0240096,,,,,,,,,,,,,,./stim/p06_syllable_1_falutraigo_hit.wav,p06,falutraigo,hit,fa-lu-tra-i-go,fa-lu-trai-go,fa-lu-tra-i-go, ,0.399245283,-0.109056604,1,0,0,2.668,text_option_2,,0,95,95,106,1
5bf9dae56ecc0c00017ce46e,63f3cfca20052e4ae7554ebf,6453ce3f188007b096724f8c,2023-05-04_17h28.41.522,ga_syllabified_check,2022.2.5,Win32,60.0240096,,,,,,,,,,,,,,./stim/p07_syllable_1_lakakuaisto_hit.wav,p07,lakakuaisto,hit,la-ka-kuais-to,la-ka-kuais-to,la-ka-ku-ais-to,la-ka-kua-is-to,-0.421132075,-0.114339623,1,0,0,1.869,text_option_1,,0,96,96,151,1
5bf9dae56ecc0c00017ce46e,63f3cfca20052e4ae7554ebf,6453ce3f188007b096724f8c,2023-05-04_17h28.41.522,ga_syllabified_check,2022.2.5,Win32,60.0240096,,,,,,,,,,,,,,./stim/p03_syllable_1_lakagiaisto_hit.wav,p03,lakagiaisto,hit,la-ka-giais-to,la-ka-giais-to,la-ka-gi-ais-to,la-ka-gia-is-to,-0.42490566,-0.102264151,1,0,0,0.985,text_option_1,,0,97,97,12,1
5bf9dae56ecc0c00017ce46e,63f3cfca20052e4ae7554ebf,6453ce3f188007b096724f8c,2023-05-04_17h28.41.522,ga_syllabified_check,2022.2.5,Win32,60.0240096,,,,,,,,,,,,,,./stim/p06_syllable_1_lakapuaisto_hit.wav,p06,lakapuaisto,hit,la-ka-pu-a-is,la-ka-puais-to,la-ka-pu-ais-to,la-ka-pua-is-to,0.395471698,-0.105283019,1,0,0,6.173,text_option_2,,0,98,98,119,1
5bf9dae56ecc0c00017ce46e,63f3cfca20052e4ae7554ebf,6453ce3f188007b096724f8c,2023-05-04_17h28.41.522,ga_syllabified_check,2022.2.5,Win32,60.0240096,,,,,,,,,,,,,,./stim/p06_syllable_1_lakadiaisto_hit.wav,p06,lakadiaisto,hit,la-ka-dia-is-to,la-ka-diais-to,la-ka-di-ais-to,la-ka-dia-is-to,0.066415094,-0.115849057,1,0,0,2.503,text_option_3,,0,99,99,110,1
5bf9dae56ecc0c00017ce46e,63f3cfca20052e4ae7554ebf,6453ce3f188007b096724f8c,2023-05-04_17h28.41.522,ga_syllabified_check,2022.2.5,Win32,60.0240096,,,,,,,,,,,,,,./stim/p07_syllable_1_lakaguaisto_hit.wav,p07,lakaguaisto,hit,la-ka-guais-to,la-ka-guais-to,la-ka-gu-ais-to,la-ka-gua-is-to,-0.342641509,-0.109811321,1,0,0,2.185,text_option_1,,0,100,100,149,1
5bf9dae56ecc0c00017ce46e,63f3cfca20052e4ae7554ebf,6453ce3f188007b096724f8c,2023-05-04_17h28.41.522,ga_syllabified_check,2022.2.5,Win32,60.0240096,,,,,,,,,,,,,,./stim/p08_syllable_1_pachialo_hit.wav,p08,pachialo,hit,pa-chi-ja-lo,pa-chia-lo,pa-chi-a-lo, ,0.346415094,-0.093207547,1,0,0,1.352,text_option_2,,0,101,101,194,1
5bf9dae56ecc0c00017ce46e,63f3cfca20052e4ae7554ebf,6453ce3f188007b096724f8c,2023-05-04_17h28.41.522,ga_syllabified_check,2022.2.5,Win32,60.0240096,,,,,,,,,,,,,,./stim/p08_syllable_1_lakatuaisto_hit.wav,p08,lakatuaisto,hit,la-ka-tu-i-jis,la-ka-tuais-to,la-ka-tu-ais-to,la-ka-tua-is-to,0.08754717,-0.106792453,1,0,0,3.454,text_option_3,,0,102,102,189,1
5bf9dae56ecc0c00017ce46e,63f3cfca20052e4ae7554ebf,6453ce3f188007b096724f8c,2023-05-04_17h28.41.522,ga_syllabified_check,2022.2.5,Win32,60.0240096,,,,,,,,,,,,,,./stim/p05_syllable_1_falufaisto_hit.wav,p05,falufaisto,hit,fa-lu-fais-to,fa-lu-fais-to,fa-lu-fa-is-to, ,-0.365283019,-0.096981132,1,0,0,1.919,text_option_1,,0,103,103,71,1
5bf9dae56ecc0c00017ce46e,63f3cfca20052e4ae7554ebf,6453ce3f188007b096724f8c,2023-05-04_17h28.41.522,ga_syllabified_check,2022.2.5,Win32,60.0240096,,,,,,,,,,,,,,./stim/p07_syllable_1_falutraigo_hit.wav,p07,falutraigo,hit,fa-lu-trai-go,fa-lu-trai-go,fa-lu-tra-i-go, ,-0.303396226,-0.106037736,1,0,0,1.768,text_option_1,,0,104,104,140,1
5bf9dae56ecc0c00017ce46e,63f3cfca20052e4ae7554ebf,6453ce3f188007b096724f8c,2023-05-04_17h28.41.522,ga_syllabified_check,2022.2.5,Win32,60.0240096,,,,,,,,,,,,,,./stim/p05_syllable_1_lakadiaisto_hit.wav,p05,lakadiaisto,hit,la-ka-di-ais-to,la-ka-diais-to,la-ka-di-ais-to,la-ka-dia-is-to,0.06490566,-0.1,1,0,0,1.502,text_option_3,,0,105,105,76,1
5bf9dae56ecc0c00017ce46e,63f3cfca20052e4ae7554ebf,6453ce3f188007b096724f8c,2023-05-04_17h28.41.522,ga_syllabified_check,2022.2.5,Win32,60.0240096,,,,,,,,,,,,,,./stim/p05_syllable_1_lakagiaisto_hit.wav,p05,lakagiaisto,hit,la-ka-ki-ais-to,la-ka-giais-to,la-ka-gi-ais-to,la-ka-gia-is-to,0.061886792,-0.106037736,1,0,0,0.801,text_option_3,,0,106,106,80,1
5bf9dae56ecc0c00017ce46e,63f3cfca20052e4ae7554ebf,6453ce3f188007b096724f8c,2023-05-04_17h28.41.522,ga_syllabified_check,2022.2.5,Win32,60.0240096,,,,,,,,,,,,,,./stim/p04_syllable_1_costonhialo_hit.wav,p04,costoñialo,hit,cos-to-nhia-lo,cos-to-ñia-lo,cos-to-ñi-a-lo, ,-0.325283019,-0.106037736,1,0,0,1.134,text_option_1,,0,107,107,35,1
5bf9dae56ecc0c00017ce46e,63f3cfca20052e4ae7554ebf,6453ce3f188007b096724f8c,2023-05-04_17h28.41.522,ga_syllabified_check,2022.2.5,Win32,60.0240096,,,,,,,,,,,,,,./stim/p03_syllable_1_lakaguaisto_hit.wav,p03,lakaguaisto,hit,la-ka-guais-to,la-ka-guais-to,la-ka-gu-ais-to,la-ka-gua-is-to,-0.36754717,-0.10754717,1,0,0,1.32,text_option_1,,0,108,108,13,1
5bf9dae56ecc0c00017ce46e,63f3cfca20052e4ae7554ebf,6453ce3f188007b096724f8c,2023-05-04_17h28.41.522,ga_syllabified_check,2022.2.5,Win32,60.0240096,,,,,,,,,,,,,,./stim/p08_syllable_1_palutrauco_hit.wav,p08,palutrauco,hit,pa-lu-trau-ko,pa-lu-trau-co,pa-lu-tra-u-co, ,-0.36754717,-0.10754717,1,0,0,2.002,text_option_1,,0,109,109,199,1
5bf9dae56ecc0c00017ce46e,63f3cfca20052e4ae7554ebf,6453ce3f188007b096724f8c,2023-05-04_17h28.41.522,ga_syllabified_check,2022.2.5,Win32,60.0240096,,,,,,,,,,,,,,./stim/p07_syllable_1_palutrauco_hit.wav,p07,palutrauco,hit,pa-lu-trau-co,pa-lu-trau-co,pa-lu-tra-u-co, ,-0.36754717,-0.10754717,1,0,0,0.618,text_option_1,,0,110,110,165,1
5bf9dae56ecc0c00017ce46e,63f3cfca20052e4ae7554ebf,6453ce3f188007b096724f8c,2023-05-04_17h28.41.522,ga_syllabified_check,2022.2.5,Win32,60.0240096,,,,,,,,,,,,,,./stim/p04_syllable_1_palumaisto_hit.wav,p04,palumaisto,hit,pa-lu-mais-to,pa-lu-mais-to,pa-lu-ma-is-to, ,-0.36754717,-0.10754717,1,0,0,0.617,text_option_1,,0,111,111,62,1
5bf9dae56ecc0c00017ce46e,63f3cfca20052e4ae7554ebf,6453ce3f188007b096724f8c,2023-05-04_17h28.41.522,ga_syllabified_check,2022.2.5,Win32,60.0240096,,,,,,,,,,,,,,./stim/p04_syllable_1_chiaba_hit.wav,p04,chiaba,hit,chia-ba,chia-ba,chi-a-ba, ,-0.36754717,-0.10754717,1,0,0,0.518,text_option_1,,0,112,112,34,1
5bf9dae56ecc0c00017ce46e,63f3cfca20052e4ae7554ebf,6453ce3f188007b096724f8c,2023-05-04_17h28.41.522,ga_syllabified_check,2022.2.5,Win32,60.0240096,,,,,,,,,,,,,,./stim/p08_syllable_1_manhiala_hit.wav,p08,mañiala,hit,ma-nhia-la,ma-ñia-la,ma-ñi-a-la, ,-0.36754717,-0.10754717,1,0,0,1.568,text_option_1,,0,113,113,191,1
5bf9dae56ecc0c00017ce46e,63f3cfca20052e4ae7554ebf,6453ce3f188007b096724f8c,2023-05-04_17h28.41.522,ga_syllabified_check,2022.2.5,Win32,60.0240096,,,,,,,,,,,,,,./stim/p07_syllable_1_lakatiaisto_hit.wav,p07,lakatiaisto,hit,la-ka-tiai-sto,la-ka-tiais-to,la-ka-ti-ais-to,la-ka-tia-is-to,-0.36754717,-0.10754717,1,0,0,3.286,text_option_1,,0,114,114,154,1
5bf9dae56ecc0c00017ce46e,63f3cfca20052e4ae7554ebf,6453ce3f188007b096724f8c,2023-05-04_17h28.41.522,ga_syllabified_check,2022.2.5,Win32,60.0240096,,,,,,,,,,,,,,./stim/p07_syllable_1_lakafuaisto_hit.wav,p07,lakafuaisto,hit,la-ka-fuais-to,la-ka-fuais-to,la-ka-fu-ais-to,la-ka-fua-is-to,-0.36754717,-0.10754717,1,0,0,1.301,text_option_1,,0,115,115,147,1
5bf9dae56ecc0c00017ce46e,63f3cfca20052e4ae7554ebf,6453ce3f188007b096724f8c,2023-05-04_17h28.41.522,ga_syllabified_check,2022.2.5,Win32,60.0240096,,,,,,,,,,,,,,./stim/p06_syllable_1_lakapiaisto_hit.wav,p06,lakapiaisto,hit,la-ka-pia-is-to,la-ka-piais-to,la-ka-pi-ais-to,la-ka-pia-is-to,0.065660377,-0.109056604,1,0,0,4.154,text_option_3,,0,116,116,118,1
5bf9dae56ecc0c00017ce46e,63f3cfca20052e4ae7554ebf,6453ce3f188007b096724f8c,2023-05-04_17h28.41.522,ga_syllabified_check,2022.2.5,Win32,60.0240096,,,,,,,,,,,,,,./stim/p08_syllable_1_palufauto_hit.wav,p08,palufauto,hit,pa-lu-fau-to,pa-lu-fau-to,pa-lu-fa-u-to, ,-0.337358491,-0.112075472,1,0,0,2.502,text_option_1,,0,117,117,196,1
5bf9dae56ecc0c00017ce46e,63f3cfca20052e4ae7554ebf,6453ce3f188007b096724f8c,2023-05-04_17h28.41.522,ga_syllabified_check,2022.2.5,Win32,60.0240096,,,,,,,,,,,,,,./stim/p07_syllable_1_flauro_hit.wav,p07,flauro,hit,flau-ro,flau-ro,fla-u-ro, ,-0.366037736,-0.103773585,1,0,0,0.333,text_option_1,,0,118,118,141,1
5bf9dae56ecc0c00017ce46e,63f3cfca20052e4ae7554ebf,6453ce3f188007b096724f8c,2023-05-04_17h28.41.522,ga_syllabified_check,2022.2.5,Win32,60.0240096,,,,,,,,,,,,,,./stim/p03_syllable_1_lliape_hit.wav,p03,lliape,hit,llia,llia-pe,lli-a-pe, ,-0.366037736,-0.103773585,1,0,0,0.601,text_option_1,,0,119,119,20,1
5bf9dae56ecc0c00017ce46e,63f3cfca20052e4ae7554ebf,6453ce3f188007b096724f8c,2023-05-04_17h28.41.522,ga_syllabified_check,2022.2.5,Win32,60.0240096,,,,,,,,,,,,,,./stim/p05_syllable_1_lakatiaisto_hit.wav,p05,lakatiaisto,hit,la-ka-ti-ais-to,la-ka-tiais-to,la-ka-ti-ais-to,la-ka-tia-is-to,0.045283019,-0.094716981,1,0,0,1.969,text_option_3,,0,120,120,86,1
5bf9dae56ecc0c00017ce46e,63f3cfca20052e4ae7554ebf,6453ce3f188007b096724f8c,2023-05-04_17h28.41.522,ga_syllabified_check,2022.2.5,Win32,60.0240096,,,,,,,,,,,,,,./stim/p03_syllable_1_pachialo_hit.wav,p03,pachialo,hit,pa-chia-lo,pa-chia-lo,pa-chi-a-lo, ,-0.383396226,-0.109811321,1,0,0,0.75,text_option_1,,0,121,121,24,1
5bf9dae56ecc0c00017ce46e,63f3cfca20052e4ae7554ebf,6453ce3f188007b096724f8c,2023-05-04_17h28.41.522,ga_syllabified_check,2022.2.5,Win32,60.0240096,,,,,,,,,,,,,,./stim/p06_syllable_1_mebochiana_hit.wav,p06,mebochiana,hit,me-bo-shi-a-na,me-bo-chia-na,me-bo-chi-a-na, ,0.393207547,-0.096226415,1,0,0,2.486,text_option_2,,0,122,122,124,1
5bf9dae56ecc0c00017ce46e,63f3cfca20052e4ae7554ebf,6453ce3f188007b096724f8c,2023-05-04_17h28.41.522,ga_syllabified_check,2022.2.5,Win32,60.0240096,,,,,,,,,,,,,,./stim/p07_syllable_1_lakapuaisto_hit.wav,p07,lakapuaisto,hit,la-ka-puais-to,la-ka-puais-to,la-ka-pu-ais-to,la-ka-pua-is-to,-0.365283019,-0.121886792,1,0,0,2.034,text_option_1,,0,123,123,153,1
5bf9dae56ecc0c00017ce46e,63f3cfca20052e4ae7554ebf,6453ce3f188007b096724f8c,2023-05-04_17h28.41.522,ga_syllabified_check,2022.2.5,Win32,60.0240096,,,,,,,,,,,,,,./stim/p08_syllable_1_lakafiaisto_hit.wav,p08,lakafiaisto,hit,la-ka-fi-as-to,la-ka-fiais-to,la-ka-fi-ais-to,la-ka-fia-is-to,0.005283019,-0.097735849,1,0,0,2.851,text_option_3,,0,124,124,180,1
5bf9dae56ecc0c00017ce46e,63f3cfca20052e4ae7554ebf,6453ce3f188007b096724f8c,2023-05-04_17h28.41.522,ga_syllabified_check,2022.2.5,Win32,60.0240096,,,,,,,,,,,,,,./stim/p05_syllable_1_manhiala_hit.wav,p05,mañiala,hit,ma-nhia-la,ma-ñia-la,ma-ñi-a-la, ,-0.350188679,-0.100754717,1,0,0,0.484,text_option_1,,0,125,125,89,1
5bf9dae56ecc0c00017ce46e,63f3cfca20052e4ae7554ebf,6453ce3f188007b096724f8c,2023-05-04_17h28.41.522,ga_syllabified_check,2022.2.5,Win32,60.0240096,,,,,,,,,,,,,,./stim/p04_syllable_1_flauro_hit.wav,p04,flauro,hit,flau-ro,flau-ro,fla-u-ro, ,-0.35245283,-0.100754717,1,0,0,0.418,text_option_1,,0,126,126,39,1
5bf9dae56ecc0c00017ce46e,63f3cfca20052e4ae7554ebf,6453ce3f188007b096724f8c,2023-05-04_17h28.41.522,ga_syllabified_check,2022.2.5,Win32,60.0240096,,,,,,,,,,,,,,./stim/p05_syllable_1_lakabuaisto_hit.wav,p05,lakabuaisto,hit,la-ka-buais-to,la-ka-buais-to,la-ka-bu-ais-to,la-ka-bua-is-to,-0.35245283,-0.100754717,1,0,0,1.168,text_option_1,,0,127,127,75,1
5bf9dae56ecc0c00017ce46e,63f3cfca20052e4ae7554ebf,6453ce3f188007b096724f8c,2023-05-04_17h28.41.522,ga_syllabified_check,2022.2.5,Win32,60.0240096,,,,,,,,,,,,,,./stim/p06_syllable_1_lakaguaisto_hit.wav,p06,lakaguaisto,hit,la-ka-gu-a-is,la-ka-guais-to,la-ka-gu-ais-to,la-ka-gua-is-to,0.01509434,-0.110566038,1,0,0,5.689,text_option_3,,0,128,128,115,1
5bf9dae56ecc0c00017ce46e,63f3cfca20052e4ae7554ebf,6453ce3f188007b096724f8c,2023-05-04_17h28.41.522,ga_syllabified_check,2022.2.5,Win32,60.0240096,,,,,,,,,,,,,,./stim/p07_syllable_1_faluduako_hit.wav,p07,faluduako,hit,fa-lu-dua-ko,fa-lu-dua-ko,fa-lu-du-a-ko, ,-0.330566038,-0.11509434,1,0,0,1.925,text_option_1,,0,129,129,138,1
5bf9dae56ecc0c00017ce46e,63f3cfca20052e4ae7554ebf,6453ce3f188007b096724f8c,2023-05-04_17h28.41.522,ga_syllabified_check,2022.2.5,Win32,60.0240096,,,,,,,,,,,,,,./stim/p04_syllable_1_palutrauco_hit.wav,p04,palutrauco,hit,pa-lu-trau-co,pa-lu-trau-co,pa-lu-tra-u-co, ,-0.330566038,-0.11509434,1,0,0,0.534,text_option_1,,0,130,130,63,1
5bf9dae56ecc0c00017ce46e,63f3cfca20052e4ae7554ebf,6453ce3f188007b096724f8c,2023-05-04_17h28.41.522,ga_syllabified_check,2022.2.5,Win32,60.0240096,,,,,,,,,,,,,,./stim/p03_syllable_1_palutrauco_hit.wav,p03,palutrauco,hit,pa-lu-trau-co,pa-lu-trau-co,pa-lu-tra-u-co, ,-0.354716981,-0.098490566,1,0,0,1.268,text_option_1,,0,131,131,29,1
5bf9dae56ecc0c00017ce46e,63f3cfca20052e4ae7554ebf,6453ce3f188007b096724f8c,2023-05-04_17h28.41.522,ga_syllabified_check,2022.2.5,Win32,60.0240096,,,,,,,,,,,,,,./stim/p07_syllable_1_palufauto_hit.wav,p07,palufauto,hit,pa-lu-fau-to,pa-lu-fau-to,pa-lu-fa-u-to, ,-0.354716981,-0.098490566,1,0,0,1.212,text_option_1,,0,132,132,162,1
5bf9dae56ecc0c00017ce46e,63f3cfca20052e4ae7554ebf,6453ce3f188007b096724f8c,2023-05-04_17h28.41.522,ga_syllabified_check,2022.2.5,Win32,60.0240096,,,,,,,,,,,,,,./stim/p04_syllable_1_lakakuaisto_hit.wav,p04,lakakuaisto,hit,la-ka-kuais-to,la-ka-kuais-to,la-ka-ku-ais-to,la-ka-kua-is-to,-0.354716981,-0.098490566,1,0,0,0.434,text_option_1,,0,133,133,49,1
5bf9dae56ecc0c00017ce46e,63f3cfca20052e4ae7554ebf,6453ce3f188007b096724f8c,2023-05-04_17h28.41.522,ga_syllabified_check,2022.2.5,Win32,60.0240096,,,,,,,,,,,,,,./stim/p04_syllable_1_lakafuaisto_hit.wav,p04,lakafuaisto,hit,la-ka-fuais-to,la-ka-fuais-to,la-ka-fu-ais-to,la-ka-fua-is-to,-0.354716981,-0.098490566,1,0,0,0.368,text_option_1,,0,134,134,45,1
5bf9dae56ecc0c00017ce46e,63f3cfca20052e4ae7554ebf,6453ce3f188007b096724f8c,2023-05-04_17h28.41.522,ga_syllabified_check,2022.2.5,Win32,60.0240096,,,,,,,,,,,,,,./stim/p04_syllable_1_lakabuaisto_hit.wav,p04,lakabuaisto,hit,la-ka-buais-to,la-ka-buais-to,la-ka-bu-ais-to,la-ka-bua-is-to,-0.354716981,-0.098490566,1,0,0,0.418,text_option_1,,0,135,135,41,1
5bf9dae56ecc0c00017ce46e,63f3cfca20052e4ae7554ebf,6453ce3f188007b096724f8c,2023-05-04_17h28.41.522,ga_syllabified_check,2022.2.5,Win32,60.0240096,,,,,,,,,,,,,,./stim/p03_syllable_1_faluduako_hit.wav,p03,faluduako,hit,fa-lu-dua-ko,fa-lu-dua-ko,fa-lu-du-a-ko, ,-0.354716981,-0.098490566,1,0,0,0.951,text_option_1,,0,136,136,2,1
5bf9dae56ecc0c00017ce46e,63f3cfca20052e4ae7554ebf,6453ce3f188007b096724f8c,2023-05-04_17h28.41.522,ga_syllabified_check,2022.2.5,Win32,60.0240096,,,,,,,,,,,,,,./stim/p03_syllable_1_lakapuaisto_hit.wav,p03,lakapuaisto,hit,la-ka-puais-to,la-ka-puais-to,la-ka-pu-ais-to,la-ka-pua-is-to,-0.354716981,-0.098490566,1,0,0,0.834,text_option_1,,0,137,137,17,1
5bf9dae56ecc0c00017ce46e,63f3cfca20052e4ae7554ebf,6453ce3f188007b096724f8c,2023-05-04_17h28.41.522,ga_syllabified_check,2022.2.5,Win32,60.0240096,,,,,,,,,,,,,,./stim/p04_syllable_1_pachialo_hit.wav,p04,pachialo,hit,pa-chia-lo,pa-chia-lo,pa-chi-a-lo, ,-0.354716981,-0.098490566,1,0,0,0.635,text_option_1,,0,138,138,58,1
5bf9dae56ecc0c00017ce46e,63f3cfca20052e4ae7554ebf,6453ce3f188007b096724f8c,2023-05-04_17h28.41.522,ga_syllabified_check,2022.2.5,Win32,60.0240096,,,,,,,,,,,,,,./stim/p05_syllable_1_mebochiana_hit.wav,p05,mebochiana,hit,me-cho-chai-na,me-bo-chia-na,me-bo-chi-a-na, ,-0.354716981,-0.098490566,1,0,0,2.218,text_option_1,,0,139,139,90,1
5bf9dae56ecc0c00017ce46e,63f3cfca20052e4ae7554ebf,6453ce3f188007b096724f8c,2023-05-04_17h28.41.522,ga_syllabified_check,2022.2.5,Win32,60.0240096,,,,,,,,,,,,,,./stim/p03_syllable_1_lakafuaisto_hit.wav,p03,lakafuaisto,hit,la-ka-fuais-to,la-ka-fuais-to,la-ka-fu-ais-to,la-ka-fua-is-to,-0.354716981,-0.098490566,1,0,0,0.901,text_option_1,,0,140,140,11,1
5bf9dae56ecc0c00017ce46e,63f3cfca20052e4ae7554ebf,6453ce3f188007b096724f8c,2023-05-04_17h28.41.522,ga_syllabified_check,2022.2.5,Win32,60.0240096,,,,,,,,,,,,,,./stim/p04_syllable_1_paluguato_hit.wav,p04,paluguato,hit,pa-lu-gua,pa-lu-gua-to,pa-lu-gu-a-to, ,-0.354716981,-0.098490566,1,0,0,0.45,text_option_1,,0,141,141,61,1
5bf9dae56ecc0c00017ce46e,63f3cfca20052e4ae7554ebf,6453ce3f188007b096724f8c,2023-05-04_17h28.41.522,ga_syllabified_check,2022.2.5,Win32,60.0240096,,,,,,,,,,,,,,./stim/p08_syllable_1_lakakiaisto_hit.wav,p08,lakakiaisto,hit,la-ka-ki-jas-to,la-ka-kiais-to,la-ka-ki-ais-to,la-ka-kia-is-to,0.070943396,-0.106037736,1,0,0,2.386,text_option_3,,0,142,142,184,1
5bf9dae56ecc0c00017ce46e,63f3cfca20052e4ae7554ebf,6453ce3f188007b096724f8c,2023-05-04_17h28.41.522,ga_syllabified_check,2022.2.5,Win32,60.0240096,,,,,,,,,,,,,,./stim/p08_syllable_1_lliape_hit.wav,p08,lliape,hit,li-a-pe,llia-pe,lli-a-pe, ,0.408301887,-0.099245283,1,0,0,0.751,text_option_2,,0,143,143,190,1
5bf9dae56ecc0c00017ce46e,63f3cfca20052e4ae7554ebf,6453ce3f188007b096724f8c,2023-05-04_17h28.41.522,ga_syllabified_check,2022.2.5,Win32,60.0240096,,,,,,,,,,,,,,./stim/p04_syllable_1_mebochiana_hit.wav,p04,mebochiana,hit,me-bo-chia-na,me-bo-chia-na,me-bo-chi-a-na, ,-0.303396226,-0.109056604,1,0,0,0.7,text_option_1,,0,144,144,56,1
5bf9dae56ecc0c00017ce46e,63f3cfca20052e4ae7554ebf,6453ce3f188007b096724f8c,2023-05-04_17h28.41.522,ga_syllabified_check,2022.2.5,Win32,60.0240096,,,,,,,,,,,,,,./stim/p04_syllable_1_lakakiaisto_hit.wav,p04,lakakiaisto,hit,la-ka-kiais-to,la-ka-kiais-to,la-ka-ki-ais-to,la-ka-kia-is-to,-0.296603774,-0.10754717,1,0,0,1.819,text_option_1,,0,145,145,48,1
5bf9dae56ecc0c00017ce46e,63f3cfca20052e4ae7554ebf,6453ce3f188007b096724f8c,2023-05-04_17h28.41.522,ga_syllabified_check,2022.2.5,Win32,60.0240096,,,,,,,,,,,,,,./stim/p04_syllable_1_lakafiaisto_hit.wav,p04,lakafiaisto,hit,la-ka-fiais-to,la-ka-fiais-to,la-ka-fi-ais-to,la-ka-fia-is-to,-0.313207547,-0.100754717,1,0,0,1.651,text_option_1,,0,146,146,44,1
5bf9dae56ecc0c00017ce46e,63f3cfca20052e4ae7554ebf,6453ce3f188007b096724f8c,2023-05-04_17h28.41.522,ga_syllabified_check,2022.2.5,Win32,60.0240096,,,,,,,,,,,,,,./stim/p03_syllable_1_palufauro_hit.wav,p03,palufauro,hit,pa-lu-fau-ro,pa-lu-fau-ro,pa-lu-fa-u-ro, ,-0.313207547,-0.100754717,1,0,0,1.085,text_option_1,,0,147,147,25,1
5bf9dae56ecc0c00017ce46e,63f3cfca20052e4ae7554ebf,6453ce3f188007b096724f8c,2023-05-04_17h28.41.522,ga_syllabified_check,2022.2.5,Win32,60.0240096,,,,,,,,,,,,,,./stim/p05_syllable_1_palufauto_hit.wav,p05,palufauto,hit,pa-lu-fau-to,pa-lu-fau-to,pa-lu-fa-u-to, ,-0.313207547,-0.100754717,1,0,0,0.851,text_option_1,,0,148,148,94,1
5bf9dae56ecc0c00017ce46e,63f3cfca20052e4ae7554ebf,6453ce3f188007b096724f8c,2023-05-04_17h28.41.522,ga_syllabified_check,2022.2.5,Win32,60.0240096,,,,,,,,,,,,,,./stim/p05_syllable_1_pachialo_hit.wav,p05,pachialo,hit,pan-chia-lo,pa-chia-lo,pa-chi-a-lo, ,-0.356981132,-0.093962264,1,0,0,0.434,text_option_1,,0,149,149,92,1
5bf9dae56ecc0c00017ce46e,63f3cfca20052e4ae7554ebf,6453ce3f188007b096724f8c,2023-05-04_17h28.41.522,ga_syllabified_check,2022.2.5,Win32,60.0240096,,,,,,,,,,,,,,./stim/p07_syllable_1_costonhialo_hit.wav,p07,costoñialo,hit,cos-to-nhia-lo,cos-to-ñia-lo,cos-to-ñi-a-lo, ,-0.340377358,-0.096981132,1,0,0,1.652,text_option_1,,0,150,150,137,1
5bf9dae56ecc0c00017ce46e,63f3cfca20052e4ae7554ebf,6453ce3f188007b096724f8c,2023-05-04_17h28.41.522,ga_syllabified_check,2022.2.5,Win32,60.0240096,,,,,,,,,,,,,,./stim/p05_syllable_1_ruyiola_hit.wav,p05,ruyiola,hit,ru-yio-la,ru-yio-la,ru-yi-o-la, ,-0.340377358,-0.097735849,1,0,0,0.25,text_option_1,,0,151,151,100,1
5bf9dae56ecc0c00017ce46e,63f3cfca20052e4ae7554ebf,6453ce3f188007b096724f8c,2023-05-04_17h28.41.522,ga_syllabified_check,2022.2.5,Win32,60.0240096,,,,,,,,,,,,,,./stim/p08_syllable_1_lakaduaisto_hit.wav,p08,lakaduaisto,hit,la-ka-du-ais-to,la-ka-duais-to,la-ka-du-ais-to,la-ka-dua-is-to,0.080754717,-0.104528302,1,0,0,2.05,text_option_3,,0,152,152,179,1
5bf9dae56ecc0c00017ce46e,63f3cfca20052e4ae7554ebf,6453ce3f188007b096724f8c,2023-05-04_17h28.41.522,ga_syllabified_check,2022.2.5,Win32,60.0240096,,,,,,,,,,,,,,./stim/p06_syllable_1_palufauto_hit.wav,p06,palufauto,hit,pa-lu-fau-to,pa-lu-fau-to,pa-lu-fa-u-to, ,0.391698113,-0.088679245,1,0,0,2.252,text_option_2,,0,153,153,128,1
5bf9dae56ecc0c00017ce46e,63f3cfca20052e4ae7554ebf,6453ce3f188007b096724f8c,2023-05-04_17h28.41.522,ga_syllabified_check,2022.2.5,Win32,60.0240096,,,,,,,,,,,,,,./stim/p07_syllable_1_lakabiaisto_hit.wav,p07,lakabiaisto,hit,la-ka-bais-to,la-ka-biais-to,la-ka-bi-ais-to,la-ka-bia-is-to,-0.329056604,-0.106037736,1,0,0,2.619,text_option_1,,0,154,154,142,1
5bf9dae56ecc0c00017ce46e,63f3cfca20052e4ae7554ebf,6453ce3f188007b096724f8c,2023-05-04_17h28.41.522,ga_syllabified_check,2022.2.5,Win32,60.0240096,,,,,,,,,,,,,,./stim/p06_syllable_1_manhiala_hit.wav,p06,mañiala,hit,ma-nhi-a-la,ma-ñia-la,ma-ñi-a-la, ,0.452075472,-0.099245283,1,0,0,1.469,text_option_2,,0,155,155,123,1
5bf9dae56ecc0c00017ce46e,63f3cfca20052e4ae7554ebf,6453ce3f188007b096724f8c,2023-05-04_17h28.41.522,ga_syllabified_check,2022.2.5,Win32,60.0240096,,,,,,,,,,,,,,./stim/p05_syllable_1_lakakuaisto_hit.wav,p05,lakakuaisto,hit,la-ka-kais-to,la-ka-kuais-to,la-ka-ku-ais-to,la-ka-kua-is-to,-0.326792453,-0.110566038,1,0,0,1.066,text_option_1,,0,156,156,83,1
5bf9dae56ecc0c00017ce46e,63f3cfca20052e4ae7554ebf,6453ce3f188007b096724f8c,2023-05-04_17h28.41.522,ga_syllabified_check,2022.2.5,Win32,60.0240096,,,,,,,,,,,,,,./stim/p08_syllable_1_lakaguaisto_hit.wav,p08,lakaguaisto,hit,la-ka-gu-ais-to,la-ka-guais-to,la-ka-gu-ais-to,la-ka-gua-is-to,-0.05509434,-0.096226415,1,0,0,2.101,text_option_3,,0,157,157,183,1
5bf9dae56ecc0c00017ce46e,63f3cfca20052e4ae7554ebf,6453ce3f188007b096724f8c,2023-05-04_17h28.41.522,ga_syllabified_check,2022.2.5,Win32,60.0240096,,,,,,,,,,,,,,./stim/p07_syllable_1_falufaisto_hit.wav,p07,falufaisto,hit,fa-lu-fais-to,fa-lu-fais-to,fa-lu-fa-is-to, ,-0.334339623,-0.106037736,1,0,0,1.615,text_option_1,,0,158,158,139,1
5bf9dae56ecc0c00017ce46e,63f3cfca20052e4ae7554ebf,6453ce3f188007b096724f8c,2023-05-04_17h28.41.522,ga_syllabified_check,2022.2.5,Win32,60.0240096,,,,,,,,,,,,,,./stim/p05_syllable_1_lakafiaisto_hit.wav,p05,lakafiaisto,hit,la-ka-fi-ais-to,la-ka-fiais-to,la-ka-fi-ais-to,la-ka-fia-is-to,0.039245283,-0.088679245,1,0,0,1.301,text_option_3,,0,159,159,78,1
5bf9dae56ecc0c00017ce46e,63f3cfca20052e4ae7554ebf,6453ce3f188007b096724f8c,2023-05-04_17h28.41.522,ga_syllabified_check,2022.2.5,Win32,60.0240096,,,,,,,,,,,,,,./stim/p07_syllable_1_lakaduaisto_hit.wav,p07,lakaduaisto,hit,la-ka-duais-to,la-ka-duais-to,la-ka-du-ais-to,la-ka-dua-is-to,-0.308679245,-0.09245283,1,0,0,1.534,text_option_1,,0,160,160,145,1
5bf9dae56ecc0c00017ce46e,63f3cfca20052e4ae7554ebf,6453ce3f188007b096724f8c,2023-05-04_17h28.41.522,ga_syllabified_check,2022.2.5,Win32,60.0240096,,,,,,,,,,,,,,./stim/p06_syllable_1_pachialo_hit.wav,p06,pachialo,hit,pa-shi-a-lo,pa-chia-lo,pa-chi-a-lo, ,0.388679245,-0.09245283,1,0,0,1.101,text_option_2,,0,161,161,126,1
5bf9dae56ecc0c00017ce46e,63f3cfca20052e4ae7554ebf,6453ce3f188007b096724f8c,2023-05-04_17h28.41.522,ga_syllabified_check,2022.2.5,Win32,60.0240096,,,,,,,,,,,,,,./stim/p05_syllable_1_flauro_hit.wav,p05,flauro,hit,fa-lu-ro,flau-ro,fla-u-ro, ,0.434716981,-0.096226415,1,0,0,0.451,text_option_2,,0,162,162,73,1
5bf9dae56ecc0c00017ce46e,63f3cfca20052e4ae7554ebf,6453ce3f188007b096724f8c,2023-05-04_17h28.41.522,ga_syllabified_check,2022.2.5,Win32,60.0240096,,,,,,,,,,,,,,./stim/p08_syllable_1_payielo_hit.wav,p08,payielo,hit,pa-yie-lo,pa-yie-lo,pa-yi-e-lo, ,-0.353207547,-0.10754717,1,0,0,1.502,text_option_1,,0,163,163,200,1
5bf9dae56ecc0c00017ce46e,63f3cfca20052e4ae7554ebf,6453ce3f188007b096724f8c,2023-05-04_17h28.41.522,ga_syllabified_check,2022.2.5,Win32,60.0240096,,,,,,,,,,,,,,./stim/p08_syllable_1_lakapuaisto_hit.wav,p08,lakapuaisto,hit,la-ka-pu-as-to,la-ka-puais-to,la-ka-pu-ais-to,la-ka-pua-is-to,0.03245283,-0.095471698,1,0,0,1.918,text_option_3,,0,164,164,187,1
5bf9dae56ecc0c00017ce46e,63f3cfca20052e4ae7554ebf,6453ce3f188007b096724f8c,2023-05-04_17h28.41.522,ga_syllabified_check,2022.2.5,Win32,60.0240096,,,,,,,,,,,,,,./stim/p08_syllable_1_mebochiana_hit.wav,p08,mebochiana,hit,me-bo-chi-a-na,me-bo-chia-na,me-bo-chi-a-na, ,0.461886792,-0.079622642,1,0,0,1.753,text_option_2,,0,165,165,192,1
5bf9dae56ecc0c00017ce46e,63f3cfca20052e4ae7554ebf,6453ce3f188007b096724f8c,2023-05-04_17h28.41.522,ga_syllabified_check,2022.2.5,Win32,60.0240096,,,,,,,,,,,,,,./stim/p05_syllable_1_paluguato_hit.wav,p05,paluguato,hit,pa-lu-gau-to,pa-lu-gua-to,pa-lu-gu-a-to, ,-0.405283019,-0.11509434,1,0,0,1.434,text_option_1,,0,166,166,95,1
5bf9dae56ecc0c00017ce46e,63f3cfca20052e4ae7554ebf,6453ce3f188007b096724f8c,2023-05-04_17h28.41.522,ga_syllabified_check,2022.2.5,Win32,60.0240096,,,,,,,,,,,,,,./stim/p07_syllable_1_chiaba_hit.wav,p07,chiaba,hit,chia-ba,chia-ba,chi-a-ba, ,-0.375849057,-0.106792453,1,0,0,0.551,text_option_1,,0,167,167,136,1
5bf9dae56ecc0c00017ce46e,63f3cfca20052e4ae7554ebf,6453ce3f188007b096724f8c,2023-05-04_17h28.41.522,ga_syllabified_check,2022.2.5,Win32,60.0240096,,,,,,,,,,,,,,./stim/p06_syllable_1_chiaba_hit.wav,p06,chiaba,hit,chi-a-ba,chia-ba,chi-a-ba, ,-0.396226415,-0.102264151,1,0,0,0.068,text_option_1,,0,168,168,102,1
5bf9dae56ecc0c00017ce46e,63f3cfca20052e4ae7554ebf,6453ce3f188007b096724f8c,2023-05-04_17h28.41.522,ga_syllabified_check,2022.2.5,Win32,60.0240096,,,,,,,,,,,,,,./stim/p07_syllable_1_rausto_hit.wav,p07,rausto,hit,raus-to,raus-to,ra-us-to, ,-0.396226415,-0.102264151,1,0,0,1.251,text_option_1,,0,169,169,167,1
5bf9dae56ecc0c00017ce46e,63f3cfca20052e4ae7554ebf,6453ce3f188007b096724f8c,2023-05-04_17h28.41.522,ga_syllabified_check,2022.2.5,Win32,60.0240096,,,,,,,,,,,,,,./stim/p03_syllable_1_lakapiaisto_hit.wav,p03,lakapiaisto,hit,la-ka-piais-to,la-ka-piais-to,la-ka-pi-ais-to,la-ka-pia-is-to,-0.396226415,-0.102264151,1,0,0,1.118,text_option_1,,0,170,170,16,1
5bf9dae56ecc0c00017ce46e,63f3cfca20052e4ae7554ebf,6453ce3f188007b096724f8c,2023-05-04_17h28.41.522,ga_syllabified_check,2022.2.5,Win32,60.0240096,,,,,,,,,,,,,,./stim/p06_syllable_1_falufaisto_hit.wav,p06,falufaisto,hit,fa-lu-fa-is-to,fa-lu-fais-to,fa-lu-fa-is-to, ,0.372830189,-0.08490566,1,0,0,2.251,text_option_2,,0,171,171,105,1
5bf9dae56ecc0c00017ce46e,63f3cfca20052e4ae7554ebf,6453ce3f188007b096724f8c,2023-05-04_17h28.41.522,ga_syllabified_check,2022.2.5,Win32,60.0240096,,,,,,,,,,,,,,./stim/p06_syllable_1_rausto_hit.wav,p06,rausto,hit,ra-us-to,raus-to,ra-us-to, ,0.371320755,-0.1,1,0,0,1.084,text_option_2,,0,172,172,133,1
5bf9dae56ecc0c00017ce46e,63f3cfca20052e4ae7554ebf,6453ce3f188007b096724f8c,2023-05-04_17h28.41.522,ga_syllabified_check,2022.2.5,Win32,60.0240096,,,,,,,,,,,,,,./stim/p03_syllable_1_falutraigo_hit.wav,p03,falutraigo,hit,fa-lu-trai-go,fa-lu-trai-go,fa-lu-tra-i-go, ,-0.360754717,-0.103773585,1,0,0,1.401,text_option_1,,0,173,173,4,1
5bf9dae56ecc0c00017ce46e,63f3cfca20052e4ae7554ebf,6453ce3f188007b096724f8c,2023-05-04_17h28.41.522,ga_syllabified_check,2022.2.5,Win32,60.0240096,,,,,,,,,,,,,,./stim/p06_syllable_1_lakakiaisto_hit.wav,p06,lakakiaisto,hit,la-ka-kia-is-to,la-ka-kiais-to,la-ka-ki-ais-to,la-ka-kia-is-to,0.031698113,-0.101509434,1,0,0,3.236,text_option_3,,0,174,174,116,1
5bf9dae56ecc0c00017ce46e,63f3cfca20052e4ae7554ebf,6453ce3f188007b096724f8c,2023-05-04_17h28.41.522,ga_syllabified_check,2022.2.5,Win32,60.0240096,,,,,,,,,,,,,,./stim/p04_syllable_1_tuliafo_hit.wav,p04,tuliafo,hit,tu-lia-fo,tu-lia-fo,tu-li-a-fo, ,-0.341132075,-0.106037736,1,0,0,0.718,text_option_1,,0,175,175,67,1
5bf9dae56ecc0c00017ce46e,63f3cfca20052e4ae7554ebf,6453ce3f188007b096724f8c,2023-05-04_17h28.41.522,ga_syllabified_check,2022.2.5,Win32,60.0240096,,,,,,,,,,,,,,./stim/p07_syllable_1_manhiala_hit.wav,p07,mañiala,hit,ma-nhia-la,ma-ñia-la,ma-ñi-a-la, ,-0.341132075,-0.106037736,1,0,0,1.485,text_option_1,,0,176,176,157,1
5bf9dae56ecc0c00017ce46e,63f3cfca20052e4ae7554ebf,6453ce3f188007b096724f8c,2023-05-04_17h28.41.522,ga_syllabified_check,2022.2.5,Win32,60.0240096,,,,,,,,,,,,,,./stim/p08_syllable_1_lakapiaisto_hit.wav,p08,lakapiaisto,hit,la-ka-pi-as-to,la-ka-piais-to,la-ka-pi-ais-to,la-ka-pia-is-to,0.038490566,-0.120377358,1,0,0,2.435,text_option_3,,0,177,177,186,1
5bf9dae56ecc0c00017ce46e,63f3cfca20052e4ae7554ebf,6453ce3f188007b096724f8c,2023-05-04_17h28.41.522,ga_syllabified_check,2022.2.5,Win32,60.0240096,,,,,,,,,,,,,,./stim/p03_syllable_1_manhiala_hit.wav,p03,mañiala,hit,ma-nhia-la,ma-ñia-la,ma-ñi-a-la, ,-0.366037736,-0.114339623,1,0,0,0.616,text_option_1,,0,178,178,21,1
5bf9dae56ecc0c00017ce46e,63f3cfca20052e4ae7554ebf,6453ce3f188007b096724f8c,2023-05-04_17h28.41.522,ga_syllabified_check,2022.2.5,Win32,60.0240096,,,,,,,,,,,,,,./stim/p06_syllable_1_costonhialo_hit.wav,p06,costoñialo,hit,cos-to-nhia-lo,cos-to-ñia-lo,cos-to-ñi-a-lo, ,-0.349433962,-0.103773585,1,0,0,2.352,text_option_1,,0,179,179,103,1
5bf9dae56ecc0c00017ce46e,63f3cfca20052e4ae7554ebf,6453ce3f188007b096724f8c,2023-05-04_17h28.41.522,ga_syllabified_check,2022.2.5,Win32,60.0240096,,,,,,,,,,,,,,./stim/p07_syllable_1_payielo_hit.wav,p07,payielo,hit,pa-yie-lo,pa-yie-lo,pa-yi-e-lo, ,-0.38490566,-0.10754717,1,0,0,0.517,text_option_1,,0,180,180,166,1
5bf9dae56ecc0c00017ce46e,63f3cfca20052e4ae7554ebf,6453ce3f188007b096724f8c,2023-05-04_17h28.41.522,ga_syllabified_check,2022.2.5,Win32,60.0240096,,,,,,,,,,,,,,./stim/p08_syllable_1_flauro_hit.wav,p08,flauro,hit,flau-ro,flau-ro,fla-u-ro, ,-0.387169811,-0.109811321,1,0,0,0.618,text_option_1,,0,181,181,175,1
5bf9dae56ecc0c00017ce46e,63f3cfca20052e4ae7554ebf,6453ce3f188007b096724f8c,2023-05-04_17h28.41.522,ga_syllabified_check,2022.2.5,Win32,60.0240096,,,,,,,,,,,,,,./stim/p04_syllable_1_lakadiaisto_hit.wav,p04,lakadiaisto,hit,la-ka-dias-to,la-ka-diais-to,la-ka-di-ais-to,la-ka-dia-is-to,-0.349433962,-0.093962264,1,0,0,0.94,text_option_1,,0,182,182,42,1
5bf9dae56ecc0c00017ce46e,63f3cfca20052e4ae7554ebf,6453ce3f188007b096724f8c,2023-05-04_17h28.41.522,ga_syllabified_check,2022.2.5,Win32,60.0240096,,,,,,,,,,,,,,./stim/p04_syllable_1_lakagiaisto_hit.wav,p04,lakagiaisto,hit,la-ka-giais-to,la-ka-giais-to,la-ka-gi-ais-to,la-ka-gia-is-to,-0.334339623,-0.103018868,1,0,0,0.984,text_option_1,,0,183,183,46,1
5bf9dae56ecc0c00017ce46e,63f3cfca20052e4ae7554ebf,6453ce3f188007b096724f8c,2023-05-04_17h28.41.522,ga_syllabified_check,2022.2.5,Win32,60.0240096,,,,,,,,,,,,,,./stim/p03_syllable_1_lakakuaisto_hit.wav,p03,lakakuaisto,hit,la-ka-kuais-to,la-ka-kuais-to,la-ka-ku-ais-to,la-ka-kua-is-to,-0.334339623,-0.103018868,1,0,0,0.667,text_option_1,,0,184,184,15,1
5bf9dae56ecc0c00017ce46e,63f3cfca20052e4ae7554ebf,6453ce3f188007b096724f8c,2023-05-04_17h28.41.522,ga_syllabified_check,2022.2.5,Win32,60.0240096,,,,,,,,,,,,,,./stim/p05_syllable_1_lakaguaisto_hit.wav,p05,lakaguaisto,hit,la-ka-gais,la-ka-guais-to,la-ka-gu-ais-to,la-ka-gua-is-to,-0.334339623,-0.103018868,1,0,0,0.568,text_option_1,,0,185,185,81,1
5bf9dae56ecc0c00017ce46e,63f3cfca20052e4ae7554ebf,6453ce3f188007b096724f8c,2023-05-04_17h28.41.522,ga_syllabified_check,2022.2.5,Win32,60.0240096,,,,,,,,,,,,,,./stim/p03_syllable_1_lakatuaisto_hit.wav,p03,lakatuaisto,hit,la-ka-tuais-to,la-ka-tuais-to,la-ka-tu-ais-to,la-ka-tua-is-to,-0.334339623,-0.103018868,1,0,0,0.684,text_option_1,,0,186,186,19,1
5bf9dae56ecc0c00017ce46e,63f3cfca20052e4ae7554ebf,6453ce3f188007b096724f8c,2023-05-04_17h28.41.522,ga_syllabified_check,2022.2.5,Win32,60.0240096,,,,,,,,,,,,,,./stim/p03_syllable_1_lakafiaisto_hit.wav,p03,lakafiaisto,hit,la-ka-fiais-to,la-ka-fiais-to,la-ka-fi-ais-to,la-ka-fia-is-to,-0.334339623,-0.103018868,1,0,0,0.684,text_option_1,,0,187,187,10,1
5bf9dae56ecc0c00017ce46e,63f3cfca20052e4ae7554ebf,6453ce3f188007b096724f8c,2023-05-04_17h28.41.522,ga_syllabified_check,2022.2.5,Win32,60.0240096,,,,,,,,,,,,,,./stim/p06_syllable_1_lakabuaisto_hit.wav,p06,lakabuaisto,hit,la-ka-bu-a-is,la-ka-buais-to,la-ka-bu-ais-to,la-ka-bua-is-to,0.42490566,-0.102264151,1,0,0,3.752,text_option_2,,0,188,188,109,1
5bf9dae56ecc0c00017ce46e,63f3cfca20052e4ae7554ebf,6453ce3f188007b096724f8c,2023-05-04_17h28.41.522,ga_syllabified_check,2022.2.5,Win32,60.0240096,,,,,,,,,,,,,,./stim/p06_syllable_1_payielo_hit.wav,p06,payielo,hit,pa-yi-e-lo,pa-yie-lo,pa-yi-e-lo, ,0.374339623,-0.104528302,1,0,0,1.402,text_option_2,,0,189,189,132,1
5bf9dae56ecc0c00017ce46e,63f3cfca20052e4ae7554ebf,6453ce3f188007b096724f8c,2023-05-04_17h28.41.522,ga_syllabified_check,2022.2.5,Win32,60.0240096,,,,,,,,,,,,,,./stim/p03_syllable_1_lakabuaisto_hit.wav,p03,lakabuaisto,hit,la-ka-buais-to,la-ka-buais-to,la-ka-bu-ais-to,la-ka-bua-is-to,-0.38490566,-0.100754717,1,0,0,0.95,text_option_1,,0,190,190,7,1
5bf9dae56ecc0c00017ce46e,63f3cfca20052e4ae7554ebf,6453ce3f188007b096724f8c,2023-05-04_17h28.41.522,ga_syllabified_check,2022.2.5,Win32,60.0240096,,,,,,,,,,,,,,./stim/p05_syllable_1_palutrauco_hit.wav,p05,palutrauco,hit,pa-lu-trai-co,pa-lu-trau-co,pa-lu-tra-u-co, ,-0.378867925,-0.109811321,1,0,0,0.65,text_option_1,,0,191,191,97,1
5bf9dae56ecc0c00017ce46e,63f3cfca20052e4ae7554ebf,6453ce3f188007b096724f8c,2023-05-04_17h28.41.522,ga_syllabified_check,2022.2.5,Win32,60.0240096,,,,,,,,,,,,,,./stim/p03_syllable_1_falufaisto_hit.wav,p03,falufaisto,hit,fa-lu-fais-to,fa-lu-fais-to,fa-lu-fa-is-to, ,-0.378867925,-0.109811321,1,0,0,0.934,text_option_1,,0,192,192,3,1
5bf9dae56ecc0c00017ce46e,63f3cfca20052e4ae7554ebf,6453ce3f188007b096724f8c,2023-05-04_17h28.41.522,ga_syllabified_check,2022.2.5,Win32,60.0240096,,,,,,,,,,,,,,./stim/p08_syllable_1_lakatiaisto_hit.wav,p08,lakatiaisto,hit,la-ka-ti-as-to,la-ka-tiais-to,la-ka-ti-ais-to,la-ka-tia-is-to,-0.378867925,-0.109811321,1,0,0,3.453,text_option_1,,0,193,193,188,1
5bf9dae56ecc0c00017ce46e,63f3cfca20052e4ae7554ebf,6453ce3f188007b096724f8c,2023-05-04_17h28.41.522,ga_syllabified_check,2022.2.5,Win32,60.0240096,,,,,,,,,,,,,,./stim/p07_syllable_1_pachialo_hit.wav,p07,pachialo,hit,pa-cha-lo,pa-chia-lo,pa-chi-a-lo, ,-0.378867925,-0.109811321,1,0,0,1.417,text_option_1,,0,194,194,160,1
5bf9dae56ecc0c00017ce46e,63f3cfca20052e4ae7554ebf,6453ce3f188007b096724f8c,2023-05-04_17h28.41.522,ga_syllabified_check,2022.2.5,Win32,60.0240096,,,,,,,,,,,,,,./stim/p07_syllable_1_ruyiola_hit.wav,p07,ruyiola,hit,ru-yio-la,ru-yio-la,ru-yi-o-la, ,-0.378867925,-0.109811321,1,0,0,1.102,text_option_1,,0,195,195,168,1
5bf9dae56ecc0c00017ce46e,63f3cfca20052e4ae7554ebf,6453ce3f188007b096724f8c,2023-05-04_17h28.41.522,ga_syllabified_check,2022.2.5,Win32,60.0240096,,,,,,,,,,,,,,./stim/p06_syllable_1_lakatuaisto_hit.wav,p06,lakatuaisto,hit,la-ka-tu-a-is,la-ka-tuais-to,la-ka-tu-ais-to,la-ka-tua-is-to,0.009056604,-0.117358491,1,0,0,3.069,text_option_3,,0,196,196,121,1
5bf9dae56ecc0c00017ce46e,63f3cfca20052e4ae7554ebf,6453ce3f188007b096724f8c,2023-05-04_17h28.41.522,ga_syllabified_check,2022.2.5,Win32,60.0240096,,,,,,,,,,,,,,./stim/p03_syllable_1_paluguato_hit.wav,p03,paluguato,hit,pa-lu-gua,pa-lu-gua-to,pa-lu-gu-a-to, ,-0.362264151,-0.095471698,1,0,0,0.817,text_option_1,,0,197,197,27,1
5bf9dae56ecc0c00017ce46e,63f3cfca20052e4ae7554ebf,6453ce3f188007b096724f8c,2023-05-04_17h28.41.522,ga_syllabified_check,2022.2.5,Win32,60.0240096,,,,,,,,,,,,,,./stim/p06_syllable_1_lakagiaisto_hit.wav,p06,lakagiaisto,hit,la-ka-gia-is-to,la-ka-giais-to,la-ka-gi-ais-to,la-ka-gia-is-to,0.009811321,-0.108301887,1,0,0,3.253,text_option_3,,0,198,198,114,1
5bf9dae56ecc0c00017ce46e,63f3cfca20052e4ae7554ebf,6453ce3f188007b096724f8c,2023-05-04_17h28.41.522,ga_syllabified_check,2022.2.5,Win32,60.0240096,,,,,,,,,,,,,,./stim/p08_syllable_1_lakakuaisto_hit.wav,p08,lakakuaisto,hit,la-ka-ku-ais-to,la-ka-kuais-to,la-ka-ku-ais-to,la-ka-kua-is-to,0.33509434,-0.102264151,1,0,0,2.969,text_option_2,,0,199,199,185,1
5bf9dae56ecc0c00017ce46e,63f3cfca20052e4ae7554ebf,6453ce3f188007b096724f8c,2023-05-04_17h28.41.522,ga_syllabified_check,2022.2.5,Win32,60.0240096,,,,,,,,,,,,,,./stim/p04_syllable_1_lakapuaisto_hit.wav,p04,lakapuaisto,hit,la-ka-puais-to,la-ka-puais-to,la-ka-pu-ais-to,la-ka-pua-is-to,0.000754717,-0.097735849,1,0,0,1.218,text_option_3,,0,200,200,51,1
5bf9dae56ecc0c00017ce46e,63f3cfca20052e4ae7554ebf,6453ce3f188007b096724f8c,2023-05-04_17h28.41.522,ga_syllabified_check,2022.2.5,Win32,60.0240096,,,,,,,,,,,,,,./stim/p05_syllable_1_lakapuaisto_hit.wav,p05,lakapuaisto,hit,la-ka-pais-to,la-ka-puais-to,la-ka-pu-ais-to,la-ka-pua-is-to,-0.358490566,-0.117358491,1,0,0,2.302,text_option_1,,0,201,201,85,1
5bf9dae56ecc0c00017ce46e,63f3cfca20052e4ae7554ebf,6453ce3f188007b096724f8c,2023-05-04_17h28.41.522,ga_syllabified_check,2022.2.5,Win32,60.0240096,,,,,,,,,,,,,,./stim/p03_syllable_1_nhiape_hit.wav,p03,ñiape,hit,nhia-pe,ñia-pe,ñi-a-pe, ,-0.364528302,-0.103773585,1,0,0,0.801,text_option_1,,0,202,202,23,1
5bf9dae56ecc0c00017ce46e,63f3cfca20052e4ae7554ebf,6453ce3f188007b096724f8c,2023-05-04_17h28.41.522,ga_syllabified_check,2022.2.5,Win32,60.0240096,,,,,,,,,,,,,,./stim/p07_syllable_1_lakakiaisto_hit.wav,p07,lakakiaisto,hit,la-ka-kais-to,la-ka-kiais-to,la-ka-ki-ais-to,la-ka-kia-is-to,-0.364528302,-0.103773585,1,0,0,1.218,text_option_1,,0,203,203,150,1
5bf9dae56ecc0c00017ce46e,63f3cfca20052e4ae7554ebf,6453ce3f188007b096724f8c,2023-05-04_17h28.41.522,ga_syllabified_check,2022.2.5,Win32,60.0240096,,,,,,,,,,,,,,,,,,,,,,,,,,,,,,,,,,
