participant,study,session,date,expName,psychopyVersion,OS,frameRate,mouse_practice.x,mouse_practice.y,mouse_practice.leftButton,mouse_practice.midButton,mouse_practice.rightButton,mouse_practice.time,mouse_practice.clicked_name,textbox_followup_practice.text,trials_practice.thisRepN,trials_practice.thisTrialN,trials_practice.thisN,trials_practice.thisIndex,trials_practice.ran,file_path,id,item,status,response,op1,op2,op3,mouse.x,mouse.y,mouse.leftButton,mouse.midButton,mouse.rightButton,mouse.time,mouse.clicked_name,textbox_followup.text,trials.thisRepN,trials.thisTrialN,trials.thisN,trials.thisIndex,trials.ran
5c5e3853de929b0001a4d683,63f3cfca20052e4ae7554ebf,6453ccae251b2c950963649b,2023-05-04_17h21.03.038,ga_syllabified_check,2022.2.5,Win32,60.0276127,,,,,,,,,,,,,,,,,,,,,,,,,,,,,,,,,,
5c5e3853de929b0001a4d683,63f3cfca20052e4ae7554ebf,6453ccae251b2c950963649b,2023-05-04_17h21.03.038,ga_syllabified_check,2022.2.5,Win32,60.0276127,-0.392592593,-0.100925926,1,0,0,6.9134,text_option_1_practice,,0,0,0,0,1,./stim/p03_syllable_1_liamo_hit.wav,p03,liamo,hit,lia-mo,lia-mo,li-a-mo, ,,,,,,,,,,,,,
5c5e3853de929b0001a4d683,63f3cfca20052e4ae7554ebf,6453ccae251b2c950963649b,2023-05-04_17h21.03.038,ga_syllabified_check,2022.2.5,Win32,60.0276127,-0.37037037,-0.09537037,1,0,0,3.0983,text_option_1_practice,,0,1,1,1,1,./stim/p05_syllable_1_matio_hit.wav,p05,matio,hit,ma-tio,ma-tio,ma-ti-o, ,,,,,,,,,,,,,
5c5e3853de929b0001a4d683,63f3cfca20052e4ae7554ebf,6453ccae251b2c950963649b,2023-05-04_17h21.03.038,ga_syllabified_check,2022.2.5,Win32,60.0276127,-0.364814815,-0.101851852,1,0,0,3.7148,text_option_1_practice,,0,2,2,2,1,./stim/p08_syllable_1_liamo_hit.wav,p08,liamo,hit,ja-mo,lia-mo,li-a-mo, ,,,,,,,,,,,,,
5c5e3853de929b0001a4d683,63f3cfca20052e4ae7554ebf,6453ccae251b2c950963649b,2023-05-04_17h21.03.038,ga_syllabified_check,2022.2.5,Win32,60.0276127,,,,,,,,,,,,,,,,,,,,,,,,,,,,,,,,,,
5c5e3853de929b0001a4d683,63f3cfca20052e4ae7554ebf,6453ccae251b2c950963649b,2023-05-04_17h21.03.038,ga_syllabified_check,2022.2.5,Win32,60.0276127,,,,,,,,,,,,,,./stim/p06_syllable_1_lakaduaisto_hit.wav,p06,lakaduaisto,hit,la-ka-du-a-is,la-ka-duais-to,la-ka-du-ais-to,la-ka-dua-is-to,0.344444444,-0.107407407,1,0,0,16.6758,text_option_2,,0,0,0,111,1
5c5e3853de929b0001a4d683,63f3cfca20052e4ae7554ebf,6453ccae251b2c950963649b,2023-05-04_17h21.03.038,ga_syllabified_check,2022.2.5,Win32,60.0276127,,,,,,,,,,,,,,./stim/p07_syllable_1_mebochiana_hit.wav,p07,mebochiana,hit,me-bo-chia-na,me-bo-chia-na,me-bo-chi-a-na, ,-0.374074074,-0.110185185,1,0,0,3.9316,text_option_1,,0,1,1,158,1
5c5e3853de929b0001a4d683,63f3cfca20052e4ae7554ebf,6453ccae251b2c950963649b,2023-05-04_17h21.03.038,ga_syllabified_check,2022.2.5,Win32,60.0276127,,,,,,,,,,,,,,./stim/p04_syllable_1_palutrauco_hit.wav,p04,palutrauco,hit,pa-lu-trau-co,pa-lu-trau-co,pa-lu-tra-u-co, ,-0.422222222,-0.102777778,1,0,0,2.7654,text_option_1,,0,2,2,63,1
5c5e3853de929b0001a4d683,63f3cfca20052e4ae7554ebf,6453ccae251b2c950963649b,2023-05-04_17h21.03.038,ga_syllabified_check,2022.2.5,Win32,60.0276127,,,,,,,,,,,,,,./stim/p03_syllable_1_lakafuaisto_hit.wav,p03,lakafuaisto,hit,la-ka-fuais-to,la-ka-fuais-to,la-ka-fu-ais-to,la-ka-fua-is-to,-0.355555556,-0.099074074,1,0,0,4.5812,text_option_1,,0,3,3,11,1
5c5e3853de929b0001a4d683,63f3cfca20052e4ae7554ebf,6453ccae251b2c950963649b,2023-05-04_17h21.03.038,ga_syllabified_check,2022.2.5,Win32,60.0276127,,,,,,,,,,,,,,./stim/p03_syllable_1_lakapiaisto_hit.wav,p03,lakapiaisto,hit,la-ka-piais-to,la-ka-piais-to,la-ka-pi-ais-to,la-ka-pia-is-to,-0.350925926,-0.110185185,1,0,0,3.6149,text_option_1,,0,4,4,16,1
5c5e3853de929b0001a4d683,63f3cfca20052e4ae7554ebf,6453ccae251b2c950963649b,2023-05-04_17h21.03.038,ga_syllabified_check,2022.2.5,Win32,60.0276127,,,,,,,,,,,,,,./stim/p08_syllable_1_lakapiaisto_hit.wav,p08,lakapiaisto,hit,la-ka-pi-as-to,la-ka-piais-to,la-ka-pi-ais-to,la-ka-pia-is-to,0.02962963,-0.300925926,1,0,0,4.3313,text_option_other,la-ka-pi-as-to,0,5,5,186,1
5c5e3853de929b0001a4d683,63f3cfca20052e4ae7554ebf,6453ccae251b2c950963649b,2023-05-04_17h21.03.038,ga_syllabified_check,2022.2.5,Win32,60.0276127,,,,,,,,,,,,,,./stim/p08_syllable_1_lakaguaisto_hit.wav,p08,lakaguaisto,hit,la-ka-gu-ais-to,la-ka-guais-to,la-ka-gu-ais-to,la-ka-gua-is-to,0.390740741,-0.108333333,1,0,0,6.4802,text_option_2,,0,6,6,183,1
5c5e3853de929b0001a4d683,63f3cfca20052e4ae7554ebf,6453ccae251b2c950963649b,2023-05-04_17h21.03.038,ga_syllabified_check,2022.2.5,Win32,60.0276127,,,,,,,,,,,,,,./stim/p08_syllable_1_flauro_hit.wav,p08,flauro,hit,flau-ro,flau-ro,fla-u-ro, ,-0.425925926,-0.098148148,1,0,0,1.6158,text_option_1,,0,7,7,175,1
5c5e3853de929b0001a4d683,63f3cfca20052e4ae7554ebf,6453ccae251b2c950963649b,2023-05-04_17h21.03.038,ga_syllabified_check,2022.2.5,Win32,60.0276127,,,,,,,,,,,,,,./stim/p03_syllable_1_paluguato_hit.wav,p03,paluguato,hit,pa-lu-gua,pa-lu-gua-to,pa-lu-gu-a-to, ,-0.34537037,-0.103703704,1,0,0,2.6823,text_option_1,,0,8,8,27,1
5c5e3853de929b0001a4d683,63f3cfca20052e4ae7554ebf,6453ccae251b2c950963649b,2023-05-04_17h21.03.038,ga_syllabified_check,2022.2.5,Win32,60.0276127,,,,,,,,,,,,,,./stim/p06_syllable_1_ruyiola_hit.wav,p06,ruyiola,hit,ru-yi-o-la,ru-yio-la,ru-yi-o-la, ,0.399074074,-0.098148148,1,0,0,4.581,text_option_2,,0,9,9,134,1
5c5e3853de929b0001a4d683,63f3cfca20052e4ae7554ebf,6453ccae251b2c950963649b,2023-05-04_17h21.03.038,ga_syllabified_check,2022.2.5,Win32,60.0276127,,,,,,,,,,,,,,./stim/p04_syllable_1_manhiala_hit.wav,p04,mañiala,hit,ma-nhia-la,ma-ñia-la,ma-ñi-a-la, ,-0.355555556,-0.106481481,1,0,0,2.0158,text_option_1,,0,10,10,55,1
5c5e3853de929b0001a4d683,63f3cfca20052e4ae7554ebf,6453ccae251b2c950963649b,2023-05-04_17h21.03.038,ga_syllabified_check,2022.2.5,Win32,60.0276127,,,,,,,,,,,,,,./stim/p08_syllable_1_pachialo_hit.wav,p08,pachialo,hit,pa-chi-ja-lo,pa-chia-lo,pa-chi-a-lo, ,0.412962963,-0.111111111,1,0,0,3.0819,text_option_2,,0,11,11,194,1
5c5e3853de929b0001a4d683,63f3cfca20052e4ae7554ebf,6453ccae251b2c950963649b,2023-05-04_17h21.03.038,ga_syllabified_check,2022.2.5,Win32,60.0276127,,,,,,,,,,,,,,./stim/p07_syllable_1_payielo_hit.wav,p07,payielo,hit,pa-yie-lo,pa-yie-lo,pa-yi-e-lo, ,-0.40462963,-0.105555556,1,0,0,1.7158,text_option_1,,0,12,12,166,1
5c5e3853de929b0001a4d683,63f3cfca20052e4ae7554ebf,6453ccae251b2c950963649b,2023-05-04_17h21.03.038,ga_syllabified_check,2022.2.5,Win32,60.0276127,,,,,,,,,,,,,,./stim/p03_syllable_1_falufaisto_hit.wav,p03,falufaisto,hit,fa-lu-fais-to,fa-lu-fais-to,fa-lu-fa-is-to, ,-0.319444444,-0.102777778,1,0,0,2.4487,text_option_1,,0,13,13,3,1
5c5e3853de929b0001a4d683,63f3cfca20052e4ae7554ebf,6453ccae251b2c950963649b,2023-05-04_17h21.03.038,ga_syllabified_check,2022.2.5,Win32,60.0276127,,,,,,,,,,,,,,./stim/p08_syllable_1_falufaisto_hit.wav,p08,falufaisto,hit,fa-lu-fais-to,fa-lu-fais-to,fa-lu-fa-is-to, ,-0.388888889,-0.102777778,1,0,0,2.9983,text_option_1,,0,14,14,173,1
5c5e3853de929b0001a4d683,63f3cfca20052e4ae7554ebf,6453ccae251b2c950963649b,2023-05-04_17h21.03.038,ga_syllabified_check,2022.2.5,Win32,60.0276127,,,,,,,,,,,,,,./stim/p05_syllable_1_lakaduaisto_hit.wav,p05,lakaduaisto,hit,la-ka-dais-to,la-ka-duais-to,la-ka-du-ais-to,la-ka-dua-is-to,0.052777778,-0.305555556,1,0,0,6.2802,text_option_other,la-ka-dais-to,0,15,15,77,1
5c5e3853de929b0001a4d683,63f3cfca20052e4ae7554ebf,6453ccae251b2c950963649b,2023-05-04_17h21.03.038,ga_syllabified_check,2022.2.5,Win32,60.0276127,,,,,,,,,,,,,,./stim/p06_syllable_1_lakadiaisto_hit.wav,p06,lakadiaisto,hit,la-ka-dia-is-to,la-ka-diais-to,la-ka-di-ais-to,la-ka-dia-is-to,0.043518519,-0.118518519,1,0,0,5.8637,text_option_3,,0,16,16,110,1
5c5e3853de929b0001a4d683,63f3cfca20052e4ae7554ebf,6453ccae251b2c950963649b,2023-05-04_17h21.03.038,ga_syllabified_check,2022.2.5,Win32,60.0276127,,,,,,,,,,,,,,./stim/p08_syllable_1_lakakuaisto_hit.wav,p08,lakakuaisto,hit,la-ka-ku-ais-to,la-ka-kuais-to,la-ka-ku-ais-to,la-ka-kua-is-to,0.390740741,-0.105555556,1,0,0,7.5128,text_option_2,,0,17,17,185,1
5c5e3853de929b0001a4d683,63f3cfca20052e4ae7554ebf,6453ccae251b2c950963649b,2023-05-04_17h21.03.038,ga_syllabified_check,2022.2.5,Win32,60.0276127,,,,,,,,,,,,,,./stim/p05_syllable_1_lakadiaisto_hit.wav,p05,lakadiaisto,hit,la-ka-di-ais-to,la-ka-diais-to,la-ka-di-ais-to,la-ka-dia-is-to,-0.350925926,-0.110185185,1,0,0,3.2319,text_option_1,,0,18,18,76,1
5c5e3853de929b0001a4d683,63f3cfca20052e4ae7554ebf,6453ccae251b2c950963649b,2023-05-04_17h21.03.038,ga_syllabified_check,2022.2.5,Win32,60.0276127,,,,,,,,,,,,,,./stim/p07_syllable_1_pachialo_hit.wav,p07,pachialo,hit,pa-cha-lo,pa-chia-lo,pa-chi-a-lo, ,-0.365740741,-0.107407407,1,0,0,3.7815,text_option_1,,0,19,19,160,1
5c5e3853de929b0001a4d683,63f3cfca20052e4ae7554ebf,6453ccae251b2c950963649b,2023-05-04_17h21.03.038,ga_syllabified_check,2022.2.5,Win32,60.0276127,,,,,,,,,,,,,,./stim/p04_syllable_1_nhiape_hit.wav,p04,ñiape,hit,nhia-pe,ñia-pe,ñi-a-pe, ,-0.387037037,-0.101851852,1,0,0,0.7833,text_option_1,,0,20,20,57,1
5c5e3853de929b0001a4d683,63f3cfca20052e4ae7554ebf,6453ccae251b2c950963649b,2023-05-04_17h21.03.038,ga_syllabified_check,2022.2.5,Win32,60.0276127,,,,,,,,,,,,,,./stim/p06_syllable_1_lakakiaisto_hit.wav,p06,lakakiaisto,hit,la-ka-kia-is-to,la-ka-kiais-to,la-ka-ki-ais-to,la-ka-kia-is-to,0.052777778,-0.108333333,1,0,0,6.0968,text_option_3,,0,21,21,116,1
5c5e3853de929b0001a4d683,63f3cfca20052e4ae7554ebf,6453ccae251b2c950963649b,2023-05-04_17h21.03.038,ga_syllabified_check,2022.2.5,Win32,60.0276127,,,,,,,,,,,,,,./stim/p03_syllable_1_faluduako_hit.wav,p03,faluduako,hit,fa-lu-dua-ko,fa-lu-dua-ko,fa-lu-du-a-ko, ,-0.349074074,-0.107407407,1,0,0,2.6653,text_option_1,,0,22,22,2,1
5c5e3853de929b0001a4d683,63f3cfca20052e4ae7554ebf,6453ccae251b2c950963649b,2023-05-04_17h21.03.038,ga_syllabified_check,2022.2.5,Win32,60.0276127,,,,,,,,,,,,,,./stim/p06_syllable_1_falutraigo_hit.wav,p06,falutraigo,hit,fa-lu-tra-i-go,fa-lu-trai-go,fa-lu-tra-i-go, ,0.435185185,-0.109259259,1,0,0,4.648,text_option_2,,0,23,23,106,1
5c5e3853de929b0001a4d683,63f3cfca20052e4ae7554ebf,6453ccae251b2c950963649b,2023-05-04_17h21.03.038,ga_syllabified_check,2022.2.5,Win32,60.0276127,,,,,,,,,,,,,,./stim/p05_syllable_1_falutraigo_hit.wav,p05,falutraigo,hit,fa-lu-trai-go,fa-lu-trai-go,fa-lu-tra-i-go, ,-0.337962963,-0.109259259,1,0,0,2.1653,text_option_1,,0,24,24,72,1
5c5e3853de929b0001a4d683,63f3cfca20052e4ae7554ebf,6453ccae251b2c950963649b,2023-05-04_17h21.03.038,ga_syllabified_check,2022.2.5,Win32,60.0276127,,,,,,,,,,,,,,./stim/p06_syllable_1_rausto_hit.wav,p06,rausto,hit,ra-us-to,raus-to,ra-us-to, ,0.400925926,-0.112037037,1,0,0,2.4991,text_option_2,,0,25,25,133,1
5c5e3853de929b0001a4d683,63f3cfca20052e4ae7554ebf,6453ccae251b2c950963649b,2023-05-04_17h21.03.038,ga_syllabified_check,2022.2.5,Win32,60.0276127,,,,,,,,,,,,,,./stim/p08_syllable_1_lakafuaisto_hit.wav,p08,lakafuaisto,hit,la-ka-fju-ais-to,la-ka-fuais-to,la-ka-fu-ais-to,la-ka-fua-is-to,0.056481481,-0.30462963,1,0,0,8.1961,text_option_other,la-ka-fiuais-to,0,26,26,181,1
5c5e3853de929b0001a4d683,63f3cfca20052e4ae7554ebf,6453ccae251b2c950963649b,2023-05-04_17h21.03.038,ga_syllabified_check,2022.2.5,Win32,60.0276127,,,,,,,,,,,,,,./stim/p05_syllable_1_costonhialo_hit.wav,p05,costoñialo,hit,cos-to-nhia-lo,cos-to-ñia-lo,cos-to-ñi-a-lo, ,-0.32962963,-0.109259259,1,0,0,3.1152,text_option_1,,0,27,27,69,1
5c5e3853de929b0001a4d683,63f3cfca20052e4ae7554ebf,6453ccae251b2c950963649b,2023-05-04_17h21.03.038,ga_syllabified_check,2022.2.5,Win32,60.0276127,,,,,,,,,,,,,,./stim/p03_syllable_1_lakabuaisto_hit.wav,p03,lakabuaisto,hit,la-ka-buais-to,la-ka-buais-to,la-ka-bu-ais-to,la-ka-bua-is-to,-0.363888889,-0.109259259,1,0,0,2.6154,text_option_1,,0,28,28,7,1
5c5e3853de929b0001a4d683,63f3cfca20052e4ae7554ebf,6453ccae251b2c950963649b,2023-05-04_17h21.03.038,ga_syllabified_check,2022.2.5,Win32,60.0276127,,,,,,,,,,,,,,./stim/p03_syllable_1_lakagiaisto_hit.wav,p03,lakagiaisto,hit,la-ka-giais-to,la-ka-giais-to,la-ka-gi-ais-to,la-ka-gia-is-to,0.062037037,-0.301851852,1,0,0,7.5633,text_option_other,la-ka-guiais-to,0,29,29,12,1
5c5e3853de929b0001a4d683,63f3cfca20052e4ae7554ebf,6453ccae251b2c950963649b,2023-05-04_17h21.03.038,ga_syllabified_check,2022.2.5,Win32,60.0276127,,,,,,,,,,,,,,./stim/p06_syllable_1_lakapiaisto_hit.wav,p06,lakapiaisto,hit,la-ka-pia-is-to,la-ka-piais-to,la-ka-pi-ais-to,la-ka-pia-is-to,0.071296296,-0.10462963,1,0,0,5.0308,text_option_3,,0,30,30,118,1
5c5e3853de929b0001a4d683,63f3cfca20052e4ae7554ebf,6453ccae251b2c950963649b,2023-05-04_17h21.03.038,ga_syllabified_check,2022.2.5,Win32,60.0276127,,,,,,,,,,,,,,./stim/p06_syllable_1_lakabiaisto_hit.wav,p06,lakabiaisto,hit,la-ka-bia-is-to,la-ka-biais-to,la-ka-bi-ais-to,la-ka-bia-is-to,0.055555556,-0.1,1,0,0,3.9148,text_option_3,,0,31,31,108,1
5c5e3853de929b0001a4d683,63f3cfca20052e4ae7554ebf,6453ccae251b2c950963649b,2023-05-04_17h21.03.038,ga_syllabified_check,2022.2.5,Win32,60.0276127,,,,,,,,,,,,,,./stim/p08_syllable_1_palutrauco_hit.wav,p08,palutrauco,hit,pa-lu-trau-ko,pa-lu-trau-co,pa-lu-tra-u-co, ,-0.356481481,-0.108333333,1,0,0,2.5655,text_option_1,,0,32,32,199,1
5c5e3853de929b0001a4d683,63f3cfca20052e4ae7554ebf,6453ccae251b2c950963649b,2023-05-04_17h21.03.038,ga_syllabified_check,2022.2.5,Win32,60.0276127,,,,,,,,,,,,,,./stim/p07_syllable_1_lakaduaisto_hit.wav,p07,lakaduaisto,hit,la-ka-duais-to,la-ka-duais-to,la-ka-du-ais-to,la-ka-dua-is-to,-0.32962963,-0.10462963,1,0,0,2.8485,text_option_1,,0,33,33,145,1
5c5e3853de929b0001a4d683,63f3cfca20052e4ae7554ebf,6453ccae251b2c950963649b,2023-05-04_17h21.03.038,ga_syllabified_check,2022.2.5,Win32,60.0276127,,,,,,,,,,,,,,./stim/p08_syllable_1_tuliafo_hit.wav,p08,tuliafo,hit,tu-li-a-fo,tu-lia-fo,tu-li-a-fo, ,0.402777778,-0.110185185,1,0,0,3.4816,text_option_2,,0,34,34,203,1
5c5e3853de929b0001a4d683,63f3cfca20052e4ae7554ebf,6453ccae251b2c950963649b,2023-05-04_17h21.03.038,ga_syllabified_check,2022.2.5,Win32,60.0276127,,,,,,,,,,,,,,./stim/p03_syllable_1_lliape_hit.wav,p03,lliape,hit,llia,llia-pe,lli-a-pe, ,-0.394444444,-0.100925926,1,0,0,1.1991,text_option_1,,0,35,35,20,1
5c5e3853de929b0001a4d683,63f3cfca20052e4ae7554ebf,6453ccae251b2c950963649b,2023-05-04_17h21.03.038,ga_syllabified_check,2022.2.5,Win32,60.0276127,,,,,,,,,,,,,,./stim/p06_syllable_1_lakatuaisto_hit.wav,p06,lakatuaisto,hit,la-ka-tu-a-is,la-ka-tuais-to,la-ka-tu-ais-to,la-ka-tua-is-to,0.02962963,-0.298148148,1,0,0,12.1109,text_option_other,la-ka-tu-a-is-to,0,36,36,121,1
5c5e3853de929b0001a4d683,63f3cfca20052e4ae7554ebf,6453ccae251b2c950963649b,2023-05-04_17h21.03.038,ga_syllabified_check,2022.2.5,Win32,60.0276127,,,,,,,,,,,,,,./stim/p08_syllable_1_lakafiaisto_hit.wav,p08,lakafiaisto,hit,la-ka-fi-as-to,la-ka-fiais-to,la-ka-fi-ais-to,la-ka-fia-is-to,0.008333333,-0.303703704,1,0,0,6.7466,text_option_other,la-ka-fi-as-to,0,37,37,180,1
5c5e3853de929b0001a4d683,63f3cfca20052e4ae7554ebf,6453ccae251b2c950963649b,2023-05-04_17h21.03.038,ga_syllabified_check,2022.2.5,Win32,60.0276127,,,,,,,,,,,,,,./stim/p05_syllable_1_lakabuaisto_hit.wav,p05,lakabuaisto,hit,la-ka-buais-to,la-ka-buais-to,la-ka-bu-ais-to,la-ka-bua-is-to,-0.35462963,-0.110185185,1,0,0,1.8155,text_option_1,,0,38,38,75,1
5c5e3853de929b0001a4d683,63f3cfca20052e4ae7554ebf,6453ccae251b2c950963649b,2023-05-04_17h21.03.038,ga_syllabified_check,2022.2.5,Win32,60.0276127,,,,,,,,,,,,,,./stim/p05_syllable_1_lakafiaisto_hit.wav,p05,lakafiaisto,hit,la-ka-fi-ais-to,la-ka-fiais-to,la-ka-fi-ais-to,la-ka-fia-is-to,-0.366666667,-0.10462963,1,0,0,8.6459,text_option_1,,0,39,39,78,1
5c5e3853de929b0001a4d683,63f3cfca20052e4ae7554ebf,6453ccae251b2c950963649b,2023-05-04_17h21.03.038,ga_syllabified_check,2022.2.5,Win32,60.0276127,,,,,,,,,,,,,,./stim/p03_syllable_1_tuliafo_hit.wav,p03,tuliafo,hit,tu-lia-fo,tu-lia-fo,tu-li-a-fo, ,-0.387037037,-0.117592593,1,0,0,0.9159,text_option_1,,0,40,40,33,1
5c5e3853de929b0001a4d683,63f3cfca20052e4ae7554ebf,6453ccae251b2c950963649b,2023-05-04_17h21.03.038,ga_syllabified_check,2022.2.5,Win32,60.0276127,,,,,,,,,,,,,,./stim/p07_syllable_1_lakakiaisto_hit.wav,p07,lakakiaisto,hit,la-ka-kais-to,la-ka-kiais-to,la-ka-ki-ais-to,la-ka-kia-is-to,0.055555556,-0.300925926,1,0,0,9.0457,text_option_other,la-ka-kais-to,0,41,41,150,1
5c5e3853de929b0001a4d683,63f3cfca20052e4ae7554ebf,6453ccae251b2c950963649b,2023-05-04_17h21.03.038,ga_syllabified_check,2022.2.5,Win32,60.0276127,,,,,,,,,,,,,,./stim/p06_syllable_1_tuliafo_hit.wav,p06,tuliafo,hit,tu-li-a-fo,tu-lia-fo,tu-li-a-fo, ,0.463888889,-0.101851852,1,0,0,1.4827,text_option_2,,0,42,42,135,1
5c5e3853de929b0001a4d683,63f3cfca20052e4ae7554ebf,6453ccae251b2c950963649b,2023-05-04_17h21.03.038,ga_syllabified_check,2022.2.5,Win32,60.0276127,,,,,,,,,,,,,,./stim/p05_syllable_1_paluguato_hit.wav,p05,paluguato,hit,pa-lu-gau-to,pa-lu-gua-to,pa-lu-gu-a-to, ,0.035185185,-0.29537037,1,0,0,5.0145,text_option_other,pa-lu-gau-to,0,43,43,95,1
5c5e3853de929b0001a4d683,63f3cfca20052e4ae7554ebf,6453ccae251b2c950963649b,2023-05-04_17h21.03.038,ga_syllabified_check,2022.2.5,Win32,60.0276127,,,,,,,,,,,,,,./stim/p06_syllable_1_flauro_hit.wav,p06,flauro,hit,fla-u-ro,flau-ro,fla-u-ro, ,0.409259259,-0.103703704,1,0,0,1.2493,text_option_2,,0,44,44,107,1
5c5e3853de929b0001a4d683,63f3cfca20052e4ae7554ebf,6453ccae251b2c950963649b,2023-05-04_17h21.03.038,ga_syllabified_check,2022.2.5,Win32,60.0276127,,,,,,,,,,,,,,./stim/p04_syllable_1_lakafuaisto_hit.wav,p04,lakafuaisto,hit,la-ka-fuais-to,la-ka-fuais-to,la-ka-fu-ais-to,la-ka-fua-is-to,-0.333333333,-0.108333333,1,0,0,2.0821,text_option_1,,0,45,45,45,1
5c5e3853de929b0001a4d683,63f3cfca20052e4ae7554ebf,6453ccae251b2c950963649b,2023-05-04_17h21.03.038,ga_syllabified_check,2022.2.5,Win32,60.0276127,,,,,,,,,,,,,,./stim/p06_syllable_1_mebochiana_hit.wav,p06,mebochiana,hit,me-bo-shi-a-na,me-bo-chia-na,me-bo-chi-a-na, ,0.458333333,-0.105555556,1,0,0,3.482,text_option_2,,0,46,46,124,1
5c5e3853de929b0001a4d683,63f3cfca20052e4ae7554ebf,6453ccae251b2c950963649b,2023-05-04_17h21.03.038,ga_syllabified_check,2022.2.5,Win32,60.0276127,,,,,,,,,,,,,,./stim/p06_syllable_1_lakafiaisto_hit.wav,p06,lakafiaisto,hit,la-ka-fia-is-to,la-ka-fiais-to,la-ka-fi-ais-to,la-ka-fia-is-to,0.049074074,-0.105555556,1,0,0,5.1806,text_option_3,,0,47,47,112,1
5c5e3853de929b0001a4d683,63f3cfca20052e4ae7554ebf,6453ccae251b2c950963649b,2023-05-04_17h21.03.038,ga_syllabified_check,2022.2.5,Win32,60.0276127,,,,,,,,,,,,,,./stim/p08_syllable_1_lakatuaisto_hit.wav,p08,lakatuaisto,hit,la-ka-tu-i-jis,la-ka-tuais-to,la-ka-tu-ais-to,la-ka-tua-is-to,0.021296296,-0.309259259,1,0,0,7.2964,text_option_other,la-ka-tuis-to,0,48,48,189,1
5c5e3853de929b0001a4d683,63f3cfca20052e4ae7554ebf,6453ccae251b2c950963649b,2023-05-04_17h21.03.038,ga_syllabified_check,2022.2.5,Win32,60.0276127,,,,,,,,,,,,,,./stim/p06_syllable_1_falufaisto_hit.wav,p06,falufaisto,hit,fa-lu-fa-is-to,fa-lu-fais-to,fa-lu-fa-is-to, ,0.458333333,-0.09537037,1,0,0,2.2322,text_option_2,,0,49,49,105,1
5c5e3853de929b0001a4d683,63f3cfca20052e4ae7554ebf,6453ccae251b2c950963649b,2023-05-04_17h21.03.038,ga_syllabified_check,2022.2.5,Win32,60.0276127,,,,,,,,,,,,,,./stim/p07_syllable_1_palufauto_hit.wav,p07,palufauto,hit,pa-lu-fau-to,pa-lu-fau-to,pa-lu-fa-u-to, ,-0.350925926,-0.105555556,1,0,0,1.6326,text_option_1,,0,50,50,162,1
5c5e3853de929b0001a4d683,63f3cfca20052e4ae7554ebf,6453ccae251b2c950963649b,2023-05-04_17h21.03.038,ga_syllabified_check,2022.2.5,Win32,60.0276127,,,,,,,,,,,,,,./stim/p04_syllable_1_payielo_hit.wav,p04,payielo,hit,pa-yie-lo,pa-yie-lo,pa-yi-e-lo, ,-0.428703704,-0.103703704,1,0,0,1.2162,text_option_1,,0,51,51,64,1
5c5e3853de929b0001a4d683,63f3cfca20052e4ae7554ebf,6453ccae251b2c950963649b,2023-05-04_17h21.03.038,ga_syllabified_check,2022.2.5,Win32,60.0276127,,,,,,,,,,,,,,./stim/p04_syllable_1_lliape_hit.wav,p04,lliape,hit,lia-pe,llia-pe,lli-a-pe, ,-0.397222222,-0.105555556,1,0,0,0.7826,text_option_1,,0,52,52,54,1
5c5e3853de929b0001a4d683,63f3cfca20052e4ae7554ebf,6453ccae251b2c950963649b,2023-05-04_17h21.03.038,ga_syllabified_check,2022.2.5,Win32,60.0276127,,,,,,,,,,,,,,./stim/p05_syllable_1_manhiala_hit.wav,p05,mañiala,hit,ma-nhia-la,ma-ñia-la,ma-ñi-a-la, ,-0.391666667,-0.111111111,1,0,0,0.9497,text_option_1,,0,53,53,89,1
5c5e3853de929b0001a4d683,63f3cfca20052e4ae7554ebf,6453ccae251b2c950963649b,2023-05-04_17h21.03.038,ga_syllabified_check,2022.2.5,Win32,60.0276127,,,,,,,,,,,,,,./stim/p06_syllable_1_lakapuaisto_hit.wav,p06,lakapuaisto,hit,la-ka-pu-a-is,la-ka-puais-to,la-ka-pu-ais-to,la-ka-pua-is-to,0.065740741,-0.30462963,1,0,0,7.5461,text_option_other,la-ka-pu-a-is-to,0,54,54,119,1
5c5e3853de929b0001a4d683,63f3cfca20052e4ae7554ebf,6453ccae251b2c950963649b,2023-05-04_17h21.03.038,ga_syllabified_check,2022.2.5,Win32,60.0276127,,,,,,,,,,,,,,./stim/p04_syllable_1_lakabuaisto_hit.wav,p04,lakabuaisto,hit,la-ka-buais-to,la-ka-buais-to,la-ka-bu-ais-to,la-ka-bua-is-to,-0.361111111,-0.114814815,1,0,0,1.1829,text_option_1,,0,55,55,41,1
5c5e3853de929b0001a4d683,63f3cfca20052e4ae7554ebf,6453ccae251b2c950963649b,2023-05-04_17h21.03.038,ga_syllabified_check,2022.2.5,Win32,60.0276127,,,,,,,,,,,,,,./stim/p07_syllable_1_lakapuaisto_hit.wav,p07,lakapuaisto,hit,la-ka-puais-to,la-ka-puais-to,la-ka-pu-ais-to,la-ka-pua-is-to,-0.339814815,-0.107407407,1,0,0,2.5321,text_option_1,,0,56,56,153,1
5c5e3853de929b0001a4d683,63f3cfca20052e4ae7554ebf,6453ccae251b2c950963649b,2023-05-04_17h21.03.038,ga_syllabified_check,2022.2.5,Win32,60.0276127,,,,,,,,,,,,,,./stim/p07_syllable_1_lakafuaisto_hit.wav,p07,lakafuaisto,hit,la-ka-fuais-to,la-ka-fuais-to,la-ka-fu-ais-to,la-ka-fua-is-to,-0.367592593,-0.109259259,1,0,0,1.9657,text_option_1,,0,57,57,147,1
5c5e3853de929b0001a4d683,63f3cfca20052e4ae7554ebf,6453ccae251b2c950963649b,2023-05-04_17h21.03.038,ga_syllabified_check,2022.2.5,Win32,60.0276127,,,,,,,,,,,,,,./stim/p08_syllable_1_lakadiaisto_hit.wav,p08,lakadiaisto,hit,la-ka-di-jas-to,la-ka-diais-to,la-ka-di-ais-to,la-ka-dia-is-to,0.007407407,-0.30462963,1,0,0,4.8975,text_option_other,la-ka-dias-to,0,58,58,178,1
5c5e3853de929b0001a4d683,63f3cfca20052e4ae7554ebf,6453ccae251b2c950963649b,2023-05-04_17h21.03.038,ga_syllabified_check,2022.2.5,Win32,60.0276127,,,,,,,,,,,,,,./stim/p07_syllable_1_costonhialo_hit.wav,p07,costoñialo,hit,cos-to-nhia-lo,cos-to-ñia-lo,cos-to-ñi-a-lo, ,-0.384259259,-0.107407407,1,0,0,2.0655,text_option_1,,0,59,59,137,1
5c5e3853de929b0001a4d683,63f3cfca20052e4ae7554ebf,6453ccae251b2c950963649b,2023-05-04_17h21.03.038,ga_syllabified_check,2022.2.5,Win32,60.0276127,,,,,,,,,,,,,,./stim/p07_syllable_1_lakagiaisto_hit.wav,p07,lakagiaisto,hit,la-ka-gais-to,la-ka-giais-to,la-ka-gi-ais-to,la-ka-gia-is-to,0.048148148,-0.300925926,1,0,0,4.2979,text_option_other,la-ka-gais-to,0,60,60,148,1
5c5e3853de929b0001a4d683,63f3cfca20052e4ae7554ebf,6453ccae251b2c950963649b,2023-05-04_17h21.03.038,ga_syllabified_check,2022.2.5,Win32,60.0276127,,,,,,,,,,,,,,./stim/p05_syllable_1_payielo_hit.wav,p05,payielo,hit,pai-yu-we-lo,pa-yie-lo,pa-yi-e-lo, ,0.013888889,-0.305555556,1,0,0,2.9319,text_option_other,pa-yue-lo,0,61,61,98,1
5c5e3853de929b0001a4d683,63f3cfca20052e4ae7554ebf,6453ccae251b2c950963649b,2023-05-04_17h21.03.038,ga_syllabified_check,2022.2.5,Win32,60.0276127,,,,,,,,,,,,,,./stim/p03_syllable_1_lakatuaisto_hit.wav,p03,lakatuaisto,hit,la-ka-tuais-to,la-ka-tuais-to,la-ka-tu-ais-to,la-ka-tua-is-to,-0.366666667,-0.112962963,1,0,0,2.5486,text_option_1,,0,62,62,19,1
5c5e3853de929b0001a4d683,63f3cfca20052e4ae7554ebf,6453ccae251b2c950963649b,2023-05-04_17h21.03.038,ga_syllabified_check,2022.2.5,Win32,60.0276127,,,,,,,,,,,,,,./stim/p04_syllable_1_lakakuaisto_hit.wav,p04,lakakuaisto,hit,la-ka-kuais-to,la-ka-kuais-to,la-ka-ku-ais-to,la-ka-kua-is-to,-0.363888889,-0.100925926,1,0,0,2.5156,text_option_1,,0,63,63,49,1
5c5e3853de929b0001a4d683,63f3cfca20052e4ae7554ebf,6453ccae251b2c950963649b,2023-05-04_17h21.03.038,ga_syllabified_check,2022.2.5,Win32,60.0276127,,,,,,,,,,,,,,./stim/p04_syllable_1_lakaguaisto_hit.wav,p04,lakaguaisto,hit,la-ka-guais-to,la-ka-guais-to,la-ka-gu-ais-to,la-ka-gua-is-to,-0.371296296,-0.098148148,1,0,0,2.0324,text_option_1,,0,64,64,47,1
5c5e3853de929b0001a4d683,63f3cfca20052e4ae7554ebf,6453ccae251b2c950963649b,2023-05-04_17h21.03.038,ga_syllabified_check,2022.2.5,Win32,60.0276127,,,,,,,,,,,,,,./stim/p05_syllable_1_lakatuaisto_hit.wav,p05,lakatuaisto,hit,la-ka-tais-to,la-ka-tuais-to,la-ka-tu-ais-to,la-ka-tua-is-to,-0.028703704,-0.307407407,1,0,0,2.2155,text_option_other,la-ka-tais-to,0,65,65,87,1
5c5e3853de929b0001a4d683,63f3cfca20052e4ae7554ebf,6453ccae251b2c950963649b,2023-05-04_17h21.03.038,ga_syllabified_check,2022.2.5,Win32,60.0276127,,,,,,,,,,,,,,./stim/p05_syllable_1_rausto_hit.wav,p05,rausto,hit,raus-to,raus-to,ra-us-to, ,-0.396296296,-0.109259259,1,0,0,0.9493,text_option_1,,0,66,66,99,1
5c5e3853de929b0001a4d683,63f3cfca20052e4ae7554ebf,6453ccae251b2c950963649b,2023-05-04_17h21.03.038,ga_syllabified_check,2022.2.5,Win32,60.0276127,,,,,,,,,,,,,,./stim/p07_syllable_1_palufauro_hit.wav,p07,palufauro,hit,pa-lu-fau-ro,pa-lu-fau-ro,pa-lu-fa-u-ro, ,-0.342592593,-0.100925926,1,0,0,1.4161,text_option_1,,0,67,67,161,1
5c5e3853de929b0001a4d683,63f3cfca20052e4ae7554ebf,6453ccae251b2c950963649b,2023-05-04_17h21.03.038,ga_syllabified_check,2022.2.5,Win32,60.0276127,,,,,,,,,,,,,,./stim/p06_syllable_1_faluduako_hit.wav,p06,faluduako,hit,fa-lu-dua-ko,fa-lu-dua-ko,fa-lu-du-a-ko, ,0.435185185,-0.110185185,1,0,0,4.2813,text_option_2,,0,68,68,104,1
5c5e3853de929b0001a4d683,63f3cfca20052e4ae7554ebf,6453ccae251b2c950963649b,2023-05-04_17h21.03.038,ga_syllabified_check,2022.2.5,Win32,60.0276127,,,,,,,,,,,,,,./stim/p06_syllable_1_palumaisto_hit.wav,p06,palumaisto,hit,pa-lu-ma-is-to,pa-lu-mais-to,pa-lu-ma-is-to, ,0.428703704,-0.111111111,1,0,0,3.0986,text_option_2,,0,69,69,130,1
5c5e3853de929b0001a4d683,63f3cfca20052e4ae7554ebf,6453ccae251b2c950963649b,2023-05-04_17h21.03.038,ga_syllabified_check,2022.2.5,Win32,60.0276127,,,,,,,,,,,,,,./stim/p07_syllable_1_lakabuaisto_hit.wav,p07,lakabuaisto,hit,la-ka-buais-to,la-ka-buais-to,la-ka-bu-ais-to,la-ka-bua-is-to,-0.365740741,-0.112962963,1,0,0,3.3318,text_option_1,,0,70,70,143,1
5c5e3853de929b0001a4d683,63f3cfca20052e4ae7554ebf,6453ccae251b2c950963649b,2023-05-04_17h21.03.038,ga_syllabified_check,2022.2.5,Win32,60.0276127,,,,,,,,,,,,,,./stim/p04_syllable_1_lakapuaisto_hit.wav,p04,lakapuaisto,hit,la-ka-puais-to,la-ka-puais-to,la-ka-pu-ais-to,la-ka-pua-is-to,-0.392592593,-0.108333333,1,0,0,1.1496,text_option_1,,0,71,71,51,1
5c5e3853de929b0001a4d683,63f3cfca20052e4ae7554ebf,6453ccae251b2c950963649b,2023-05-04_17h21.03.038,ga_syllabified_check,2022.2.5,Win32,60.0276127,,,,,,,,,,,,,,./stim/p04_syllable_1_lakagiaisto_hit.wav,p04,lakagiaisto,hit,la-ka-giais-to,la-ka-giais-to,la-ka-gi-ais-to,la-ka-gia-is-to,-0.346296296,-0.103703704,1,0,0,2.0824,text_option_1,,0,72,72,46,1
5c5e3853de929b0001a4d683,63f3cfca20052e4ae7554ebf,6453ccae251b2c950963649b,2023-05-04_17h21.03.038,ga_syllabified_check,2022.2.5,Win32,60.0276127,,,,,,,,,,,,,,./stim/p07_syllable_1_manhiala_hit.wav,p07,mañiala,hit,ma-nhia-la,ma-ñia-la,ma-ñi-a-la, ,-0.344444444,-0.112037037,1,0,0,1.5659,text_option_1,,0,73,73,157,1
5c5e3853de929b0001a4d683,63f3cfca20052e4ae7554ebf,6453ccae251b2c950963649b,2023-05-04_17h21.03.038,ga_syllabified_check,2022.2.5,Win32,60.0276127,,,,,,,,,,,,,,./stim/p08_syllable_1_lakatiaisto_hit.wav,p08,lakatiaisto,hit,la-ka-ti-as-to,la-ka-tiais-to,la-ka-ti-ais-to,la-ka-tia-is-to,0.025925926,-0.287037037,1,0,0,4.5306,text_option_other,la-ka-tias-to,0,74,74,188,1
5c5e3853de929b0001a4d683,63f3cfca20052e4ae7554ebf,6453ccae251b2c950963649b,2023-05-04_17h21.03.038,ga_syllabified_check,2022.2.5,Win32,60.0276127,,,,,,,,,,,,,,./stim/p04_syllable_1_palufauto_hit.wav,p04,palufauto,hit,pa-lu-fau-to,pa-lu-fau-to,pa-lu-fa-u-to, ,-0.35,-0.099074074,1,0,0,1.083,text_option_1,,0,75,75,60,1
5c5e3853de929b0001a4d683,63f3cfca20052e4ae7554ebf,6453ccae251b2c950963649b,2023-05-04_17h21.03.038,ga_syllabified_check,2022.2.5,Win32,60.0276127,,,,,,,,,,,,,,./stim/p08_syllable_1_lakapuaisto_hit.wav,p08,lakapuaisto,hit,la-ka-pu-as-to,la-ka-puais-to,la-ka-pu-ais-to,la-ka-pua-is-to,0.05,-0.309259259,1,0,0,3.2149,text_option_other,la-ka-pu-as-to,0,76,76,187,1
5c5e3853de929b0001a4d683,63f3cfca20052e4ae7554ebf,6453ccae251b2c950963649b,2023-05-04_17h21.03.038,ga_syllabified_check,2022.2.5,Win32,60.0276127,,,,,,,,,,,,,,./stim/p04_syllable_1_flauro_hit.wav,p04,flauro,hit,flau-ro,flau-ro,fla-u-ro, ,-0.369444444,-0.108333333,1,0,0,0.533,text_option_1,,0,77,77,39,1
5c5e3853de929b0001a4d683,63f3cfca20052e4ae7554ebf,6453ccae251b2c950963649b,2023-05-04_17h21.03.038,ga_syllabified_check,2022.2.5,Win32,60.0276127,,,,,,,,,,,,,,./stim/p08_syllable_1_palumaisto_hit.wav,p08,palumaisto,hit,pa-lu-mais-to,pa-lu-mais-to,pa-lu-ma-is-to, ,-0.364814815,-0.1,1,0,0,2.2656,text_option_1,,0,78,78,198,1
5c5e3853de929b0001a4d683,63f3cfca20052e4ae7554ebf,6453ccae251b2c950963649b,2023-05-04_17h21.03.038,ga_syllabified_check,2022.2.5,Win32,60.0276127,,,,,,,,,,,,,,./stim/p05_syllable_1_faluduako_hit.wav,p05,faluduako,hit,fa-lu-ba-ko,fa-lu-dua-ko,fa-lu-du-a-ko, ,0.037962963,-0.298148148,1,0,0,2.2155,text_option_other,fa-lu-da-ko,0,79,79,70,1
5c5e3853de929b0001a4d683,63f3cfca20052e4ae7554ebf,6453ccae251b2c950963649b,2023-05-04_17h21.03.038,ga_syllabified_check,2022.2.5,Win32,60.0276127,,,,,,,,,,,,,,./stim/p06_syllable_1_lakagiaisto_hit.wav,p06,lakagiaisto,hit,la-ka-gia-is-to,la-ka-giais-to,la-ka-gi-ais-to,la-ka-gia-is-to,0.080555556,-0.106481481,1,0,0,5.8305,text_option_3,,0,80,80,114,1
5c5e3853de929b0001a4d683,63f3cfca20052e4ae7554ebf,6453ccae251b2c950963649b,2023-05-04_17h21.03.038,ga_syllabified_check,2022.2.5,Win32,60.0276127,,,,,,,,,,,,,,./stim/p05_syllable_1_chiaba_hit.wav,p05,chiaba,hit,chia-ba,chia-ba,chi-a-ba, ,0.025,-0.3,1,0,0,1.4993,text_option_other,chai-ba,0,81,81,68,1
5c5e3853de929b0001a4d683,63f3cfca20052e4ae7554ebf,6453ccae251b2c950963649b,2023-05-04_17h21.03.038,ga_syllabified_check,2022.2.5,Win32,60.0276127,,,,,,,,,,,,,,./stim/p04_syllable_1_mebochiana_hit.wav,p04,mebochiana,hit,me-bo-chia-na,me-bo-chia-na,me-bo-chi-a-na, ,-0.398148148,-0.112962963,1,0,0,2.7485,text_option_1,,0,82,82,56,1
5c5e3853de929b0001a4d683,63f3cfca20052e4ae7554ebf,6453ccae251b2c950963649b,2023-05-04_17h21.03.038,ga_syllabified_check,2022.2.5,Win32,60.0276127,,,,,,,,,,,,,,./stim/p07_syllable_1_flauro_hit.wav,p07,flauro,hit,flau-ro,flau-ro,fla-u-ro, ,-0.37962963,-0.109259259,1,0,0,1.0493,text_option_1,,0,83,83,141,1
5c5e3853de929b0001a4d683,63f3cfca20052e4ae7554ebf,6453ccae251b2c950963649b,2023-05-04_17h21.03.038,ga_syllabified_check,2022.2.5,Win32,60.0276127,,,,,,,,,,,,,,./stim/p04_syllable_1_lakaduaisto_hit.wav,p04,lakaduaisto,hit,la-ka-duais-to,la-ka-duais-to,la-ka-du-ais-to,la-ka-dua-is-to,-0.342592593,-0.107407407,1,0,0,1.3326,text_option_1,,0,84,84,43,1
5c5e3853de929b0001a4d683,63f3cfca20052e4ae7554ebf,6453ccae251b2c950963649b,2023-05-04_17h21.03.038,ga_syllabified_check,2022.2.5,Win32,60.0276127,,,,,,,,,,,,,,./stim/p04_syllable_1_falufaisto_hit.wav,p04,falufaisto,hit,fa-lu-fais-to,fa-lu-fais-to,fa-lu-fa-is-to, ,-0.355555556,-0.106481481,1,0,0,1.3992,text_option_1,,0,85,85,37,1
5c5e3853de929b0001a4d683,63f3cfca20052e4ae7554ebf,6453ccae251b2c950963649b,2023-05-04_17h21.03.038,ga_syllabified_check,2022.2.5,Win32,60.0276127,,,,,,,,,,,,,,./stim/p04_syllable_1_faluduako_hit.wav,p04,faluduako,hit,fa-lu-dua-ko,fa-lu-dua-ko,fa-lu-du-a-ko, ,-0.325,-0.097222222,1,0,0,0.8828,text_option_1,,0,86,86,36,1
5c5e3853de929b0001a4d683,63f3cfca20052e4ae7554ebf,6453ccae251b2c950963649b,2023-05-04_17h21.03.038,ga_syllabified_check,2022.2.5,Win32,60.0276127,,,,,,,,,,,,,,./stim/p05_syllable_1_nhiape_hit.wav,p05,ñiape,hit,nhia-pe,ñia-pe,ñi-a-pe, ,-0.365740741,-0.103703704,1,0,0,0.4165,text_option_1,,0,87,87,91,1
5c5e3853de929b0001a4d683,63f3cfca20052e4ae7554ebf,6453ccae251b2c950963649b,2023-05-04_17h21.03.038,ga_syllabified_check,2022.2.5,Win32,60.0276127,,,,,,,,,,,,,,./stim/p06_syllable_1_payielo_hit.wav,p06,payielo,hit,pa-yi-e-lo,pa-yie-lo,pa-yi-e-lo, ,0.409259259,-0.106481481,1,0,0,1.9156,text_option_2,,0,88,88,132,1
5c5e3853de929b0001a4d683,63f3cfca20052e4ae7554ebf,6453ccae251b2c950963649b,2023-05-04_17h21.03.038,ga_syllabified_check,2022.2.5,Win32,60.0276127,,,,,,,,,,,,,,./stim/p06_syllable_1_chiaba_hit.wav,p06,chiaba,hit,chi-a-ba,chia-ba,chi-a-ba, ,-0.40462963,-0.102777778,1,0,0,1.616,text_option_1,,0,89,89,102,1
5c5e3853de929b0001a4d683,63f3cfca20052e4ae7554ebf,6453ccae251b2c950963649b,2023-05-04_17h21.03.038,ga_syllabified_check,2022.2.5,Win32,60.0276127,,,,,,,,,,,,,,./stim/p07_syllable_1_lakabiaisto_hit.wav,p07,lakabiaisto,hit,la-ka-bais-to,la-ka-biais-to,la-ka-bi-ais-to,la-ka-bia-is-to,0,-0.312962963,1,0,0,2.6988,text_option_other,la-ka-bais-to,0,90,90,142,1
5c5e3853de929b0001a4d683,63f3cfca20052e4ae7554ebf,6453ccae251b2c950963649b,2023-05-04_17h21.03.038,ga_syllabified_check,2022.2.5,Win32,60.0276127,,,,,,,,,,,,,,./stim/p08_syllable_1_chiaba_hit.wav,p08,chiaba,hit,chi-a-ba,chia-ba,chi-a-ba, ,0.424074074,-0.110185185,1,0,0,1.2824,text_option_2,,0,91,91,170,1
5c5e3853de929b0001a4d683,63f3cfca20052e4ae7554ebf,6453ccae251b2c950963649b,2023-05-04_17h21.03.038,ga_syllabified_check,2022.2.5,Win32,60.0276127,,,,,,,,,,,,,,./stim/p03_syllable_1_nhiape_hit.wav,p03,ñiape,hit,nhia-pe,ñia-pe,ñi-a-pe, ,-0.411111111,-0.10462963,1,0,0,0.6329,text_option_1,,0,92,92,23,1
5c5e3853de929b0001a4d683,63f3cfca20052e4ae7554ebf,6453ccae251b2c950963649b,2023-05-04_17h21.03.038,ga_syllabified_check,2022.2.5,Win32,60.0276127,,,,,,,,,,,,,,./stim/p05_syllable_1_palutrauco_hit.wav,p05,palutrauco,hit,pa-lu-trai-co,pa-lu-trau-co,pa-lu-tra-u-co, ,0.015740741,-0.305555556,1,0,0,1.5824,text_option_other,pa-lu-trai-co,0,93,93,97,1
5c5e3853de929b0001a4d683,63f3cfca20052e4ae7554ebf,6453ccae251b2c950963649b,2023-05-04_17h21.03.038,ga_syllabified_check,2022.2.5,Win32,60.0276127,,,,,,,,,,,,,,./stim/p03_syllable_1_lakatiaisto_hit.wav,p03,lakatiaisto,hit,la-ka-tiais-to,la-ka-tiais-to,la-ka-ti-ais-to,la-ka-tia-is-to,-0.415740741,-0.103703704,1,0,0,1.7991,text_option_1,,0,94,94,18,1
5c5e3853de929b0001a4d683,63f3cfca20052e4ae7554ebf,6453ccae251b2c950963649b,2023-05-04_17h21.03.038,ga_syllabified_check,2022.2.5,Win32,60.0276127,,,,,,,,,,,,,,./stim/p06_syllable_1_palufauro_hit.wav,p06,palufauro,hit,pa-lu-fau-ro,pa-lu-fau-ro,pa-lu-fa-u-ro, ,0.039814815,-0.305555556,1,0,0,5.3139,text_option_other,pa-lu-fau-u-ro,0,95,95,127,1
5c5e3853de929b0001a4d683,63f3cfca20052e4ae7554ebf,6453ccae251b2c950963649b,2023-05-04_17h21.03.038,ga_syllabified_check,2022.2.5,Win32,60.0276127,,,,,,,,,,,,,,./stim/p07_syllable_1_chiaba_hit.wav,p07,chiaba,hit,chia-ba,chia-ba,chi-a-ba, ,-0.362962963,-0.10462963,1,0,0,0.6329,text_option_1,,0,96,96,136,1
5c5e3853de929b0001a4d683,63f3cfca20052e4ae7554ebf,6453ccae251b2c950963649b,2023-05-04_17h21.03.038,ga_syllabified_check,2022.2.5,Win32,60.0276127,,,,,,,,,,,,,,./stim/p07_syllable_1_lakadiaisto_hit.wav,p07,lakadiaisto,hit,la-ka-dia-is-to,la-ka-diais-to,la-ka-di-ais-to,la-ka-dia-is-to,0.043518519,-0.102777778,1,0,0,4.3311,text_option_3,,0,97,97,144,1
5c5e3853de929b0001a4d683,63f3cfca20052e4ae7554ebf,6453ccae251b2c950963649b,2023-05-04_17h21.03.038,ga_syllabified_check,2022.2.5,Win32,60.0276127,,,,,,,,,,,,,,./stim/p05_syllable_1_palufauto_hit.wav,p05,palufauto,hit,pa-lu-fau-to,pa-lu-fau-to,pa-lu-fa-u-to, ,-0.381481481,-0.105555556,1,0,0,1.9493,text_option_1,,0,98,98,94,1
5c5e3853de929b0001a4d683,63f3cfca20052e4ae7554ebf,6453ccae251b2c950963649b,2023-05-04_17h21.03.038,ga_syllabified_check,2022.2.5,Win32,60.0276127,,,,,,,,,,,,,,./stim/p05_syllable_1_lakapuaisto_hit.wav,p05,lakapuaisto,hit,la-ka-pais-to,la-ka-puais-to,la-ka-pu-ais-to,la-ka-pua-is-to,0.027777778,-0.296296296,1,0,0,3.7312,text_option_other,la-ka-pais-to,0,99,99,85,1
5c5e3853de929b0001a4d683,63f3cfca20052e4ae7554ebf,6453ccae251b2c950963649b,2023-05-04_17h21.03.038,ga_syllabified_check,2022.2.5,Win32,60.0276127,,,,,,,,,,,,,,./stim/p06_syllable_1_manhiala_hit.wav,p06,mañiala,hit,ma-nhi-a-la,ma-ñia-la,ma-ñi-a-la, ,0.417592593,-0.113888889,1,0,0,1.9656,text_option_2,,0,100,100,123,1
5c5e3853de929b0001a4d683,63f3cfca20052e4ae7554ebf,6453ccae251b2c950963649b,2023-05-04_17h21.03.038,ga_syllabified_check,2022.2.5,Win32,60.0276127,,,,,,,,,,,,,,./stim/p07_syllable_1_lakapiaisto_hit.wav,p07,lakapiaisto,hit,la-ka-pia-sto,la-ka-piais-to,la-ka-pi-ais-to,la-ka-pia-is-to,0.068518519,-0.112037037,1,0,0,5.2139,text_option_3,,0,101,101,152,1
5c5e3853de929b0001a4d683,63f3cfca20052e4ae7554ebf,6453ccae251b2c950963649b,2023-05-04_17h21.03.038,ga_syllabified_check,2022.2.5,Win32,60.0276127,,,,,,,,,,,,,,./stim/p07_syllable_1_lakaguaisto_hit.wav,p07,lakaguaisto,hit,la-ka-guais-to,la-ka-guais-to,la-ka-gu-ais-to,la-ka-gua-is-to,-0.324074074,-0.107407407,1,0,0,2.6317,text_option_1,,0,102,102,149,1
5c5e3853de929b0001a4d683,63f3cfca20052e4ae7554ebf,6453ccae251b2c950963649b,2023-05-04_17h21.03.038,ga_syllabified_check,2022.2.5,Win32,60.0276127,,,,,,,,,,,,,,./stim/p05_syllable_1_ruyiola_hit.wav,p05,ruyiola,hit,ru-yio-la,ru-yio-la,ru-yi-o-la, ,-0.374074074,-0.110185185,1,0,0,1.9492,text_option_1,,0,103,103,100,1
5c5e3853de929b0001a4d683,63f3cfca20052e4ae7554ebf,6453ccae251b2c950963649b,2023-05-04_17h21.03.038,ga_syllabified_check,2022.2.5,Win32,60.0276127,,,,,,,,,,,,,,./stim/p07_syllable_1_lakafiaisto_hit.wav,p07,lakafiaisto,hit,la-ka-fiais-to,la-ka-fiais-to,la-ka-fi-ais-to,la-ka-fia-is-to,-0.386111111,-0.110185185,1,0,0,1.6325,text_option_1,,0,104,104,146,1
5c5e3853de929b0001a4d683,63f3cfca20052e4ae7554ebf,6453ccae251b2c950963649b,2023-05-04_17h21.03.038,ga_syllabified_check,2022.2.5,Win32,60.0276127,,,,,,,,,,,,,,./stim/p07_syllable_1_falutraigo_hit.wav,p07,falutraigo,hit,fa-lu-trai-go,fa-lu-trai-go,fa-lu-tra-i-go, ,0.023148148,-0.307407407,1,0,0,4.2646,text_option_other,fa-lu-tra-go,0,105,105,140,1
5c5e3853de929b0001a4d683,63f3cfca20052e4ae7554ebf,6453ccae251b2c950963649b,2023-05-04_17h21.03.038,ga_syllabified_check,2022.2.5,Win32,60.0276127,,,,,,,,,,,,,,./stim/p03_syllable_1_ruyiola_hit.wav,p03,ruyiola,hit,ru-yio-la,ru-yio-la,ru-yi-o-la, ,-0.399074074,-0.10462963,1,0,0,2.4658,text_option_1,,0,106,106,32,1
5c5e3853de929b0001a4d683,63f3cfca20052e4ae7554ebf,6453ccae251b2c950963649b,2023-05-04_17h21.03.038,ga_syllabified_check,2022.2.5,Win32,60.0276127,,,,,,,,,,,,,,./stim/p07_syllable_1_lakatiaisto_hit.wav,p07,lakatiaisto,hit,la-ka-tiai-sto,la-ka-tiais-to,la-ka-ti-ais-to,la-ka-tia-is-to,-0.3,-0.101851852,1,0,0,9.0456,text_option_1,,0,107,107,154,1
5c5e3853de929b0001a4d683,63f3cfca20052e4ae7554ebf,6453ccae251b2c950963649b,2023-05-04_17h21.03.038,ga_syllabified_check,2022.2.5,Win32,60.0276127,,,,,,,,,,,,,,./stim/p04_syllable_1_paluguato_hit.wav,p04,paluguato,hit,pa-lu-gua,pa-lu-gua-to,pa-lu-gu-a-to, ,0.012037037,-0.291666667,1,0,0,2.7651,text_option_other,pa-lu-gua,0,108,108,61,1
5c5e3853de929b0001a4d683,63f3cfca20052e4ae7554ebf,6453ccae251b2c950963649b,2023-05-04_17h21.03.038,ga_syllabified_check,2022.2.5,Win32,60.0276127,,,,,,,,,,,,,,./stim/p06_syllable_1_paluguato_hit.wav,p06,paluguato,hit,pa-lu-gua-to,pa-lu-gua-to,pa-lu-gu-a-to, ,-0.376851852,-0.108333333,1,0,0,2.9656,text_option_1,,0,109,109,129,1
5c5e3853de929b0001a4d683,63f3cfca20052e4ae7554ebf,6453ccae251b2c950963649b,2023-05-04_17h21.03.038,ga_syllabified_check,2022.2.5,Win32,60.0276127,,,,,,,,,,,,,,./stim/p04_syllable_1_falutraigo_hit.wav,p04,falutraigo,hit,fa-lu-trai-go,fa-lu-trai-go,fa-lu-tra-i-go, ,-0.357407407,-0.115740741,1,0,0,1.066,text_option_1,,0,110,110,38,1
5c5e3853de929b0001a4d683,63f3cfca20052e4ae7554ebf,6453ccae251b2c950963649b,2023-05-04_17h21.03.038,ga_syllabified_check,2022.2.5,Win32,60.0276127,,,,,,,,,,,,,,./stim/p06_syllable_1_lakakuaisto_hit.wav,p06,lakakuaisto,hit,la-ka-ku-a-is,la-ka-kuais-to,la-ka-ku-ais-to,la-ka-kua-is-to,0.023148148,-0.301851852,1,0,0,5.4305,text_option_other,la-ka-ku-a-is-to,0,111,111,117,1
5c5e3853de929b0001a4d683,63f3cfca20052e4ae7554ebf,6453ccae251b2c950963649b,2023-05-04_17h21.03.038,ga_syllabified_check,2022.2.5,Win32,60.0276127,,,,,,,,,,,,,,./stim/p04_syllable_1_lakapiaisto_hit.wav,p04,lakapiaisto,hit,la-ka-piais-to,la-ka-piais-to,la-ka-pi-ais-to,la-ka-pia-is-to,-0.363888889,-0.110185185,1,0,0,1.866,text_option_1,,0,112,112,50,1
5c5e3853de929b0001a4d683,63f3cfca20052e4ae7554ebf,6453ccae251b2c950963649b,2023-05-04_17h21.03.038,ga_syllabified_check,2022.2.5,Win32,60.0276127,,,,,,,,,,,,,,./stim/p07_syllable_1_palumaisto_hit.wav,p07,palumaisto,hit,pa-lu-mais-to,pa-lu-mais-to,pa-lu-ma-is-to, ,-0.346296296,-0.110185185,1,0,0,2.5821,text_option_1,,0,113,113,164,1
5c5e3853de929b0001a4d683,63f3cfca20052e4ae7554ebf,6453ccae251b2c950963649b,2023-05-04_17h21.03.038,ga_syllabified_check,2022.2.5,Win32,60.0276127,,,,,,,,,,,,,,./stim/p03_syllable_1_manhiala_hit.wav,p03,mañiala,hit,ma-nhia-la,ma-ñia-la,ma-ñi-a-la, ,-0.352777778,-0.101851852,1,0,0,1.0659,text_option_1,,0,114,114,21,1
5c5e3853de929b0001a4d683,63f3cfca20052e4ae7554ebf,6453ccae251b2c950963649b,2023-05-04_17h21.03.038,ga_syllabified_check,2022.2.5,Win32,60.0276127,,,,,,,,,,,,,,./stim/p03_syllable_1_palufauro_hit.wav,p03,palufauro,hit,pa-lu-fau-ro,pa-lu-fau-ro,pa-lu-fa-u-ro, ,-0.322222222,-0.098148148,1,0,0,1.3661,text_option_1,,0,115,115,25,1
5c5e3853de929b0001a4d683,63f3cfca20052e4ae7554ebf,6453ccae251b2c950963649b,2023-05-04_17h21.03.038,ga_syllabified_check,2022.2.5,Win32,60.0276127,,,,,,,,,,,,,,./stim/p03_syllable_1_palutrauco_hit.wav,p03,palutrauco,hit,pa-lu-trau-co,pa-lu-trau-co,pa-lu-tra-u-co, ,-0.368518519,-0.098148148,1,0,0,1.2163,text_option_1,,0,116,116,29,1
5c5e3853de929b0001a4d683,63f3cfca20052e4ae7554ebf,6453ccae251b2c950963649b,2023-05-04_17h21.03.038,ga_syllabified_check,2022.2.5,Win32,60.0276127,,,,,,,,,,,,,,./stim/p04_syllable_1_palufauro_hit.wav,p04,palufauro,hit,pa-lu-fau-ro,pa-lu-fau-ro,pa-lu-fa-u-ro, ,-0.334259259,-0.107407407,1,0,0,1.0157,text_option_1,,0,117,117,59,1
5c5e3853de929b0001a4d683,63f3cfca20052e4ae7554ebf,6453ccae251b2c950963649b,2023-05-04_17h21.03.038,ga_syllabified_check,2022.2.5,Win32,60.0276127,,,,,,,,,,,,,,./stim/p08_syllable_1_lliape_hit.wav,p08,lliape,hit,li-a-pe,llia-pe,lli-a-pe, ,-0.381481481,-0.108333333,1,0,0,1.9823,text_option_1,,0,118,118,190,1
5c5e3853de929b0001a4d683,63f3cfca20052e4ae7554ebf,6453ccae251b2c950963649b,2023-05-04_17h21.03.038,ga_syllabified_check,2022.2.5,Win32,60.0276127,,,,,,,,,,,,,,./stim/p03_syllable_1_lakapuaisto_hit.wav,p03,lakapuaisto,hit,la-ka-puais-to,la-ka-puais-to,la-ka-pu-ais-to,la-ka-pua-is-to,-0.342592593,-0.108333333,1,0,0,2.6487,text_option_1,,0,119,119,17,1
5c5e3853de929b0001a4d683,63f3cfca20052e4ae7554ebf,6453ccae251b2c950963649b,2023-05-04_17h21.03.038,ga_syllabified_check,2022.2.5,Win32,60.0276127,,,,,,,,,,,,,,./stim/p05_syllable_1_falufaisto_hit.wav,p05,falufaisto,hit,fa-lu-fais-to,fa-lu-fais-to,fa-lu-fa-is-to, ,-0.331481481,-0.108333333,1,0,0,1.1825,text_option_1,,0,120,120,71,1
5c5e3853de929b0001a4d683,63f3cfca20052e4ae7554ebf,6453ccae251b2c950963649b,2023-05-04_17h21.03.038,ga_syllabified_check,2022.2.5,Win32,60.0276127,,,,,,,,,,,,,,./stim/p08_syllable_1_faluduako_hit.wav,p08,faluduako,hit,fa-lu-duai-ko,fa-lu-dua-ko,fa-lu-du-a-ko, ,0.032407407,-0.313888889,1,0,0,3.0818,text_option_other,fa-lu-duai-ko,0,121,121,172,1
5c5e3853de929b0001a4d683,63f3cfca20052e4ae7554ebf,6453ccae251b2c950963649b,2023-05-04_17h21.03.038,ga_syllabified_check,2022.2.5,Win32,60.0276127,,,,,,,,,,,,,,./stim/p04_syllable_1_lakafiaisto_hit.wav,p04,lakafiaisto,hit,la-ka-fiais-to,la-ka-fiais-to,la-ka-fi-ais-to,la-ka-fia-is-to,-0.382407407,-0.101851852,1,0,0,1.3657,text_option_1,,0,122,122,44,1
5c5e3853de929b0001a4d683,63f3cfca20052e4ae7554ebf,6453ccae251b2c950963649b,2023-05-04_17h21.03.038,ga_syllabified_check,2022.2.5,Win32,60.0276127,,,,,,,,,,,,,,./stim/p04_syllable_1_lakakiaisto_hit.wav,p04,lakakiaisto,hit,la-ka-kiais-to,la-ka-kiais-to,la-ka-ki-ais-to,la-ka-kia-is-to,-0.357407407,-0.108333333,1,0,0,2.9653,text_option_1,,0,123,123,48,1
5c5e3853de929b0001a4d683,63f3cfca20052e4ae7554ebf,6453ccae251b2c950963649b,2023-05-04_17h21.03.038,ga_syllabified_check,2022.2.5,Win32,60.0276127,,,,,,,,,,,,,,./stim/p05_syllable_1_lakafuaisto_hit.wav,p05,lakafuaisto,hit,la-ka-fais-to,la-ka-fuais-to,la-ka-fu-ais-to,la-ka-fua-is-to,0.009259259,-0.307407407,1,0,0,1.9489,text_option_other,la-ka-fais-to,0,124,124,79,1
5c5e3853de929b0001a4d683,63f3cfca20052e4ae7554ebf,6453ccae251b2c950963649b,2023-05-04_17h21.03.038,ga_syllabified_check,2022.2.5,Win32,60.0276127,,,,,,,,,,,,,,./stim/p07_syllable_1_rausto_hit.wav,p07,rausto,hit,raus-to,raus-to,ra-us-to, ,-0.375,-0.10462963,1,0,0,1.4158,text_option_1,,0,125,125,167,1
5c5e3853de929b0001a4d683,63f3cfca20052e4ae7554ebf,6453ccae251b2c950963649b,2023-05-04_17h21.03.038,ga_syllabified_check,2022.2.5,Win32,60.0276127,,,,,,,,,,,,,,./stim/p03_syllable_1_palumaisto_hit.wav,p03,palumaisto,hit,pa-lu-mais-to,pa-lu-mais-to,pa-lu-ma-is-to, ,-0.330555556,-0.107407407,1,0,0,1.5659,text_option_1,,0,126,126,28,1
5c5e3853de929b0001a4d683,63f3cfca20052e4ae7554ebf,6453ccae251b2c950963649b,2023-05-04_17h21.03.038,ga_syllabified_check,2022.2.5,Win32,60.0276127,,,,,,,,,,,,,,./stim/p04_syllable_1_costonhialo_hit.wav,p04,costoñialo,hit,cos-to-nhia-lo,cos-to-ñia-lo,cos-to-ñi-a-lo, ,-0.317592593,-0.103703704,1,0,0,1.3993,text_option_1,,0,127,127,35,1
5c5e3853de929b0001a4d683,63f3cfca20052e4ae7554ebf,6453ccae251b2c950963649b,2023-05-04_17h21.03.038,ga_syllabified_check,2022.2.5,Win32,60.0276127,,,,,,,,,,,,,,./stim/p03_syllable_1_lakakiaisto_hit.wav,p03,lakakiaisto,hit,la-ka-kiais-to,la-ka-kiais-to,la-ka-ki-ais-to,la-ka-kia-is-to,-0.413888889,-0.110185185,1,0,0,1.8156,text_option_1,,0,128,128,14,1
5c5e3853de929b0001a4d683,63f3cfca20052e4ae7554ebf,6453ccae251b2c950963649b,2023-05-04_17h21.03.038,ga_syllabified_check,2022.2.5,Win32,60.0276127,,,,,,,,,,,,,,./stim/p08_syllable_1_palufauro_hit.wav,p08,palufauro,hit,pa-lu-fau-ro,pa-lu-fau-ro,pa-lu-fa-u-ro, ,-0.327777778,-0.112037037,1,0,0,2.7152,text_option_1,,0,129,129,195,1
5c5e3853de929b0001a4d683,63f3cfca20052e4ae7554ebf,6453ccae251b2c950963649b,2023-05-04_17h21.03.038,ga_syllabified_check,2022.2.5,Win32,60.0276127,,,,,,,,,,,,,,./stim/p07_syllable_1_lakakuaisto_hit.wav,p07,lakakuaisto,hit,la-ka-kuais-to,la-ka-kuais-to,la-ka-ku-ais-to,la-ka-kua-is-to,-0.326851852,-0.110185185,1,0,0,2.2156,text_option_1,,0,130,130,151,1
5c5e3853de929b0001a4d683,63f3cfca20052e4ae7554ebf,6453ccae251b2c950963649b,2023-05-04_17h21.03.038,ga_syllabified_check,2022.2.5,Win32,60.0276127,,,,,,,,,,,,,,./stim/p05_syllable_1_lliape_hit.wav,p05,lliape,hit,liai-pe,llia-pe,lli-a-pe, ,-0.40462963,-0.110185185,1,0,0,1.3826,text_option_1,,0,131,131,88,1
5c5e3853de929b0001a4d683,63f3cfca20052e4ae7554ebf,6453ccae251b2c950963649b,2023-05-04_17h21.03.038,ga_syllabified_check,2022.2.5,Win32,60.0276127,,,,,,,,,,,,,,./stim/p04_syllable_1_pachialo_hit.wav,p04,pachialo,hit,pa-chia-lo,pa-chia-lo,pa-chi-a-lo, ,-0.411111111,-0.106481481,1,0,0,0.933,text_option_1,,0,132,132,58,1
5c5e3853de929b0001a4d683,63f3cfca20052e4ae7554ebf,6453ccae251b2c950963649b,2023-05-04_17h21.03.038,ga_syllabified_check,2022.2.5,Win32,60.0276127,,,,,,,,,,,,,,./stim/p05_syllable_1_pachialo_hit.wav,p05,pachialo,hit,pan-chia-lo,pa-chia-lo,pa-chi-a-lo, ,0.049074074,-0.305555556,1,0,0,1.4826,text_option_other,pan-chia-lo,0,133,133,92,1
5c5e3853de929b0001a4d683,63f3cfca20052e4ae7554ebf,6453ccae251b2c950963649b,2023-05-04_17h21.03.038,ga_syllabified_check,2022.2.5,Win32,60.0276127,,,,,,,,,,,,,,./stim/p03_syllable_1_chiaba_hit.wav,p03,chiaba,hit,chia-ba,chia-ba,chi-a-ba, ,-0.362962963,-0.115740741,1,0,0,0.5665,text_option_1,,0,134,134,0,1
5c5e3853de929b0001a4d683,63f3cfca20052e4ae7554ebf,6453ccae251b2c950963649b,2023-05-04_17h21.03.038,ga_syllabified_check,2022.2.5,Win32,60.0276127,,,,,,,,,,,,,,./stim/p03_syllable_1_lakaduaisto_hit.wav,p03,lakaduaisto,hit,la-ka-duais-to,la-ka-duais-to,la-ka-du-ais-to,la-ka-dua-is-to,-0.330555556,-0.10462963,1,0,0,1.4827,text_option_1,,0,135,135,9,1
5c5e3853de929b0001a4d683,63f3cfca20052e4ae7554ebf,6453ccae251b2c950963649b,2023-05-04_17h21.03.038,ga_syllabified_check,2022.2.5,Win32,60.0276127,,,,,,,,,,,,,,./stim/p04_syllable_1_rausto_hit.wav,p04,rausto,hit,raus-to,raus-to,ra-us-to, ,-0.40462963,-0.100925926,1,0,0,0.3331,text_option_1,,0,136,136,65,1
5c5e3853de929b0001a4d683,63f3cfca20052e4ae7554ebf,6453ccae251b2c950963649b,2023-05-04_17h21.03.038,ga_syllabified_check,2022.2.5,Win32,60.0276127,,,,,,,,,,,,,,./stim/p04_syllable_1_lakatiaisto_hit.wav,p04,lakatiaisto,hit,la-ka-kiais-to,la-ka-tiais-to,la-ka-ti-ais-to,la-ka-tia-is-to,-0.352777778,-0.10462963,1,0,0,1.6993,text_option_1,,0,137,137,52,1
5c5e3853de929b0001a4d683,63f3cfca20052e4ae7554ebf,6453ccae251b2c950963649b,2023-05-04_17h21.03.038,ga_syllabified_check,2022.2.5,Win32,60.0276127,,,,,,,,,,,,,,./stim/p08_syllable_1_paluguato_hit.wav,p08,paluguato,hit,pa-lu-gua-to,pa-lu-gua-to,pa-lu-gu-a-to, ,-0.332407407,-0.113888889,1,0,0,1.7658,text_option_1,,0,138,138,197,1
5c5e3853de929b0001a4d683,63f3cfca20052e4ae7554ebf,6453ccae251b2c950963649b,2023-05-04_17h21.03.038,ga_syllabified_check,2022.2.5,Win32,60.0276127,,,,,,,,,,,,,,./stim/p03_syllable_1_lakafiaisto_hit.wav,p03,lakafiaisto,hit,la-ka-fiais-to,la-ka-fiais-to,la-ka-fi-ais-to,la-ka-fia-is-to,-0.32037037,-0.110185185,1,0,0,1.2825,text_option_1,,0,139,139,10,1
5c5e3853de929b0001a4d683,63f3cfca20052e4ae7554ebf,6453ccae251b2c950963649b,2023-05-04_17h21.03.038,ga_syllabified_check,2022.2.5,Win32,60.0276127,,,,,,,,,,,,,,./stim/p08_syllable_1_lakagiaisto_hit.wav,p08,lakagiaisto,hit,la-ka-gi-jas-to,la-ka-giais-to,la-ka-gi-ais-to,la-ka-gia-is-to,0.035185185,-0.30462963,1,0,0,3.3984,text_option_other,la-ka-gui-ais-tio,0,140,140,182,1
5c5e3853de929b0001a4d683,63f3cfca20052e4ae7554ebf,6453ccae251b2c950963649b,2023-05-04_17h21.03.038,ga_syllabified_check,2022.2.5,Win32,60.0276127,,,,,,,,,,,,,,./stim/p08_syllable_1_lakabuaisto_hit.wav,p08,lakabuaisto,hit,la-ka-bu-ais-to,la-ka-buais-to,la-ka-bu-ais-to,la-ka-bua-is-to,0.446296296,-0.10462963,1,0,0,5.0308,text_option_2,,0,141,141,177,1
5c5e3853de929b0001a4d683,63f3cfca20052e4ae7554ebf,6453ccae251b2c950963649b,2023-05-04_17h21.03.038,ga_syllabified_check,2022.2.5,Win32,60.0276127,,,,,,,,,,,,,,./stim/p05_syllable_1_flauro_hit.wav,p05,flauro,hit,fa-lu-ro,flau-ro,fla-u-ro, ,0.046296296,-0.306481481,1,0,0,1.7824,text_option_other,fa-lu-ro,0,142,142,73,1
5c5e3853de929b0001a4d683,63f3cfca20052e4ae7554ebf,6453ccae251b2c950963649b,2023-05-04_17h21.03.038,ga_syllabified_check,2022.2.5,Win32,60.0276127,,,,,,,,,,,,,,./stim/p05_syllable_1_lakapiaisto_hit.wav,p05,lakapiaisto,hit,la-ka-pais-to,la-ka-piais-to,la-ka-pi-ais-to,la-ka-pia-is-to,0.00462963,-0.307407407,1,0,0,2.0489,text_option_other,la-ka-pais-to,0,143,143,84,1
5c5e3853de929b0001a4d683,63f3cfca20052e4ae7554ebf,6453ccae251b2c950963649b,2023-05-04_17h21.03.038,ga_syllabified_check,2022.2.5,Win32,60.0276127,,,,,,,,,,,,,,./stim/p04_syllable_1_tuliafo_hit.wav,p04,tuliafo,hit,tu-lia-fo,tu-lia-fo,tu-li-a-fo, ,-0.408333333,-0.102777778,1,0,0,0.7496,text_option_1,,0,144,144,67,1
5c5e3853de929b0001a4d683,63f3cfca20052e4ae7554ebf,6453ccae251b2c950963649b,2023-05-04_17h21.03.038,ga_syllabified_check,2022.2.5,Win32,60.0276127,,,,,,,,,,,,,,./stim/p03_syllable_1_lakadiaisto_hit.wav,p03,lakadiaisto,hit,la-ka-diais-to,la-ka-diais-to,la-ka-di-ais-to,la-ka-dia-is-to,-0.383333333,-0.1,1,0,0,1.5993,text_option_1,,0,145,145,8,1
5c5e3853de929b0001a4d683,63f3cfca20052e4ae7554ebf,6453ccae251b2c950963649b,2023-05-04_17h21.03.038,ga_syllabified_check,2022.2.5,Win32,60.0276127,,,,,,,,,,,,,,./stim/p08_syllable_1_rausto_hit.wav,p08,rausto,hit,raus-to,raus-to,ra-us-to, ,-0.356481481,-0.102777778,1,0,0,0.7161,text_option_1,,0,146,146,201,1
5c5e3853de929b0001a4d683,63f3cfca20052e4ae7554ebf,6453ccae251b2c950963649b,2023-05-04_17h21.03.038,ga_syllabified_check,2022.2.5,Win32,60.0276127,,,,,,,,,,,,,,./stim/p08_syllable_1_payielo_hit.wav,p08,payielo,hit,pa-yie-lo,pa-yie-lo,pa-yi-e-lo, ,-0.359259259,-0.105555556,1,0,0,1.1662,text_option_1,,0,147,147,200,1
5c5e3853de929b0001a4d683,63f3cfca20052e4ae7554ebf,6453ccae251b2c950963649b,2023-05-04_17h21.03.038,ga_syllabified_check,2022.2.5,Win32,60.0276127,,,,,,,,,,,,,,./stim/p05_syllable_1_mebochiana_hit.wav,p05,mebochiana,hit,me-cho-chai-na,me-bo-chia-na,me-bo-chi-a-na, ,0.064814815,-0.294444444,1,0,0,1.1327,text_option_other,me-cho-chai-na,0,148,148,90,1
5c5e3853de929b0001a4d683,63f3cfca20052e4ae7554ebf,6453ccae251b2c950963649b,2023-05-04_17h21.03.038,ga_syllabified_check,2022.2.5,Win32,60.0276127,,,,,,,,,,,,,,./stim/p05_syllable_1_lakagiaisto_hit.wav,p05,lakagiaisto,hit,la-ka-ki-ais-to,la-ka-giais-to,la-ka-gi-ais-to,la-ka-gia-is-to,0.022222222,-0.314814815,1,0,0,1.4995,text_option_other,la-ka-guiais-to,0,149,149,80,1
5c5e3853de929b0001a4d683,63f3cfca20052e4ae7554ebf,6453ccae251b2c950963649b,2023-05-04_17h21.03.038,ga_syllabified_check,2022.2.5,Win32,60.0276127,,,,,,,,,,,,,,./stim/p08_syllable_1_lakaduaisto_hit.wav,p08,lakaduaisto,hit,la-ka-du-ais-to,la-ka-duais-to,la-ka-du-ais-to,la-ka-dua-is-to,0.388888889,-0.106481481,1,0,0,4.1649,text_option_2,,0,150,150,179,1
5c5e3853de929b0001a4d683,63f3cfca20052e4ae7554ebf,6453ccae251b2c950963649b,2023-05-04_17h21.03.038,ga_syllabified_check,2022.2.5,Win32,60.0276127,,,,,,,,,,,,,,./stim/p03_syllable_1_rausto_hit.wav,p03,rausto,hit,raus-to,raus-to,ra-us-to, ,-0.398148148,-0.105555556,1,0,0,0.8657,text_option_1,,0,151,151,31,1
5c5e3853de929b0001a4d683,63f3cfca20052e4ae7554ebf,6453ccae251b2c950963649b,2023-05-04_17h21.03.038,ga_syllabified_check,2022.2.5,Win32,60.0276127,,,,,,,,,,,,,,./stim/p05_syllable_1_lakakiaisto_hit.wav,p05,lakakiaisto,hit,la-ka-ki-ais-to,la-ka-kiais-to,la-ka-ki-ais-to,la-ka-kia-is-to,-0.322222222,-0.103703704,1,0,0,1.4658,text_option_1,,0,152,152,82,1
5c5e3853de929b0001a4d683,63f3cfca20052e4ae7554ebf,6453ccae251b2c950963649b,2023-05-04_17h21.03.038,ga_syllabified_check,2022.2.5,Win32,60.0276127,,,,,,,,,,,,,,./stim/p06_syllable_1_palutrauco_hit.wav,p06,palutrauco,hit,pa-lu-tra-u-co,pa-lu-trau-co,pa-lu-tra-u-co, ,0.462037037,-0.109259259,1,0,0,2.2323,text_option_2,,0,153,153,131,1
5c5e3853de929b0001a4d683,63f3cfca20052e4ae7554ebf,6453ccae251b2c950963649b,2023-05-04_17h21.03.038,ga_syllabified_check,2022.2.5,Win32,60.0276127,,,,,,,,,,,,,,./stim/p05_syllable_1_palumaisto_hit.wav,p05,palumaisto,hit,pa-lu-mais-to,pa-lu-mais-to,pa-lu-ma-is-to, ,-0.324074074,-0.10462963,1,0,0,1.1327,text_option_1,,0,154,154,96,1
5c5e3853de929b0001a4d683,63f3cfca20052e4ae7554ebf,6453ccae251b2c950963649b,2023-05-04_17h21.03.038,ga_syllabified_check,2022.2.5,Win32,60.0276127,,,,,,,,,,,,,,./stim/p06_syllable_1_lliape_hit.wav,p06,lliape,hit,lli-lla-pe,llia-pe,lli-a-pe, ,0.416666667,-0.107407407,1,0,0,1.0163,text_option_2,,0,155,155,122,1
5c5e3853de929b0001a4d683,63f3cfca20052e4ae7554ebf,6453ccae251b2c950963649b,2023-05-04_17h21.03.038,ga_syllabified_check,2022.2.5,Win32,60.0276127,,,,,,,,,,,,,,./stim/p08_syllable_1_lakabiaisto_hit.wav,p08,lakabiaisto,hit,la-ka-bi-as-to,la-ka-biais-to,la-ka-bi-ais-to,la-ka-bia-is-to,0.010185185,-0.294444444,1,0,0,3.8316,text_option_other,la-ka-bi-as-to,0,156,156,176,1
5c5e3853de929b0001a4d683,63f3cfca20052e4ae7554ebf,6453ccae251b2c950963649b,2023-05-04_17h21.03.038,ga_syllabified_check,2022.2.5,Win32,60.0276127,,,,,,,,,,,,,,./stim/p07_syllable_1_palutrauco_hit.wav,p07,palutrauco,hit,pa-lu-trau-co,pa-lu-trau-co,pa-lu-tra-u-co, ,-0.380555556,-0.111111111,1,0,0,1.0663,text_option_1,,0,157,157,165,1
5c5e3853de929b0001a4d683,63f3cfca20052e4ae7554ebf,6453ccae251b2c950963649b,2023-05-04_17h21.03.038,ga_syllabified_check,2022.2.5,Win32,60.0276127,,,,,,,,,,,,,,./stim/p03_syllable_1_costonhialo_hit.wav,p03,costoñialo,hit,cos-to-nhia-lo,cos-to-ñia-lo,cos-to-ñi-a-lo, ,-0.362962963,-0.107407407,1,0,0,1.4658,text_option_1,,0,158,158,1,1
5c5e3853de929b0001a4d683,63f3cfca20052e4ae7554ebf,6453ccae251b2c950963649b,2023-05-04_17h21.03.038,ga_syllabified_check,2022.2.5,Win32,60.0276127,,,,,,,,,,,,,,./stim/p03_syllable_1_pachialo_hit.wav,p03,pachialo,hit,pa-chia-lo,pa-chia-lo,pa-chi-a-lo, ,-0.399074074,-0.105555556,1,0,0,1.6663,text_option_1,,0,159,159,24,1
5c5e3853de929b0001a4d683,63f3cfca20052e4ae7554ebf,6453ccae251b2c950963649b,2023-05-04_17h21.03.038,ga_syllabified_check,2022.2.5,Win32,60.0276127,,,,,,,,,,,,,,./stim/p07_syllable_1_tuliafo_hit.wav,p07,tuliafo,hit,tu-lia-fo,tu-lia-fo,tu-li-a-fo, ,-0.350925926,-0.1,1,0,0,0.6497,text_option_1,,0,160,160,169,1
5c5e3853de929b0001a4d683,63f3cfca20052e4ae7554ebf,6453ccae251b2c950963649b,2023-05-04_17h21.03.038,ga_syllabified_check,2022.2.5,Win32,60.0276127,,,,,,,,,,,,,,./stim/p04_syllable_1_ruyiola_hit.wav,p04,ruyiola,hit,ru-yio-la,ru-yio-la,ru-yi-o-la, ,-0.357407407,-0.106481481,1,0,0,0.6662,text_option_1,,0,161,161,66,1
5c5e3853de929b0001a4d683,63f3cfca20052e4ae7554ebf,6453ccae251b2c950963649b,2023-05-04_17h21.03.038,ga_syllabified_check,2022.2.5,Win32,60.0276127,,,,,,,,,,,,,,./stim/p05_syllable_1_lakabiaisto_hit.wav,p05,lakabiaisto,hit,la-ka-bi-ais-to,la-ka-biais-to,la-ka-bi-ais-to,la-ka-bia-is-to,0.439814815,-0.102777778,1,0,0,6.6301,text_option_2,,0,162,162,74,1
5c5e3853de929b0001a4d683,63f3cfca20052e4ae7554ebf,6453ccae251b2c950963649b,2023-05-04_17h21.03.038,ga_syllabified_check,2022.2.5,Win32,60.0276127,,,,,,,,,,,,,,./stim/p08_syllable_1_nhiape_hit.wav,p08,ñiape,hit,ni-a-pe,ñia-pe,ñi-a-pe, ,0.411111111,-0.106481481,1,0,0,1.649,text_option_2,,0,163,163,193,1
5c5e3853de929b0001a4d683,63f3cfca20052e4ae7554ebf,6453ccae251b2c950963649b,2023-05-04_17h21.03.038,ga_syllabified_check,2022.2.5,Win32,60.0276127,,,,,,,,,,,,,,./stim/p07_syllable_1_lakatuaisto_hit.wav,p07,lakatuaisto,hit,la-ka-tuais-to,la-ka-tuais-to,la-ka-tu-ais-to,la-ka-tua-is-to,-0.32962963,-0.111111111,1,0,0,2.3823,text_option_1,,0,164,164,155,1
5c5e3853de929b0001a4d683,63f3cfca20052e4ae7554ebf,6453ccae251b2c950963649b,2023-05-04_17h21.03.038,ga_syllabified_check,2022.2.5,Win32,60.0276127,,,,,,,,,,,,,,./stim/p04_syllable_1_palumaisto_hit.wav,p04,palumaisto,hit,pa-lu-mais-to,pa-lu-mais-to,pa-lu-ma-is-to, ,-0.362037037,-0.116666667,1,0,0,1.0493,text_option_1,,0,165,165,62,1
5c5e3853de929b0001a4d683,63f3cfca20052e4ae7554ebf,6453ccae251b2c950963649b,2023-05-04_17h21.03.038,ga_syllabified_check,2022.2.5,Win32,60.0276127,,,,,,,,,,,,,,./stim/p03_syllable_1_falutraigo_hit.wav,p03,falutraigo,hit,fa-lu-trai-go,fa-lu-trai-go,fa-lu-tra-i-go, ,-0.322222222,-0.113888889,1,0,0,1.5159,text_option_1,,0,166,166,4,1
5c5e3853de929b0001a4d683,63f3cfca20052e4ae7554ebf,6453ccae251b2c950963649b,2023-05-04_17h21.03.038,ga_syllabified_check,2022.2.5,Win32,60.0276127,,,,,,,,,,,,,,./stim/p07_syllable_1_nhiape_hit.wav,p07,ñiape,hit,nhia-pe,ñia-pe,ñi-a-pe, ,-0.371296296,-0.102777778,1,0,0,0.4498,text_option_1,,0,167,167,159,1
5c5e3853de929b0001a4d683,63f3cfca20052e4ae7554ebf,6453ccae251b2c950963649b,2023-05-04_17h21.03.038,ga_syllabified_check,2022.2.5,Win32,60.0276127,,,,,,,,,,,,,,./stim/p03_syllable_1_lakakuaisto_hit.wav,p03,lakakuaisto,hit,la-ka-kuais-to,la-ka-kuais-to,la-ka-ku-ais-to,la-ka-kua-is-to,-0.350925926,-0.115740741,1,0,0,1.2994,text_option_1,,0,168,168,15,1
5c5e3853de929b0001a4d683,63f3cfca20052e4ae7554ebf,6453ccae251b2c950963649b,2023-05-04_17h21.03.038,ga_syllabified_check,2022.2.5,Win32,60.0276127,,,,,,,,,,,,,,./stim/p05_syllable_1_lakaguaisto_hit.wav,p05,lakaguaisto,hit,la-ka-gais,la-ka-guais-to,la-ka-gu-ais-to,la-ka-gua-is-to,0.012962963,-0.302777778,1,0,0,2.2821,text_option_other,la-ka-kais-to,0,169,169,81,1
5c5e3853de929b0001a4d683,63f3cfca20052e4ae7554ebf,6453ccae251b2c950963649b,2023-05-04_17h21.03.038,ga_syllabified_check,2022.2.5,Win32,60.0276127,,,,,,,,,,,,,,./stim/p07_syllable_1_ruyiola_hit.wav,p07,ruyiola,hit,ru-yio-la,ru-yio-la,ru-yi-o-la, ,-0.389814815,-0.102777778,1,0,0,1.0327,text_option_1,,0,170,170,168,1
5c5e3853de929b0001a4d683,63f3cfca20052e4ae7554ebf,6453ccae251b2c950963649b,2023-05-04_17h21.03.038,ga_syllabified_check,2022.2.5,Win32,60.0276127,,,,,,,,,,,,,,./stim/p07_syllable_1_paluguato_hit.wav,p07,paluguato,hit,pa-lu-gua-to,pa-lu-gua-to,pa-lu-gu-a-to, ,-0.360185185,-0.105555556,1,0,0,1.4993,text_option_1,,0,171,171,163,1
5c5e3853de929b0001a4d683,63f3cfca20052e4ae7554ebf,6453ccae251b2c950963649b,2023-05-04_17h21.03.038,ga_syllabified_check,2022.2.5,Win32,60.0276127,,,,,,,,,,,,,,./stim/p08_syllable_1_mebochiana_hit.wav,p08,mebochiana,hit,me-bo-chi-a-na,me-bo-chia-na,me-bo-chi-a-na, ,0.460185185,-0.110185185,1,0,0,2.2488,text_option_2,,0,172,172,192,1
5c5e3853de929b0001a4d683,63f3cfca20052e4ae7554ebf,6453ccae251b2c950963649b,2023-05-04_17h21.03.038,ga_syllabified_check,2022.2.5,Win32,60.0276127,,,,,,,,,,,,,,./stim/p07_syllable_1_lliape_hit.wav,p07,lliape,hit,lliai-pe,llia-pe,lli-a-pe, ,0.016666667,-0.303703704,1,0,0,1.7826,text_option_other,lliai-pe,0,173,173,156,1
5c5e3853de929b0001a4d683,63f3cfca20052e4ae7554ebf,6453ccae251b2c950963649b,2023-05-04_17h21.03.038,ga_syllabified_check,2022.2.5,Win32,60.0276127,,,,,,,,,,,,,,./stim/p05_syllable_1_palufauro_hit.wav,p05,palufauro,hit,pa-lu-fau-ro,pa-lu-fau-ro,pa-lu-fa-u-ro, ,-0.32037037,-0.105555556,1,0,0,1.0828,text_option_1,,0,174,174,93,1
5c5e3853de929b0001a4d683,63f3cfca20052e4ae7554ebf,6453ccae251b2c950963649b,2023-05-04_17h21.03.038,ga_syllabified_check,2022.2.5,Win32,60.0276127,,,,,,,,,,,,,,./stim/p03_syllable_1_lakaguaisto_hit.wav,p03,lakaguaisto,hit,la-ka-guais-to,la-ka-guais-to,la-ka-gu-ais-to,la-ka-gua-is-to,-0.391666667,-0.110185185,1,0,0,1.2164,text_option_1,,0,175,175,13,1
5c5e3853de929b0001a4d683,63f3cfca20052e4ae7554ebf,6453ccae251b2c950963649b,2023-05-04_17h21.03.038,ga_syllabified_check,2022.2.5,Win32,60.0276127,,,,,,,,,,,,,,./stim/p06_syllable_1_lakaguaisto_hit.wav,p06,lakaguaisto,hit,la-ka-gu-a-is,la-ka-guais-to,la-ka-gu-ais-to,la-ka-gua-is-to,-0.033333333,-0.303703704,1,0,0,5.1308,text_option_other,la-ka-gu-a-is-to,0,176,176,115,1
5c5e3853de929b0001a4d683,63f3cfca20052e4ae7554ebf,6453ccae251b2c950963649b,2023-05-04_17h21.03.038,ga_syllabified_check,2022.2.5,Win32,60.0276127,,,,,,,,,,,,,,./stim/p06_syllable_1_lakafuaisto_hit.wav,p06,lakafuaisto,hit,la-ka-fu-a-is,la-ka-fuais-to,la-ka-fu-ais-to,la-ka-fua-is-to,0.021296296,-0.297222222,1,0,0,3.9148,text_option_other,la-ka-fu-a-is-to,0,177,177,113,1
5c5e3853de929b0001a4d683,63f3cfca20052e4ae7554ebf,6453ccae251b2c950963649b,2023-05-04_17h21.03.038,ga_syllabified_check,2022.2.5,Win32,60.0276127,,,,,,,,,,,,,,./stim/p03_syllable_1_flauro_hit.wav,p03,flauro,hit,flau-ro,flau-ro,fla-u-ro, ,-0.377777778,-0.10462963,1,0,0,0.3828,text_option_1,,0,178,178,5,1
5c5e3853de929b0001a4d683,63f3cfca20052e4ae7554ebf,6453ccae251b2c950963649b,2023-05-04_17h21.03.038,ga_syllabified_check,2022.2.5,Win32,60.0276127,,,,,,,,,,,,,,./stim/p06_syllable_1_nhiape_hit.wav,p06,ñiape,hit,nhi-a-pe,ñia-pe,ñi-a-pe, ,0.405555556,-0.108333333,1,0,0,1.3491,text_option_2,,0,179,179,125,1
5c5e3853de929b0001a4d683,63f3cfca20052e4ae7554ebf,6453ccae251b2c950963649b,2023-05-04_17h21.03.038,ga_syllabified_check,2022.2.5,Win32,60.0276127,,,,,,,,,,,,,,./stim/p03_syllable_1_lakabiaisto_hit.wav,p03,lakabiaisto,hit,la-ka-biais-to,la-ka-biais-to,la-ka-bi-ais-to,la-ka-bia-is-to,-0.399074074,-0.109259259,1,0,0,1.4826,text_option_1,,0,180,180,6,1
5c5e3853de929b0001a4d683,63f3cfca20052e4ae7554ebf,6453ccae251b2c950963649b,2023-05-04_17h21.03.038,ga_syllabified_check,2022.2.5,Win32,60.0276127,,,,,,,,,,,,,,./stim/p08_syllable_1_palufauto_hit.wav,p08,palufauto,hit,pa-lu-fau-to,pa-lu-fau-to,pa-lu-fa-u-to, ,-0.331481481,-0.110185185,1,0,0,2.2987,text_option_1,,0,181,181,196,1
5c5e3853de929b0001a4d683,63f3cfca20052e4ae7554ebf,6453ccae251b2c950963649b,2023-05-04_17h21.03.038,ga_syllabified_check,2022.2.5,Win32,60.0276127,,,,,,,,,,,,,,./stim/p05_syllable_1_lakakuaisto_hit.wav,p05,lakakuaisto,hit,la-ka-kais-to,la-ka-kuais-to,la-ka-ku-ais-to,la-ka-kua-is-to,0.026851852,-0.306481481,1,0,0,1.3991,text_option_other,la-ka-kais-to,0,182,182,83,1
5c5e3853de929b0001a4d683,63f3cfca20052e4ae7554ebf,6453ccae251b2c950963649b,2023-05-04_17h21.03.038,ga_syllabified_check,2022.2.5,Win32,60.0276127,,,,,,,,,,,,,,./stim/p03_syllable_1_palufauto_hit.wav,p03,palufauto,hit,pa-lu-fau,pa-lu-fau-to,pa-lu-fa-u-to, ,-0.343518519,-0.09537037,1,0,0,1.0495,text_option_1,,0,183,183,26,1
5c5e3853de929b0001a4d683,63f3cfca20052e4ae7554ebf,6453ccae251b2c950963649b,2023-05-04_17h21.03.038,ga_syllabified_check,2022.2.5,Win32,60.0276127,,,,,,,,,,,,,,./stim/p04_syllable_1_lakabiaisto_hit.wav,p04,lakabiaisto,hit,la-ka-biais-to,la-ka-biais-to,la-ka-bi-ais-to,la-ka-bia-is-to,-0.411111111,-0.101851852,1,0,0,1.2494,text_option_1,,0,184,184,40,1
5c5e3853de929b0001a4d683,63f3cfca20052e4ae7554ebf,6453ccae251b2c950963649b,2023-05-04_17h21.03.038,ga_syllabified_check,2022.2.5,Win32,60.0276127,,,,,,,,,,,,,,./stim/p06_syllable_1_lakabuaisto_hit.wav,p06,lakabuaisto,hit,la-ka-bu-a-is,la-ka-buais-to,la-ka-bu-ais-to,la-ka-bua-is-to,-0.02962963,-0.311111111,1,0,0,4.0313,text_option_other,la-ka-bu-a-is-to,0,185,185,109,1
5c5e3853de929b0001a4d683,63f3cfca20052e4ae7554ebf,6453ccae251b2c950963649b,2023-05-04_17h21.03.038,ga_syllabified_check,2022.2.5,Win32,60.0276127,,,,,,,,,,,,,,./stim/p06_syllable_1_costonhialo_hit.wav,p06,costoñialo,hit,cos-to-nhia-lo,cos-to-ñia-lo,cos-to-ñi-a-lo, ,-0.405555556,-0.107407407,1,0,0,2.6652,text_option_1,,0,186,186,103,1
5c5e3853de929b0001a4d683,63f3cfca20052e4ae7554ebf,6453ccae251b2c950963649b,2023-05-04_17h21.03.038,ga_syllabified_check,2022.2.5,Win32,60.0276127,,,,,,,,,,,,,,./stim/p08_syllable_1_costonhialo_hit.wav,p08,costoñialo,hit,cos-to-nhia-lo,cos-to-ñia-lo,cos-to-ñi-a-lo, ,-0.338888889,-0.106481481,1,0,0,1.3829,text_option_1,,0,187,187,171,1
5c5e3853de929b0001a4d683,63f3cfca20052e4ae7554ebf,6453ccae251b2c950963649b,2023-05-04_17h21.03.038,ga_syllabified_check,2022.2.5,Win32,60.0276127,,,,,,,,,,,,,,./stim/p04_syllable_1_lakadiaisto_hit.wav,p04,lakadiaisto,hit,la-ka-dias-to,la-ka-diais-to,la-ka-di-ais-to,la-ka-dia-is-to,-0.380555556,-0.113888889,1,0,0,1.3324,text_option_1,,0,188,188,42,1
5c5e3853de929b0001a4d683,63f3cfca20052e4ae7554ebf,6453ccae251b2c950963649b,2023-05-04_17h21.03.038,ga_syllabified_check,2022.2.5,Win32,60.0276127,,,,,,,,,,,,,,./stim/p08_syllable_1_ruyiola_hit.wav,p08,ruyiola,hit,ru-yio-la,ru-yio-la,ru-yi-o-la, ,-0.364814815,-0.111111111,1,0,0,0.7995,text_option_1,,0,189,189,202,1
5c5e3853de929b0001a4d683,63f3cfca20052e4ae7554ebf,6453ccae251b2c950963649b,2023-05-04_17h21.03.038,ga_syllabified_check,2022.2.5,Win32,60.0276127,,,,,,,,,,,,,,./stim/p03_syllable_1_payielo_hit.wav,p03,payielo,hit,pa-yie-lo,pa-yie-lo,pa-yi-e-lo, ,-0.373148148,-0.106481481,1,0,0,0.6497,text_option_1,,0,190,190,30,1
5c5e3853de929b0001a4d683,63f3cfca20052e4ae7554ebf,6453ccae251b2c950963649b,2023-05-04_17h21.03.038,ga_syllabified_check,2022.2.5,Win32,60.0276127,,,,,,,,,,,,,,./stim/p04_syllable_1_chiaba_hit.wav,p04,chiaba,hit,chia-ba,chia-ba,chi-a-ba, ,-0.356481481,-0.106481481,1,0,0,0.3827,text_option_1,,0,191,191,34,1
5c5e3853de929b0001a4d683,63f3cfca20052e4ae7554ebf,6453ccae251b2c950963649b,2023-05-04_17h21.03.038,ga_syllabified_check,2022.2.5,Win32,60.0276127,,,,,,,,,,,,,,./stim/p07_syllable_1_faluduako_hit.wav,p07,faluduako,hit,fa-lu-dua-ko,fa-lu-dua-ko,fa-lu-du-a-ko, ,-0.32037037,-0.110185185,1,0,0,2.1156,text_option_1,,0,192,192,138,1
5c5e3853de929b0001a4d683,63f3cfca20052e4ae7554ebf,6453ccae251b2c950963649b,2023-05-04_17h21.03.038,ga_syllabified_check,2022.2.5,Win32,60.0276127,,,,,,,,,,,,,,./stim/p05_syllable_1_lakatiaisto_hit.wav,p05,lakatiaisto,hit,la-ka-ti-ais-to,la-ka-tiais-to,la-ka-ti-ais-to,la-ka-tia-is-to,-0.339814815,-0.116666667,1,0,0,1.5826,text_option_1,,0,193,193,86,1
5c5e3853de929b0001a4d683,63f3cfca20052e4ae7554ebf,6453ccae251b2c950963649b,2023-05-04_17h21.03.038,ga_syllabified_check,2022.2.5,Win32,60.0276127,,,,,,,,,,,,,,./stim/p03_syllable_1_mebochiana_hit.wav,p03,mebochiana,hit,me-bo-chia-na,me-bo-chia-na,me-bo-chi-a-na, ,-0.322222222,-0.10462963,1,0,0,1.4663,text_option_1,,0,194,194,22,1
5c5e3853de929b0001a4d683,63f3cfca20052e4ae7554ebf,6453ccae251b2c950963649b,2023-05-04_17h21.03.038,ga_syllabified_check,2022.2.5,Win32,60.0276127,,,,,,,,,,,,,,./stim/p06_syllable_1_palufauto_hit.wav,p06,palufauto,hit,pa-lu-fau-to,pa-lu-fau-to,pa-lu-fa-u-to, ,-0.323148148,-0.109259259,1,0,0,2.8153,text_option_1,,0,195,195,128,1
5c5e3853de929b0001a4d683,63f3cfca20052e4ae7554ebf,6453ccae251b2c950963649b,2023-05-04_17h21.03.038,ga_syllabified_check,2022.2.5,Win32,60.0276127,,,,,,,,,,,,,,./stim/p04_syllable_1_lakatuaisto_hit.wav,p04,lakatuaisto,hit,la-ka-kuais-to,la-ka-tuais-to,la-ka-tu-ais-to,la-ka-tua-is-to,-0.331481481,-0.103703704,1,0,0,1.0996,text_option_1,,0,196,196,53,1
5c5e3853de929b0001a4d683,63f3cfca20052e4ae7554ebf,6453ccae251b2c950963649b,2023-05-04_17h21.03.038,ga_syllabified_check,2022.2.5,Win32,60.0276127,,,,,,,,,,,,,,./stim/p07_syllable_1_falufaisto_hit.wav,p07,falufaisto,hit,fa-lu-fais-to,fa-lu-fais-to,fa-lu-fa-is-to, ,-0.335185185,-0.110185185,1,0,0,2.1157,text_option_1,,0,197,197,139,1
5c5e3853de929b0001a4d683,63f3cfca20052e4ae7554ebf,6453ccae251b2c950963649b,2023-05-04_17h21.03.038,ga_syllabified_check,2022.2.5,Win32,60.0276127,,,,,,,,,,,,,,./stim/p06_syllable_1_lakatiaisto_hit.wav,p06,lakatiaisto,hit,la-ka-pia-is-to,la-ka-tiais-to,la-ka-ti-ais-to,la-ka-tia-is-to,0.07037037,-0.106481481,1,0,0,4.331,text_option_3,,0,198,198,120,1
5c5e3853de929b0001a4d683,63f3cfca20052e4ae7554ebf,6453ccae251b2c950963649b,2023-05-04_17h21.03.038,ga_syllabified_check,2022.2.5,Win32,60.0276127,,,,,,,,,,,,,,./stim/p08_syllable_1_falutraigo_hit.wav,p08,falutraigo,hit,fa-lu-trai-go,fa-lu-trai-go,fa-lu-tra-i-go, ,-0.321296296,-0.107407407,1,0,0,1.6158,text_option_1,,0,199,199,174,1
5c5e3853de929b0001a4d683,63f3cfca20052e4ae7554ebf,6453ccae251b2c950963649b,2023-05-04_17h21.03.038,ga_syllabified_check,2022.2.5,Win32,60.0276127,,,,,,,,,,,,,,./stim/p08_syllable_1_lakakiaisto_hit.wav,p08,lakakiaisto,hit,la-ka-ki-jas-to,la-ka-kiais-to,la-ka-ki-ais-to,la-ka-kia-is-to,0.082407407,-0.30462963,1,0,0,3.1484,text_option_other,la-ka-kias-to,0,200,200,184,1
5c5e3853de929b0001a4d683,63f3cfca20052e4ae7554ebf,6453ccae251b2c950963649b,2023-05-04_17h21.03.038,ga_syllabified_check,2022.2.5,Win32,60.0276127,,,,,,,,,,,,,,./stim/p05_syllable_1_tuliafo_hit.wav,p05,tuliafo,hit,tu-lai-fo,tu-lia-fo,tu-li-a-fo, ,0.038888889,-0.312962963,1,0,0,1.0993,text_option_other,tu-lai-fo,0,201,201,101,1
5c5e3853de929b0001a4d683,63f3cfca20052e4ae7554ebf,6453ccae251b2c950963649b,2023-05-04_17h21.03.038,ga_syllabified_check,2022.2.5,Win32,60.0276127,,,,,,,,,,,,,,./stim/p06_syllable_1_pachialo_hit.wav,p06,pachialo,hit,pa-shi-a-lo,pa-chia-lo,pa-chi-a-lo, ,0.431481481,-0.103703704,1,0,0,1.0993,text_option_2,,0,202,202,126,1
5c5e3853de929b0001a4d683,63f3cfca20052e4ae7554ebf,6453ccae251b2c950963649b,2023-05-04_17h21.03.038,ga_syllabified_check,2022.2.5,Win32,60.0276127,,,,,,,,,,,,,,./stim/p08_syllable_1_manhiala_hit.wav,p08,mañiala,hit,ma-nhia-la,ma-ñia-la,ma-ñi-a-la, ,-0.355555556,-0.101851852,1,0,0,1.2328,text_option_1,,0,203,203,191,1
5c5e3853de929b0001a4d683,63f3cfca20052e4ae7554ebf,6453ccae251b2c950963649b,2023-05-04_17h21.03.038,ga_syllabified_check,2022.2.5,Win32,60.0276127,,,,,,,,,,,,,,,,,,,,,,,,,,,,,,,,,,
