participant,study,session,date,expName,psychopyVersion,OS,frameRate,mouse_practice.x,mouse_practice.y,mouse_practice.leftButton,mouse_practice.midButton,mouse_practice.rightButton,mouse_practice.time,mouse_practice.clicked_name,textbox_followup_practice.text,trials_practice.thisRepN,trials_practice.thisTrialN,trials_practice.thisN,trials_practice.thisIndex,trials_practice.ran,file_path,id,item,status,response,op1,op2,op3,mouse.x,mouse.y,mouse.leftButton,mouse.midButton,mouse.rightButton,mouse.time,mouse.clicked_name,textbox_followup.text,trials.thisRepN,trials.thisTrialN,trials.thisN,trials.thisIndex,trials.ran
5ca65510a0b6540012283c32,63f3cfca20052e4ae7554ebf,6453cbda2bcd6131c08316f8,2023-05-04_17h24.22.237,ga_syllabified_check,2022.2.5,Win32,12.00436959,,,,,,,,,,,,,,,,,,,,,,,,,,,,,,,,,,
5ca65510a0b6540012283c32,63f3cfca20052e4ae7554ebf,6453cbda2bcd6131c08316f8,2023-05-04_17h24.22.237,ga_syllabified_check,2022.2.5,Win32,12.00436959,-0.398148148,-0.099074116,1,0,0,4.7901,text_option_1_practice,,0,0,0,0,1,./stim/p03_syllable_1_liamo_hit.wav,p03,liamo,hit,lia-mo,lia-mo,li-a-mo, ,,,,,,,,,,,,,
5ca65510a0b6540012283c32,63f3cfca20052e4ae7554ebf,6453cbda2bcd6131c08316f8,2023-05-04_17h24.22.237,ga_syllabified_check,2022.2.5,Win32,12.00436959,-0.380555541,-0.10092594,1,0,0,5.6586,text_option_1_practice,,0,1,1,1,1,./stim/p05_syllable_1_matio_hit.wav,p05,matio,hit,ma-tio,ma-tio,ma-ti-o, ,,,,,,,,,,,,,
5ca65510a0b6540012283c32,63f3cfca20052e4ae7554ebf,6453cbda2bcd6131c08316f8,2023-05-04_17h24.22.237,ga_syllabified_check,2022.2.5,Win32,12.00436959,-0.400000007,-0.101851852,1,0,0,4.0011,text_option_1_practice,,0,2,2,2,1,./stim/p08_syllable_1_liamo_hit.wav,p08,liamo,hit,ja-mo,lia-mo,li-a-mo, ,,,,,,,,,,,,,
5ca65510a0b6540012283c32,63f3cfca20052e4ae7554ebf,6453cbda2bcd6131c08316f8,2023-05-04_17h24.22.237,ga_syllabified_check,2022.2.5,Win32,12.00436959,,,,,,,,,,,,,,,,,,,,,,,,,,,,,,,,,,
5ca65510a0b6540012283c32,63f3cfca20052e4ae7554ebf,6453cbda2bcd6131c08316f8,2023-05-04_17h24.22.237,ga_syllabified_check,2022.2.5,Win32,12.00436959,,,,,,,,,,,,,,./stim/p08_syllable_1_lakabuaisto_hit.wav,p08,lakabuaisto,hit,la-ka-bu-ais-to,la-ka-buais-to,la-ka-bu-ais-to,la-ka-bua-is-to,-0.317592586,-0.110185199,1,0,0,10.4081,text_option_1,,0,0,0,177,1
5ca65510a0b6540012283c32,63f3cfca20052e4ae7554ebf,6453cbda2bcd6131c08316f8,2023-05-04_17h24.22.237,ga_syllabified_check,2022.2.5,Win32,12.00436959,,,,,,,,,,,,,,./stim/p08_syllable_1_rausto_hit.wav,p08,rausto,hit,raus-to,raus-to,ra-us-to, ,-0.37037037,-0.103703746,1,0,0,3.813,text_option_1,,0,1,1,201,1
5ca65510a0b6540012283c32,63f3cfca20052e4ae7554ebf,6453cbda2bcd6131c08316f8,2023-05-04_17h24.22.237,ga_syllabified_check,2022.2.5,Win32,12.00436959,,,,,,,,,,,,,,./stim/p07_syllable_1_lakapuaisto_hit.wav,p07,lakapuaisto,hit,la-ka-puais-to,la-ka-puais-to,la-ka-pu-ais-to,la-ka-pua-is-to,-0.329629616,-0.100000028,1,0,0,4.3796,text_option_1,,0,2,2,153,1
5ca65510a0b6540012283c32,63f3cfca20052e4ae7554ebf,6453cbda2bcd6131c08316f8,2023-05-04_17h24.22.237,ga_syllabified_check,2022.2.5,Win32,12.00436959,,,,,,,,,,,,,,./stim/p06_syllable_1_palutrauco_hit.wav,p06,palutrauco,hit,pa-lu-tra-u-co,pa-lu-trau-co,pa-lu-tra-u-co, ,0.374074159,-0.107407393,1,0,0,5.2096,text_option_2,,0,3,3,131,1
5ca65510a0b6540012283c32,63f3cfca20052e4ae7554ebf,6453cbda2bcd6131c08316f8,2023-05-04_17h24.22.237,ga_syllabified_check,2022.2.5,Win32,12.00436959,,,,,,,,,,,,,,./stim/p04_syllable_1_lakapiaisto_hit.wav,p04,lakapiaisto,hit,la-ka-piais-to,la-ka-piais-to,la-ka-pi-ais-to,la-ka-pia-is-to,-0.299999979,-0.106481481,1,0,0,2.9946,text_option_1,,0,4,4,50,1
5ca65510a0b6540012283c32,63f3cfca20052e4ae7554ebf,6453cbda2bcd6131c08316f8,2023-05-04_17h24.22.237,ga_syllabified_check,2022.2.5,Win32,12.00436959,,,,,,,,,,,,,,./stim/p06_syllable_1_palufauto_hit.wav,p06,palufauto,hit,pa-lu-fau-to,pa-lu-fau-to,pa-lu-fa-u-to, ,-0.3675926,-0.102777764,1,0,0,4.3584,text_option_1,,0,5,5,128,1
5ca65510a0b6540012283c32,63f3cfca20052e4ae7554ebf,6453cbda2bcd6131c08316f8,2023-05-04_17h24.22.237,ga_syllabified_check,2022.2.5,Win32,12.00436959,,,,,,,,,,,,,,./stim/p06_syllable_1_mebochiana_hit.wav,p06,mebochiana,hit,me-bo-shi-a-na,me-bo-chia-na,me-bo-chi-a-na, ,0.413888861,-0.095370399,1,0,0,9.4355,text_option_2,,0,6,6,124,1
5ca65510a0b6540012283c32,63f3cfca20052e4ae7554ebf,6453cbda2bcd6131c08316f8,2023-05-04_17h24.22.237,ga_syllabified_check,2022.2.5,Win32,12.00436959,,,,,,,,,,,,,,./stim/p08_syllable_1_lakakuaisto_hit.wav,p08,lakakuaisto,hit,la-ka-ku-ais-to,la-ka-kuais-to,la-ka-ku-ais-to,la-ka-kua-is-to,0.442592621,-0.101851852,1,0,0,4.3716,text_option_2,,0,7,7,185,1
5ca65510a0b6540012283c32,63f3cfca20052e4ae7554ebf,6453cbda2bcd6131c08316f8,2023-05-04_17h24.22.237,ga_syllabified_check,2022.2.5,Win32,12.00436959,,,,,,,,,,,,,,./stim/p07_syllable_1_lakadiaisto_hit.wav,p07,lakadiaisto,hit,la-ka-dia-is-to,la-ka-diais-to,la-ka-di-ais-to,la-ka-dia-is-to,0.060185185,-0.109259288,1,0,0,3.703,text_option_3,,0,8,8,144,1
5ca65510a0b6540012283c32,63f3cfca20052e4ae7554ebf,6453cbda2bcd6131c08316f8,2023-05-04_17h24.22.237,ga_syllabified_check,2022.2.5,Win32,12.00436959,,,,,,,,,,,,,,./stim/p07_syllable_1_lakatiaisto_hit.wav,p07,lakatiaisto,hit,la-ka-tiai-sto,la-ka-tiais-to,la-ka-ti-ais-to,la-ka-tia-is-to,-0.355555534,-0.107407393,1,0,0,9.2264,text_option_1,,0,9,9,154,1
5ca65510a0b6540012283c32,63f3cfca20052e4ae7554ebf,6453cbda2bcd6131c08316f8,2023-05-04_17h24.22.237,ga_syllabified_check,2022.2.5,Win32,12.00436959,,,,,,,,,,,,,,./stim/p03_syllable_1_lakafiaisto_hit.wav,p03,lakafiaisto,hit,la-ka-fiais-to,la-ka-fiais-to,la-ka-fi-ais-to,la-ka-fia-is-to,-0.338888875,-0.108333376,1,0,0,2.8153,text_option_1,,0,10,10,10,1
5ca65510a0b6540012283c32,63f3cfca20052e4ae7554ebf,6453cbda2bcd6131c08316f8,2023-05-04_17h24.22.237,ga_syllabified_check,2022.2.5,Win32,12.00436959,,,,,,,,,,,,,,./stim/p07_syllable_1_payielo_hit.wav,p07,payielo,hit,pa-yie-lo,pa-yie-lo,pa-yi-e-lo, ,-0.3824074,-0.104629658,1,0,0,2.2156,text_option_1,,0,11,11,166,1
5ca65510a0b6540012283c32,63f3cfca20052e4ae7554ebf,6453cbda2bcd6131c08316f8,2023-05-04_17h24.22.237,ga_syllabified_check,2022.2.5,Win32,12.00436959,,,,,,,,,,,,,,./stim/p07_syllable_1_palufauro_hit.wav,p07,palufauro,hit,pa-lu-fau-ro,pa-lu-fau-ro,pa-lu-fa-u-ro, ,-0.397222201,-0.102777764,1,0,0,2.4521,text_option_1,,0,12,12,161,1
5ca65510a0b6540012283c32,63f3cfca20052e4ae7554ebf,6453cbda2bcd6131c08316f8,2023-05-04_17h24.22.237,ga_syllabified_check,2022.2.5,Win32,12.00436959,,,,,,,,,,,,,,./stim/p04_syllable_1_faluduako_hit.wav,p04,faluduako,hit,fa-lu-dua-ko,fa-lu-dua-ko,fa-lu-du-a-ko, ,-0.357407393,-0.102777764,1,0,0,2.5935,text_option_1,,0,13,13,36,1
5ca65510a0b6540012283c32,63f3cfca20052e4ae7554ebf,6453cbda2bcd6131c08316f8,2023-05-04_17h24.22.237,ga_syllabified_check,2022.2.5,Win32,12.00436959,,,,,,,,,,,,,,./stim/p08_syllable_1_lakaguaisto_hit.wav,p08,lakaguaisto,hit,la-ka-gu-ais-to,la-ka-guais-to,la-ka-gu-ais-to,la-ka-gua-is-to,0.410185213,-0.111111111,1,0,0,6.6512,text_option_2,,0,14,14,183,1
5ca65510a0b6540012283c32,63f3cfca20052e4ae7554ebf,6453cbda2bcd6131c08316f8,2023-05-04_17h24.22.237,ga_syllabified_check,2022.2.5,Win32,12.00436959,,,,,,,,,,,,,,./stim/p03_syllable_1_falufaisto_hit.wav,p03,falufaisto,hit,fa-lu-fais-to,fa-lu-fais-to,fa-lu-fa-is-to, ,-0.37962963,-0.104629658,1,0,0,3.5474,text_option_1,,0,15,15,3,1
5ca65510a0b6540012283c32,63f3cfca20052e4ae7554ebf,6453cbda2bcd6131c08316f8,2023-05-04_17h24.22.237,ga_syllabified_check,2022.2.5,Win32,12.00436959,,,,,,,,,,,,,,./stim/p07_syllable_1_pachialo_hit.wav,p07,pachialo,hit,pa-cha-lo,pa-chia-lo,pa-chi-a-lo, ,-0.347222222,-0.10092594,1,0,0,5.3466,text_option_1,,0,16,16,160,1
5ca65510a0b6540012283c32,63f3cfca20052e4ae7554ebf,6453cbda2bcd6131c08316f8,2023-05-04_17h24.22.237,ga_syllabified_check,2022.2.5,Win32,12.00436959,,,,,,,,,,,,,,./stim/p05_syllable_1_lakaguaisto_hit.wav,p05,lakaguaisto,hit,la-ka-gais,la-ka-guais-to,la-ka-gu-ais-to,la-ka-gua-is-to,-0.080555527,-0.304629644,1,0,0,6.0234,text_option_other,la-ka-gais-to,0,17,17,81,1
5ca65510a0b6540012283c32,63f3cfca20052e4ae7554ebf,6453cbda2bcd6131c08316f8,2023-05-04_17h24.22.237,ga_syllabified_check,2022.2.5,Win32,12.00436959,,,,,,,,,,,,,,./stim/p05_syllable_1_faluduako_hit.wav,p05,faluduako,hit,fa-lu-ba-ko,fa-lu-dua-ko,fa-lu-du-a-ko, ,-0.012962977,-0.30740745,1,0,0,7.7089,text_option_other,fa-lu-pa-ko,0,18,18,70,1
5ca65510a0b6540012283c32,63f3cfca20052e4ae7554ebf,6453cbda2bcd6131c08316f8,2023-05-04_17h24.22.237,ga_syllabified_check,2022.2.5,Win32,12.00436959,,,,,,,,,,,,,,./stim/p08_syllable_1_falufaisto_hit.wav,p08,falufaisto,hit,fa-lu-fais-to,fa-lu-fais-to,fa-lu-fa-is-to, ,-0.3675926,-0.100000028,1,0,0,3.2202,text_option_1,,0,19,19,173,1
5ca65510a0b6540012283c32,63f3cfca20052e4ae7554ebf,6453cbda2bcd6131c08316f8,2023-05-04_17h24.22.237,ga_syllabified_check,2022.2.5,Win32,12.00436959,,,,,,,,,,,,,,./stim/p08_syllable_1_lakadiaisto_hit.wav,p08,lakadiaisto,hit,la-ka-di-jas-to,la-ka-diais-to,la-ka-di-ais-to,la-ka-dia-is-to,0.026851866,-0.107407393,1,0,0,6.5267,text_option_3,,0,20,20,178,1
5ca65510a0b6540012283c32,63f3cfca20052e4ae7554ebf,6453cbda2bcd6131c08316f8,2023-05-04_17h24.22.237,ga_syllabified_check,2022.2.5,Win32,12.00436959,,,,,,,,,,,,,,./stim/p04_syllable_1_falutraigo_hit.wav,p04,falutraigo,hit,fa-lu-trai-go,fa-lu-trai-go,fa-lu-tra-i-go, ,-0.35833334,-0.10092594,1,0,0,2.1904,text_option_1,,0,21,21,38,1
5ca65510a0b6540012283c32,63f3cfca20052e4ae7554ebf,6453cbda2bcd6131c08316f8,2023-05-04_17h24.22.237,ga_syllabified_check,2022.2.5,Win32,12.00436959,,,,,,,,,,,,,,./stim/p08_syllable_1_ruyiola_hit.wav,p08,ruyiola,hit,ru-yio-la,ru-yio-la,ru-yi-o-la, ,-0.385185171,-0.104629658,1,0,0,4.4097,text_option_1,,0,22,22,202,1
5ca65510a0b6540012283c32,63f3cfca20052e4ae7554ebf,6453cbda2bcd6131c08316f8,2023-05-04_17h24.22.237,ga_syllabified_check,2022.2.5,Win32,12.00436959,,,,,,,,,,,,,,./stim/p05_syllable_1_lakaduaisto_hit.wav,p05,lakaduaisto,hit,la-ka-dais-to,la-ka-duais-to,la-ka-du-ais-to,la-ka-dua-is-to,0.049074102,-0.303703732,1,0,0,8.6137,text_option_other,la-ka-dais-to,0,23,23,77,1
5ca65510a0b6540012283c32,63f3cfca20052e4ae7554ebf,6453cbda2bcd6131c08316f8,2023-05-04_17h24.22.237,ga_syllabified_check,2022.2.5,Win32,12.00436959,,,,,,,,,,,,,,./stim/p08_syllable_1_mebochiana_hit.wav,p08,mebochiana,hit,me-bo-chi-a-na,me-bo-chia-na,me-bo-chi-a-na, ,0.386111083,-0.100000028,1,0,0,4.3735,text_option_2,,0,24,24,192,1
5ca65510a0b6540012283c32,63f3cfca20052e4ae7554ebf,6453cbda2bcd6131c08316f8,2023-05-04_17h24.22.237,ga_syllabified_check,2022.2.5,Win32,12.00436959,,,,,,,,,,,,,,./stim/p06_syllable_1_rausto_hit.wav,p06,rausto,hit,ra-us-to,raus-to,ra-us-to, ,0.399999972,-0.103703746,1,0,0,2.6845,text_option_2,,0,25,25,133,1
5ca65510a0b6540012283c32,63f3cfca20052e4ae7554ebf,6453cbda2bcd6131c08316f8,2023-05-04_17h24.22.237,ga_syllabified_check,2022.2.5,Win32,12.00436959,,,,,,,,,,,,,,./stim/p03_syllable_1_faluduako_hit.wav,p03,faluduako,hit,fa-lu-dua-ko,fa-lu-dua-ko,fa-lu-du-a-ko, ,-0.349999993,-0.108333376,1,0,0,44.8298,text_option_1,,0,26,26,2,1
5ca65510a0b6540012283c32,63f3cfca20052e4ae7554ebf,6453cbda2bcd6131c08316f8,2023-05-04_17h24.22.237,ga_syllabified_check,2022.2.5,Win32,12.00436959,,,,,,,,,,,,,,./stim/p04_syllable_1_lakakuaisto_hit.wav,p04,lakakuaisto,hit,la-ka-kuais-to,la-ka-kuais-to,la-ka-ku-ais-to,la-ka-kua-is-to,-0.363888882,-0.099074116,1,0,0,2.7431,text_option_1,,0,27,27,49,1
5ca65510a0b6540012283c32,63f3cfca20052e4ae7554ebf,6453cbda2bcd6131c08316f8,2023-05-04_17h24.22.237,ga_syllabified_check,2022.2.5,Win32,12.00436959,,,,,,,,,,,,,,./stim/p07_syllable_1_lliape_hit.wav,p07,lliape,hit,lliai-pe,llia-pe,lli-a-pe, ,-0.371296282,-0.106481481,1,0,0,3.2821,text_option_1,,0,28,28,156,1
5ca65510a0b6540012283c32,63f3cfca20052e4ae7554ebf,6453cbda2bcd6131c08316f8,2023-05-04_17h24.22.237,ga_syllabified_check,2022.2.5,Win32,12.00436959,,,,,,,,,,,,,,./stim/p06_syllable_1_lliape_hit.wav,p06,lliape,hit,lli-lla-pe,llia-pe,lli-a-pe, ,0.410185213,-0.101851852,1,0,0,3.4662,text_option_2,,0,29,29,122,1
5ca65510a0b6540012283c32,63f3cfca20052e4ae7554ebf,6453cbda2bcd6131c08316f8,2023-05-04_17h24.22.237,ga_syllabified_check,2022.2.5,Win32,12.00436959,,,,,,,,,,,,,,./stim/p05_syllable_1_lakapiaisto_hit.wav,p05,lakapiaisto,hit,la-ka-pais-to,la-ka-piais-to,la-ka-pi-ais-to,la-ka-pia-is-to,0.050925926,-0.30277782,1,0,0,4.2656,text_option_other,la-ka-pais-to,0,30,30,84,1
5ca65510a0b6540012283c32,63f3cfca20052e4ae7554ebf,6453cbda2bcd6131c08316f8,2023-05-04_17h24.22.237,ga_syllabified_check,2022.2.5,Win32,12.00436959,,,,,,,,,,,,,,./stim/p07_syllable_1_mebochiana_hit.wav,p07,mebochiana,hit,me-bo-chia-na,me-bo-chia-na,me-bo-chi-a-na, ,-0.359259252,-0.103703746,1,0,0,4.2645,text_option_1,,0,31,31,158,1
5ca65510a0b6540012283c32,63f3cfca20052e4ae7554ebf,6453cbda2bcd6131c08316f8,2023-05-04_17h24.22.237,ga_syllabified_check,2022.2.5,Win32,12.00436959,,,,,,,,,,,,,,./stim/p07_syllable_1_lakakiaisto_hit.wav,p07,lakakiaisto,hit,la-ka-kais-to,la-ka-kiais-to,la-ka-ki-ais-to,la-ka-kia-is-to,-0.050000014,-0.311111097,1,0,0,4.4948,text_option_other,la-ka-kais-to,0,32,32,150,1
5ca65510a0b6540012283c32,63f3cfca20052e4ae7554ebf,6453cbda2bcd6131c08316f8,2023-05-04_17h24.22.237,ga_syllabified_check,2022.2.5,Win32,12.00436959,,,,,,,,,,,,,,./stim/p03_syllable_1_tuliafo_hit.wav,p03,tuliafo,hit,tu-lia-fo,tu-lia-fo,tu-li-a-fo, ,-0.381481489,-0.110185199,1,0,0,1.7519,text_option_1,,0,33,33,33,1
5ca65510a0b6540012283c32,63f3cfca20052e4ae7554ebf,6453cbda2bcd6131c08316f8,2023-05-04_17h24.22.237,ga_syllabified_check,2022.2.5,Win32,12.00436959,,,,,,,,,,,,,,./stim/p08_syllable_1_falutraigo_hit.wav,p08,falutraigo,hit,fa-lu-trai-go,fa-lu-trai-go,fa-lu-tra-i-go, ,-0.372222229,-0.095370399,1,0,0,2.6474,text_option_1,,0,34,34,174,1
5ca65510a0b6540012283c32,63f3cfca20052e4ae7554ebf,6453cbda2bcd6131c08316f8,2023-05-04_17h24.22.237,ga_syllabified_check,2022.2.5,Win32,12.00436959,,,,,,,,,,,,,,./stim/p05_syllable_1_chiaba_hit.wav,p05,chiaba,hit,chia-ba,chia-ba,chi-a-ba, ,-0.040740755,-0.297222208,1,0,0,3.9012,text_option_other,chai-ba,0,35,35,68,1
5ca65510a0b6540012283c32,63f3cfca20052e4ae7554ebf,6453cbda2bcd6131c08316f8,2023-05-04_17h24.22.237,ga_syllabified_check,2022.2.5,Win32,12.00436959,,,,,,,,,,,,,,./stim/p04_syllable_1_nhiape_hit.wav,p04,ñiape,hit,nhia-pe,ñia-pe,ñi-a-pe, ,-0.381481489,-0.104629658,1,0,0,3.0867,text_option_1,,0,36,36,57,1
5ca65510a0b6540012283c32,63f3cfca20052e4ae7554ebf,6453cbda2bcd6131c08316f8,2023-05-04_17h24.22.237,ga_syllabified_check,2022.2.5,Win32,12.00436959,,,,,,,,,,,,,,./stim/p05_syllable_1_lakatuaisto_hit.wav,p05,lakatuaisto,hit,la-ka-tais-to,la-ka-tuais-to,la-ka-tu-ais-to,la-ka-tua-is-to,-0.030555513,-0.308333362,1,0,0,4.0765,text_option_other,la-ka-tais-to,0,37,37,87,1
5ca65510a0b6540012283c32,63f3cfca20052e4ae7554ebf,6453cbda2bcd6131c08316f8,2023-05-04_17h24.22.237,ga_syllabified_check,2022.2.5,Win32,12.00436959,,,,,,,,,,,,,,./stim/p08_syllable_1_lakakiaisto_hit.wav,p08,lakakiaisto,hit,la-ka-ki-jas-to,la-ka-kiais-to,la-ka-ki-ais-to,la-ka-kia-is-to,0.006481524,-0.305555556,1,0,0,4.7296,text_option_other,la-ka-kias-to,0,38,38,184,1
5ca65510a0b6540012283c32,63f3cfca20052e4ae7554ebf,6453cbda2bcd6131c08316f8,2023-05-04_17h24.22.237,ga_syllabified_check,2022.2.5,Win32,12.00436959,,,,,,,,,,,,,,./stim/p07_syllable_1_palutrauco_hit.wav,p07,palutrauco,hit,pa-lu-trau-co,pa-lu-trau-co,pa-lu-tra-u-co, ,-0.338888875,-0.10555557,1,0,0,1.8053,text_option_1,,0,39,39,165,1
5ca65510a0b6540012283c32,63f3cfca20052e4ae7554ebf,6453cbda2bcd6131c08316f8,2023-05-04_17h24.22.237,ga_syllabified_check,2022.2.5,Win32,12.00436959,,,,,,,,,,,,,,./stim/p07_syllable_1_faluduako_hit.wav,p07,faluduako,hit,fa-lu-dua-ko,fa-lu-dua-ko,fa-lu-du-a-ko, ,-0.320370356,-0.103703746,1,0,0,2.5732,text_option_1,,0,40,40,138,1
5ca65510a0b6540012283c32,63f3cfca20052e4ae7554ebf,6453cbda2bcd6131c08316f8,2023-05-04_17h24.22.237,ga_syllabified_check,2022.2.5,Win32,12.00436959,,,,,,,,,,,,,,./stim/p04_syllable_1_palufauto_hit.wav,p04,palufauto,hit,pa-lu-fau-to,pa-lu-fau-to,pa-lu-fa-u-to, ,-0.320370356,-0.103703746,1,0,0,1.5628,text_option_1,,0,41,41,60,1
5ca65510a0b6540012283c32,63f3cfca20052e4ae7554ebf,6453cbda2bcd6131c08316f8,2023-05-04_17h24.22.237,ga_syllabified_check,2022.2.5,Win32,12.00436959,,,,,,,,,,,,,,./stim/p03_syllable_1_payielo_hit.wav,p03,payielo,hit,pa-yie-lo,pa-yie-lo,pa-yi-e-lo, ,-0.320370356,-0.103703746,1,0,0,2.1592,text_option_1,,0,42,42,30,1
5ca65510a0b6540012283c32,63f3cfca20052e4ae7554ebf,6453cbda2bcd6131c08316f8,2023-05-04_17h24.22.237,ga_syllabified_check,2022.2.5,Win32,12.00436959,,,,,,,,,,,,,,./stim/p03_syllable_1_lakagiaisto_hit.wav,p03,lakagiaisto,hit,la-ka-giais-to,la-ka-giais-to,la-ka-gi-ais-to,la-ka-gia-is-to,-0.320370356,-0.103703746,1,0,0,2.4172,text_option_1,,0,43,43,12,1
5ca65510a0b6540012283c32,63f3cfca20052e4ae7554ebf,6453cbda2bcd6131c08316f8,2023-05-04_17h24.22.237,ga_syllabified_check,2022.2.5,Win32,12.00436959,,,,,,,,,,,,,,./stim/p04_syllable_1_flauro_hit.wav,p04,flauro,hit,flau-ro,flau-ro,fla-u-ro, ,-0.374074053,-0.104629658,1,0,0,1.8302,text_option_1,,0,44,44,39,1
5ca65510a0b6540012283c32,63f3cfca20052e4ae7554ebf,6453cbda2bcd6131c08316f8,2023-05-04_17h24.22.237,ga_syllabified_check,2022.2.5,Win32,12.00436959,,,,,,,,,,,,,,./stim/p06_syllable_1_lakakiaisto_hit.wav,p06,lakakiaisto,hit,la-ka-kia-is-to,la-ka-kiais-to,la-ka-ki-ais-to,la-ka-kia-is-to,0.022222236,-0.101851852,1,0,0,5.2181,text_option_3,,0,45,45,116,1
5ca65510a0b6540012283c32,63f3cfca20052e4ae7554ebf,6453cbda2bcd6131c08316f8,2023-05-04_17h24.22.237,ga_syllabified_check,2022.2.5,Win32,12.00436959,,,,,,,,,,,,,,./stim/p03_syllable_1_ruyiola_hit.wav,p03,ruyiola,hit,ru-yio-la,ru-yio-la,ru-yi-o-la, ,-0.352777764,-0.097222222,1,0,0,2.4332,text_option_1,,0,46,46,32,1
5ca65510a0b6540012283c32,63f3cfca20052e4ae7554ebf,6453cbda2bcd6131c08316f8,2023-05-04_17h24.22.237,ga_syllabified_check,2022.2.5,Win32,12.00436959,,,,,,,,,,,,,,./stim/p05_syllable_1_lakatiaisto_hit.wav,p05,lakatiaisto,hit,la-ka-ti-ais-to,la-ka-tiais-to,la-ka-ti-ais-to,la-ka-tia-is-to,-0.306481467,-0.098148134,1,0,0,2.8919,text_option_1,,0,47,47,86,1
5ca65510a0b6540012283c32,63f3cfca20052e4ae7554ebf,6453cbda2bcd6131c08316f8,2023-05-04_17h24.22.237,ga_syllabified_check,2022.2.5,Win32,12.00436959,,,,,,,,,,,,,,./stim/p03_syllable_1_lakapuaisto_hit.wav,p03,lakapuaisto,hit,la-ka-puais-to,la-ka-puais-to,la-ka-pu-ais-to,la-ka-pua-is-to,-0.356481481,-0.098148134,1,0,0,1.9364,text_option_1,,0,48,48,17,1
5ca65510a0b6540012283c32,63f3cfca20052e4ae7554ebf,6453cbda2bcd6131c08316f8,2023-05-04_17h24.22.237,ga_syllabified_check,2022.2.5,Win32,12.00436959,,,,,,,,,,,,,,./stim/p06_syllable_1_lakafiaisto_hit.wav,p06,lakafiaisto,hit,la-ka-fia-is-to,la-ka-fiais-to,la-ka-fi-ais-to,la-ka-fia-is-to,0.056481467,-0.103703746,1,0,0,3.9099,text_option_3,,0,49,49,112,1
5ca65510a0b6540012283c32,63f3cfca20052e4ae7554ebf,6453cbda2bcd6131c08316f8,2023-05-04_17h24.22.237,ga_syllabified_check,2022.2.5,Win32,12.00436959,,,,,,,,,,,,,,./stim/p03_syllable_1_costonhialo_hit.wav,p03,costoñialo,hit,cos-to-nhia-lo,cos-to-ñia-lo,cos-to-ñi-a-lo, ,-0.351851852,-0.102777764,1,0,0,2.7908,text_option_1,,0,50,50,1,1
5ca65510a0b6540012283c32,63f3cfca20052e4ae7554ebf,6453cbda2bcd6131c08316f8,2023-05-04_17h24.22.237,ga_syllabified_check,2022.2.5,Win32,12.00436959,,,,,,,,,,,,,,./stim/p04_syllable_1_lakadiaisto_hit.wav,p04,lakadiaisto,hit,la-ka-dias-to,la-ka-diais-to,la-ka-di-ais-to,la-ka-dia-is-to,-0.343518504,-0.103703746,1,0,0,1.6146,text_option_1,,0,51,51,42,1
5ca65510a0b6540012283c32,63f3cfca20052e4ae7554ebf,6453cbda2bcd6131c08316f8,2023-05-04_17h24.22.237,ga_syllabified_check,2022.2.5,Win32,12.00436959,,,,,,,,,,,,,,./stim/p07_syllable_1_lakabuaisto_hit.wav,p07,lakabuaisto,hit,la-ka-buais-to,la-ka-buais-to,la-ka-bu-ais-to,la-ka-bua-is-to,-0.373148141,-0.102777764,1,0,0,2.9429,text_option_1,,0,52,52,143,1
5ca65510a0b6540012283c32,63f3cfca20052e4ae7554ebf,6453cbda2bcd6131c08316f8,2023-05-04_17h24.22.237,ga_syllabified_check,2022.2.5,Win32,12.00436959,,,,,,,,,,,,,,./stim/p06_syllable_1_falufaisto_hit.wav,p06,falufaisto,hit,fa-lu-fa-is-to,fa-lu-fais-to,fa-lu-fa-is-to, ,0.392592677,-0.102777764,1,0,0,3.8856,text_option_2,,0,53,53,105,1
5ca65510a0b6540012283c32,63f3cfca20052e4ae7554ebf,6453cbda2bcd6131c08316f8,2023-05-04_17h24.22.237,ga_syllabified_check,2022.2.5,Win32,12.00436959,,,,,,,,,,,,,,./stim/p03_syllable_1_pachialo_hit.wav,p03,pachialo,hit,pa-chia-lo,pa-chia-lo,pa-chi-a-lo, ,-0.390740748,-0.10092594,1,0,0,2.3004,text_option_1,,0,54,54,24,1
5ca65510a0b6540012283c32,63f3cfca20052e4ae7554ebf,6453cbda2bcd6131c08316f8,2023-05-04_17h24.22.237,ga_syllabified_check,2022.2.5,Win32,12.00436959,,,,,,,,,,,,,,./stim/p04_syllable_1_lakafiaisto_hit.wav,p04,lakafiaisto,hit,la-ka-fiais-to,la-ka-fiais-to,la-ka-fi-ais-to,la-ka-fia-is-to,-0.36296297,-0.103703746,1,0,0,1.8334,text_option_1,,0,55,55,44,1
5ca65510a0b6540012283c32,63f3cfca20052e4ae7554ebf,6453cbda2bcd6131c08316f8,2023-05-04_17h24.22.237,ga_syllabified_check,2022.2.5,Win32,12.00436959,,,,,,,,,,,,,,./stim/p06_syllable_1_costonhialo_hit.wav,p06,costoñialo,hit,cos-to-nhia-lo,cos-to-ñia-lo,cos-to-ñi-a-lo, ,-0.351851852,-0.100000028,1,0,0,3.2501,text_option_1,,0,56,56,103,1
5ca65510a0b6540012283c32,63f3cfca20052e4ae7554ebf,6453cbda2bcd6131c08316f8,2023-05-04_17h24.22.237,ga_syllabified_check,2022.2.5,Win32,12.00436959,,,,,,,,,,,,,,./stim/p04_syllable_1_manhiala_hit.wav,p04,mañiala,hit,ma-nhia-la,ma-ñia-la,ma-ñi-a-la, ,-0.37037037,-0.101851852,1,0,0,1.5974,text_option_1,,0,57,57,55,1
5ca65510a0b6540012283c32,63f3cfca20052e4ae7554ebf,6453cbda2bcd6131c08316f8,2023-05-04_17h24.22.237,ga_syllabified_check,2022.2.5,Win32,12.00436959,,,,,,,,,,,,,,./stim/p03_syllable_1_rausto_hit.wav,p03,rausto,hit,raus-to,raus-to,ra-us-to, ,-0.380555541,-0.10555557,1,0,0,1.4687,text_option_1,,0,58,58,31,1
5ca65510a0b6540012283c32,63f3cfca20052e4ae7554ebf,6453cbda2bcd6131c08316f8,2023-05-04_17h24.22.237,ga_syllabified_check,2022.2.5,Win32,12.00436959,,,,,,,,,,,,,,./stim/p08_syllable_1_lakapuaisto_hit.wav,p08,lakapuaisto,hit,la-ka-pu-as-to,la-ka-puais-to,la-ka-pu-ais-to,la-ka-pua-is-to,-0.000925912,-0.300000014,1,0,0,5.5401,text_option_other,la-ka-puas-to,0,59,59,187,1
5ca65510a0b6540012283c32,63f3cfca20052e4ae7554ebf,6453cbda2bcd6131c08316f8,2023-05-04_17h24.22.237,ga_syllabified_check,2022.2.5,Win32,12.00436959,,,,,,,,,,,,,,./stim/p06_syllable_1_lakatuaisto_hit.wav,p06,lakatuaisto,hit,la-ka-tu-a-is,la-ka-tuais-to,la-ka-tu-ais-to,la-ka-tua-is-to,0.030555584,-0.106481481,1,0,0,5.855,text_option_3,,0,60,60,121,1
5ca65510a0b6540012283c32,63f3cfca20052e4ae7554ebf,6453cbda2bcd6131c08316f8,2023-05-04_17h24.22.237,ga_syllabified_check,2022.2.5,Win32,12.00436959,,,,,,,,,,,,,,./stim/p07_syllable_1_paluguato_hit.wav,p07,paluguato,hit,pa-lu-gua-to,pa-lu-gua-to,pa-lu-gu-a-to, ,-0.329629616,-0.102777764,1,0,0,2.4717,text_option_1,,0,61,61,163,1
5ca65510a0b6540012283c32,63f3cfca20052e4ae7554ebf,6453cbda2bcd6131c08316f8,2023-05-04_17h24.22.237,ga_syllabified_check,2022.2.5,Win32,12.00436959,,,,,,,,,,,,,,./stim/p04_syllable_1_lakafuaisto_hit.wav,p04,lakafuaisto,hit,la-ka-fuais-to,la-ka-fuais-to,la-ka-fu-ais-to,la-ka-fua-is-to,-0.329629616,-0.100000028,1,0,0,1.2523,text_option_1,,0,62,62,45,1
5ca65510a0b6540012283c32,63f3cfca20052e4ae7554ebf,6453cbda2bcd6131c08316f8,2023-05-04_17h24.22.237,ga_syllabified_check,2022.2.5,Win32,12.00436959,,,,,,,,,,,,,,./stim/p08_syllable_1_palufauto_hit.wav,p08,palufauto,hit,pa-lu-fau-to,pa-lu-fau-to,pa-lu-fa-u-to, ,-0.334259245,-0.103703746,1,0,0,3.1631,text_option_1,,0,63,63,196,1
5ca65510a0b6540012283c32,63f3cfca20052e4ae7554ebf,6453cbda2bcd6131c08316f8,2023-05-04_17h24.22.237,ga_syllabified_check,2022.2.5,Win32,12.00436959,,,,,,,,,,,,,,./stim/p05_syllable_1_manhiala_hit.wav,p05,mañiala,hit,ma-nhia-la,ma-ñia-la,ma-ñi-a-la, ,-0.341666645,-0.10555557,1,0,0,1.8389,text_option_1,,0,64,64,89,1
5ca65510a0b6540012283c32,63f3cfca20052e4ae7554ebf,6453cbda2bcd6131c08316f8,2023-05-04_17h24.22.237,ga_syllabified_check,2022.2.5,Win32,12.00436959,,,,,,,,,,,,,,./stim/p06_syllable_1_flauro_hit.wav,p06,flauro,hit,fla-u-ro,flau-ro,fla-u-ro, ,0.395370342,-0.108333376,1,0,0,2.7172,text_option_2,,0,65,65,107,1
5ca65510a0b6540012283c32,63f3cfca20052e4ae7554ebf,6453cbda2bcd6131c08316f8,2023-05-04_17h24.22.237,ga_syllabified_check,2022.2.5,Win32,12.00436959,,,,,,,,,,,,,,./stim/p08_syllable_1_chiaba_hit.wav,p08,chiaba,hit,chi-a-ba,chia-ba,chi-a-ba, ,0.40370376,-0.103703746,1,0,0,1.5915,text_option_2,,0,66,66,170,1
5ca65510a0b6540012283c32,63f3cfca20052e4ae7554ebf,6453cbda2bcd6131c08316f8,2023-05-04_17h24.22.237,ga_syllabified_check,2022.2.5,Win32,12.00436959,,,,,,,,,,,,,,./stim/p03_syllable_1_chiaba_hit.wav,p03,chiaba,hit,chia-ba,chia-ba,chi-a-ba, ,-0.404629637,-0.10555557,1,0,0,1.3541,text_option_1,,0,67,67,0,1
5ca65510a0b6540012283c32,63f3cfca20052e4ae7554ebf,6453cbda2bcd6131c08316f8,2023-05-04_17h24.22.237,ga_syllabified_check,2022.2.5,Win32,12.00436959,,,,,,,,,,,,,,./stim/p03_syllable_1_lakabiaisto_hit.wav,p03,lakabiaisto,hit,la-ka-biais-to,la-ka-biais-to,la-ka-bi-ais-to,la-ka-bia-is-to,-0.374074053,-0.10092594,1,0,0,1.7279,text_option_1,,0,68,68,6,1
5ca65510a0b6540012283c32,63f3cfca20052e4ae7554ebf,6453cbda2bcd6131c08316f8,2023-05-04_17h24.22.237,ga_syllabified_check,2022.2.5,Win32,12.00436959,,,,,,,,,,,,,,./stim/p06_syllable_1_falutraigo_hit.wav,p06,falutraigo,hit,fa-lu-tra-i-go,fa-lu-trai-go,fa-lu-tra-i-go, ,0.436111168,-0.10092594,1,0,0,4.6787,text_option_2,,0,69,69,106,1
5ca65510a0b6540012283c32,63f3cfca20052e4ae7554ebf,6453cbda2bcd6131c08316f8,2023-05-04_17h24.22.237,ga_syllabified_check,2022.2.5,Win32,12.00436959,,,,,,,,,,,,,,./stim/p05_syllable_1_flauro_hit.wav,p05,flauro,hit,fa-lu-ro,flau-ro,fla-u-ro, ,-0.017592607,-0.306481467,1,0,0,3.7384,text_option_other,fa-lu-ro,0,70,70,73,1
5ca65510a0b6540012283c32,63f3cfca20052e4ae7554ebf,6453cbda2bcd6131c08316f8,2023-05-04_17h24.22.237,ga_syllabified_check,2022.2.5,Win32,12.00436959,,,,,,,,,,,,,,./stim/p08_syllable_1_lakafiaisto_hit.wav,p08,lakafiaisto,hit,la-ka-fi-as-to,la-ka-fiais-to,la-ka-fi-ais-to,la-ka-fia-is-to,-0.015740712,-0.311111097,1,0,0,5.5958,text_option_other,la-ka-fias-to,0,71,71,180,1
5ca65510a0b6540012283c32,63f3cfca20052e4ae7554ebf,6453cbda2bcd6131c08316f8,2023-05-04_17h24.22.237,ga_syllabified_check,2022.2.5,Win32,12.00436959,,,,,,,,,,,,,,./stim/p04_syllable_1_chiaba_hit.wav,p04,chiaba,hit,chia-ba,chia-ba,chi-a-ba, ,-0.364814794,-0.103703746,1,0,0,1.4994,text_option_1,,0,72,72,34,1
5ca65510a0b6540012283c32,63f3cfca20052e4ae7554ebf,6453cbda2bcd6131c08316f8,2023-05-04_17h24.22.237,ga_syllabified_check,2022.2.5,Win32,12.00436959,,,,,,,,,,,,,,./stim/p08_syllable_1_flauro_hit.wav,p08,flauro,hit,flau-ro,flau-ro,fla-u-ro, ,-0.385185171,-0.099074116,1,0,0,3.5454,text_option_1,,0,73,73,175,1
5ca65510a0b6540012283c32,63f3cfca20052e4ae7554ebf,6453cbda2bcd6131c08316f8,2023-05-04_17h24.22.237,ga_syllabified_check,2022.2.5,Win32,12.00436959,,,,,,,,,,,,,,./stim/p07_syllable_1_chiaba_hit.wav,p07,chiaba,hit,chia-ba,chia-ba,chi-a-ba, ,-0.400925919,-0.101851852,1,0,0,1.361,text_option_1,,0,74,74,136,1
5ca65510a0b6540012283c32,63f3cfca20052e4ae7554ebf,6453cbda2bcd6131c08316f8,2023-05-04_17h24.22.237,ga_syllabified_check,2022.2.5,Win32,12.00436959,,,,,,,,,,,,,,./stim/p04_syllable_1_lakakiaisto_hit.wav,p04,lakakiaisto,hit,la-ka-kiais-to,la-ka-kiais-to,la-ka-ki-ais-to,la-ka-kia-is-to,-0.360185164,-0.106481481,1,0,0,2.2502,text_option_1,,0,75,75,48,1
5ca65510a0b6540012283c32,63f3cfca20052e4ae7554ebf,6453cbda2bcd6131c08316f8,2023-05-04_17h24.22.237,ga_syllabified_check,2022.2.5,Win32,12.00436959,,,,,,,,,,,,,,./stim/p04_syllable_1_payielo_hit.wav,p04,payielo,hit,pa-yie-lo,pa-yie-lo,pa-yi-e-lo, ,-0.36296297,-0.108333376,1,0,0,1.3638,text_option_1,,0,76,76,64,1
5ca65510a0b6540012283c32,63f3cfca20052e4ae7554ebf,6453cbda2bcd6131c08316f8,2023-05-04_17h24.22.237,ga_syllabified_check,2022.2.5,Win32,12.00436959,,,,,,,,,,,,,,./stim/p05_syllable_1_pachialo_hit.wav,p05,pachialo,hit,pan-chia-lo,pa-chia-lo,pa-chi-a-lo, ,-0.400000007,-0.106481481,1,0,0,7.1931,text_option_1,,0,77,77,92,1
5ca65510a0b6540012283c32,63f3cfca20052e4ae7554ebf,6453cbda2bcd6131c08316f8,2023-05-04_17h24.22.237,ga_syllabified_check,2022.2.5,Win32,12.00436959,,,,,,,,,,,,,,./stim/p03_syllable_1_lakaguaisto_hit.wav,p03,lakaguaisto,hit,la-ka-guais-to,la-ka-guais-to,la-ka-gu-ais-to,la-ka-gua-is-to,-0.356481481,-0.101851852,1,0,0,1.875,text_option_1,,0,78,78,13,1
5ca65510a0b6540012283c32,63f3cfca20052e4ae7554ebf,6453cbda2bcd6131c08316f8,2023-05-04_17h24.22.237,ga_syllabified_check,2022.2.5,Win32,12.00436959,,,,,,,,,,,,,,./stim/p06_syllable_1_lakaguaisto_hit.wav,p06,lakaguaisto,hit,la-ka-gu-a-is,la-ka-guais-to,la-ka-gu-ais-to,la-ka-gua-is-to,0.087962963,-0.103703746,1,0,0,6.1185,text_option_3,,0,79,79,115,1
5ca65510a0b6540012283c32,63f3cfca20052e4ae7554ebf,6453cbda2bcd6131c08316f8,2023-05-04_17h24.22.237,ga_syllabified_check,2022.2.5,Win32,12.00436959,,,,,,,,,,,,,,./stim/p08_syllable_1_faluduako_hit.wav,p08,faluduako,hit,fa-lu-duai-ko,fa-lu-dua-ko,fa-lu-du-a-ko, ,0.033333319,-0.304629644,1,0,0,3.393,text_option_other,fa-lu-duai-ko,0,80,80,172,1
5ca65510a0b6540012283c32,63f3cfca20052e4ae7554ebf,6453cbda2bcd6131c08316f8,2023-05-04_17h24.22.237,ga_syllabified_check,2022.2.5,Win32,12.00436959,,,,,,,,,,,,,,./stim/p04_syllable_1_lakabiaisto_hit.wav,p04,lakabiaisto,hit,la-ka-biais-to,la-ka-biais-to,la-ka-bi-ais-to,la-ka-bia-is-to,-0.385185171,-0.101851852,1,0,0,1.2932,text_option_1,,0,81,81,40,1
5ca65510a0b6540012283c32,63f3cfca20052e4ae7554ebf,6453cbda2bcd6131c08316f8,2023-05-04_17h24.22.237,ga_syllabified_check,2022.2.5,Win32,12.00436959,,,,,,,,,,,,,,./stim/p05_syllable_1_lakabuaisto_hit.wav,p05,lakabuaisto,hit,la-ka-buais-to,la-ka-buais-to,la-ka-bu-ais-to,la-ka-bua-is-to,-0.375925912,-0.114814829,1,0,0,2.6374,text_option_1,,0,82,82,75,1
5ca65510a0b6540012283c32,63f3cfca20052e4ae7554ebf,6453cbda2bcd6131c08316f8,2023-05-04_17h24.22.237,ga_syllabified_check,2022.2.5,Win32,12.00436959,,,,,,,,,,,,,,./stim/p05_syllable_1_nhiape_hit.wav,p05,ñiape,hit,nhia-pe,ñia-pe,ñi-a-pe, ,-0.373148141,-0.110185199,1,0,0,0.857,text_option_1,,0,83,83,91,1
5ca65510a0b6540012283c32,63f3cfca20052e4ae7554ebf,6453cbda2bcd6131c08316f8,2023-05-04_17h24.22.237,ga_syllabified_check,2022.2.5,Win32,12.00436959,,,,,,,,,,,,,,./stim/p07_syllable_1_manhiala_hit.wav,p07,mañiala,hit,ma-nhia-la,ma-ñia-la,ma-ñi-a-la, ,-0.373148141,-0.110185199,1,0,0,1.9801,text_option_1,,0,84,84,157,1
5ca65510a0b6540012283c32,63f3cfca20052e4ae7554ebf,6453cbda2bcd6131c08316f8,2023-05-04_17h24.22.237,ga_syllabified_check,2022.2.5,Win32,12.00436959,,,,,,,,,,,,,,./stim/p08_syllable_1_manhiala_hit.wav,p08,mañiala,hit,ma-nhia-la,ma-ñia-la,ma-ñi-a-la, ,-0.371296282,-0.10092594,1,0,0,2.4819,text_option_1,,0,85,85,191,1
5ca65510a0b6540012283c32,63f3cfca20052e4ae7554ebf,6453cbda2bcd6131c08316f8,2023-05-04_17h24.22.237,ga_syllabified_check,2022.2.5,Win32,12.00436959,,,,,,,,,,,,,,./stim/p06_syllable_1_paluguato_hit.wav,p06,paluguato,hit,pa-lu-gua-to,pa-lu-gua-to,pa-lu-gu-a-to, ,-0.373148141,-0.109259288,1,0,0,3.8687,text_option_1,,0,86,86,129,1
5ca65510a0b6540012283c32,63f3cfca20052e4ae7554ebf,6453cbda2bcd6131c08316f8,2023-05-04_17h24.22.237,ga_syllabified_check,2022.2.5,Win32,12.00436959,,,,,,,,,,,,,,./stim/p08_syllable_1_lakafuaisto_hit.wav,p08,lakafuaisto,hit,la-ka-fju-ais-to,la-ka-fuais-to,la-ka-fu-ais-to,la-ka-fua-is-to,0.020370413,-0.306481467,1,0,0,4.1179,text_option_other,la-ka-fiuais-to,0,87,87,181,1
5ca65510a0b6540012283c32,63f3cfca20052e4ae7554ebf,6453cbda2bcd6131c08316f8,2023-05-04_17h24.22.237,ga_syllabified_check,2022.2.5,Win32,12.00436959,,,,,,,,,,,,,,./stim/p07_syllable_1_nhiape_hit.wav,p07,ñiape,hit,nhia-pe,ñia-pe,ñi-a-pe, ,-0.383333312,-0.103703746,1,0,0,1.5232,text_option_1,,0,88,88,159,1
5ca65510a0b6540012283c32,63f3cfca20052e4ae7554ebf,6453cbda2bcd6131c08316f8,2023-05-04_17h24.22.237,ga_syllabified_check,2022.2.5,Win32,12.00436959,,,,,,,,,,,,,,./stim/p06_syllable_1_lakapiaisto_hit.wav,p06,lakapiaisto,hit,la-ka-pia-is-to,la-ka-piais-to,la-ka-pi-ais-to,la-ka-pia-is-to,0.053703732,-0.101851852,1,0,0,5.362,text_option_3,,0,89,89,118,1
5ca65510a0b6540012283c32,63f3cfca20052e4ae7554ebf,6453cbda2bcd6131c08316f8,2023-05-04_17h24.22.237,ga_syllabified_check,2022.2.5,Win32,12.00436959,,,,,,,,,,,,,,./stim/p08_syllable_1_payielo_hit.wav,p08,payielo,hit,pa-yie-lo,pa-yie-lo,pa-yi-e-lo, ,-0.348148134,-0.104629658,1,0,0,3.2409,text_option_1,,0,90,90,200,1
5ca65510a0b6540012283c32,63f3cfca20052e4ae7554ebf,6453cbda2bcd6131c08316f8,2023-05-04_17h24.22.237,ga_syllabified_check,2022.2.5,Win32,12.00436959,,,,,,,,,,,,,,./stim/p03_syllable_1_lakabuaisto_hit.wav,p03,lakabuaisto,hit,la-ka-buais-to,la-ka-buais-to,la-ka-bu-ais-to,la-ka-bua-is-to,-0.338888875,-0.102777764,1,0,0,1.7508,text_option_1,,0,91,91,7,1
5ca65510a0b6540012283c32,63f3cfca20052e4ae7554ebf,6453cbda2bcd6131c08316f8,2023-05-04_17h24.22.237,ga_syllabified_check,2022.2.5,Win32,12.00436959,,,,,,,,,,,,,,./stim/p03_syllable_1_palufauto_hit.wav,p03,palufauto,hit,pa-lu-fau,pa-lu-fau-to,pa-lu-fa-u-to, ,-0.3675926,-0.102777764,1,0,0,1.5059,text_option_1,,0,92,92,26,1
5ca65510a0b6540012283c32,63f3cfca20052e4ae7554ebf,6453cbda2bcd6131c08316f8,2023-05-04_17h24.22.237,ga_syllabified_check,2022.2.5,Win32,12.00436959,,,,,,,,,,,,,,./stim/p03_syllable_1_lakakiaisto_hit.wav,p03,lakakiaisto,hit,la-ka-kiais-to,la-ka-kiais-to,la-ka-ki-ais-to,la-ka-kia-is-to,-0.343518504,-0.10092594,1,0,0,2.268,text_option_1,,0,93,93,14,1
5ca65510a0b6540012283c32,63f3cfca20052e4ae7554ebf,6453cbda2bcd6131c08316f8,2023-05-04_17h24.22.237,ga_syllabified_check,2022.2.5,Win32,12.00436959,,,,,,,,,,,,,,./stim/p05_syllable_1_palufauro_hit.wav,p05,palufauro,hit,pa-lu-fau-ro,pa-lu-fau-ro,pa-lu-fa-u-ro, ,-0.363888882,-0.099074116,1,0,0,1.4901,text_option_1,,0,94,94,93,1
5ca65510a0b6540012283c32,63f3cfca20052e4ae7554ebf,6453cbda2bcd6131c08316f8,2023-05-04_17h24.22.237,ga_syllabified_check,2022.2.5,Win32,12.00436959,,,,,,,,,,,,,,./stim/p06_syllable_1_chiaba_hit.wav,p06,chiaba,hit,chi-a-ba,chia-ba,chi-a-ba, ,-0.355555534,-0.109259288,1,0,0,1.8929,text_option_1,,0,95,95,102,1
5ca65510a0b6540012283c32,63f3cfca20052e4ae7554ebf,6453cbda2bcd6131c08316f8,2023-05-04_17h24.22.237,ga_syllabified_check,2022.2.5,Win32,12.00436959,,,,,,,,,,,,,,./stim/p03_syllable_1_lakapiaisto_hit.wav,p03,lakapiaisto,hit,la-ka-piais-to,la-ka-piais-to,la-ka-pi-ais-to,la-ka-pia-is-to,-0.343518504,-0.104629658,1,0,0,1.7964,text_option_1,,0,96,96,16,1
5ca65510a0b6540012283c32,63f3cfca20052e4ae7554ebf,6453cbda2bcd6131c08316f8,2023-05-04_17h24.22.237,ga_syllabified_check,2022.2.5,Win32,12.00436959,,,,,,,,,,,,,,./stim/p08_syllable_1_lakabiaisto_hit.wav,p08,lakabiaisto,hit,la-ka-bi-as-to,la-ka-biais-to,la-ka-bi-ais-to,la-ka-bia-is-to,0.433333362,-0.099074116,1,0,0,4.9508,text_option_2,,0,97,97,176,1
5ca65510a0b6540012283c32,63f3cfca20052e4ae7554ebf,6453cbda2bcd6131c08316f8,2023-05-04_17h24.22.237,ga_syllabified_check,2022.2.5,Win32,12.00436959,,,,,,,,,,,,,,./stim/p07_syllable_1_lakakuaisto_hit.wav,p07,lakakuaisto,hit,la-ka-kuais-to,la-ka-kuais-to,la-ka-ku-ais-to,la-ka-kua-is-to,-0.385185171,-0.093518504,1,0,0,2.7723,text_option_1,,0,98,98,151,1
5ca65510a0b6540012283c32,63f3cfca20052e4ae7554ebf,6453cbda2bcd6131c08316f8,2023-05-04_17h24.22.237,ga_syllabified_check,2022.2.5,Win32,12.00436959,,,,,,,,,,,,,,./stim/p06_syllable_1_lakagiaisto_hit.wav,p06,lakagiaisto,hit,la-ka-gia-is-to,la-ka-giais-to,la-ka-gi-ais-to,la-ka-gia-is-to,0.017592607,-0.104629658,1,0,0,5.0453,text_option_3,,0,99,99,114,1
5ca65510a0b6540012283c32,63f3cfca20052e4ae7554ebf,6453cbda2bcd6131c08316f8,2023-05-04_17h24.22.237,ga_syllabified_check,2022.2.5,Win32,12.00436959,,,,,,,,,,,,,,./stim/p04_syllable_1_rausto_hit.wav,p04,rausto,hit,raus-to,raus-to,ra-us-to, ,-0.396296289,-0.108333376,1,0,0,0.8748,text_option_1,,0,100,100,65,1
5ca65510a0b6540012283c32,63f3cfca20052e4ae7554ebf,6453cbda2bcd6131c08316f8,2023-05-04_17h24.22.237,ga_syllabified_check,2022.2.5,Win32,12.00436959,,,,,,,,,,,,,,./stim/p08_syllable_1_paluguato_hit.wav,p08,paluguato,hit,pa-lu-gua-to,pa-lu-gua-to,pa-lu-gu-a-to, ,-0.353703711,-0.099074116,1,0,0,2.0271,text_option_1,,0,101,101,197,1
5ca65510a0b6540012283c32,63f3cfca20052e4ae7554ebf,6453cbda2bcd6131c08316f8,2023-05-04_17h24.22.237,ga_syllabified_check,2022.2.5,Win32,12.00436959,,,,,,,,,,,,,,./stim/p05_syllable_1_lakagiaisto_hit.wav,p05,lakagiaisto,hit,la-ka-ki-ais-to,la-ka-giais-to,la-ka-gi-ais-to,la-ka-gia-is-to,-0.356481481,-0.098148134,1,0,0,1.6466,text_option_1,,0,102,102,80,1
5ca65510a0b6540012283c32,63f3cfca20052e4ae7554ebf,6453cbda2bcd6131c08316f8,2023-05-04_17h24.22.237,ga_syllabified_check,2022.2.5,Win32,12.00436959,,,,,,,,,,,,,,./stim/p04_syllable_1_lakagiaisto_hit.wav,p04,lakagiaisto,hit,la-ka-giais-to,la-ka-giais-to,la-ka-gi-ais-to,la-ka-gia-is-to,-0.362037023,-0.103703746,1,0,0,2.247,text_option_1,,0,103,103,46,1
5ca65510a0b6540012283c32,63f3cfca20052e4ae7554ebf,6453cbda2bcd6131c08316f8,2023-05-04_17h24.22.237,ga_syllabified_check,2022.2.5,Win32,12.00436959,,,,,,,,,,,,,,./stim/p03_syllable_1_lakatuaisto_hit.wav,p03,lakatuaisto,hit,la-ka-tuais-to,la-ka-tuais-to,la-ka-tu-ais-to,la-ka-tua-is-to,-0.366666653,-0.102777764,1,0,0,1.8836,text_option_1,,0,104,104,19,1
5ca65510a0b6540012283c32,63f3cfca20052e4ae7554ebf,6453cbda2bcd6131c08316f8,2023-05-04_17h24.22.237,ga_syllabified_check,2022.2.5,Win32,12.00436959,,,,,,,,,,,,,,./stim/p06_syllable_1_palumaisto_hit.wav,p06,palumaisto,hit,pa-lu-ma-is-to,pa-lu-mais-to,pa-lu-ma-is-to, ,0.432407379,-0.10555557,1,0,0,5.0358,text_option_2,,0,105,105,130,1
5ca65510a0b6540012283c32,63f3cfca20052e4ae7554ebf,6453cbda2bcd6131c08316f8,2023-05-04_17h24.22.237,ga_syllabified_check,2022.2.5,Win32,12.00436959,,,,,,,,,,,,,,./stim/p06_syllable_1_lakakuaisto_hit.wav,p06,lakakuaisto,hit,la-ka-ku-a-is,la-ka-kuais-to,la-ka-ku-ais-to,la-ka-kua-is-to,0.038888931,-0.300925926,1,0,0,11.2737,text_option_other,la-ka-ku-a-is-to,0,106,106,117,1
5ca65510a0b6540012283c32,63f3cfca20052e4ae7554ebf,6453cbda2bcd6131c08316f8,2023-05-04_17h24.22.237,ga_syllabified_check,2022.2.5,Win32,12.00436959,,,,,,,,,,,,,,./stim/p05_syllable_1_ruyiola_hit.wav,p05,ruyiola,hit,ru-yio-la,ru-yio-la,ru-yi-o-la, ,-0.404629637,-0.091666681,1,0,0,1.3907,text_option_1,,0,107,107,100,1
5ca65510a0b6540012283c32,63f3cfca20052e4ae7554ebf,6453cbda2bcd6131c08316f8,2023-05-04_17h24.22.237,ga_syllabified_check,2022.2.5,Win32,12.00436959,,,,,,,,,,,,,,./stim/p08_syllable_1_lakagiaisto_hit.wav,p08,lakagiaisto,hit,la-ka-gi-jas-to,la-ka-giais-to,la-ka-gi-ais-to,la-ka-gia-is-to,-0.363888882,-0.10555557,1,0,0,5.2169,text_option_1,,0,108,108,182,1
5ca65510a0b6540012283c32,63f3cfca20052e4ae7554ebf,6453cbda2bcd6131c08316f8,2023-05-04_17h24.22.237,ga_syllabified_check,2022.2.5,Win32,12.00436959,,,,,,,,,,,,,,./stim/p05_syllable_1_lakakuaisto_hit.wav,p05,lakakuaisto,hit,la-ka-kais-to,la-ka-kuais-to,la-ka-ku-ais-to,la-ka-kua-is-to,0.00462963,-0.298148191,1,0,0,3.8793,text_option_other,la-ka-kais-to,0,109,109,83,1
5ca65510a0b6540012283c32,63f3cfca20052e4ae7554ebf,6453cbda2bcd6131c08316f8,2023-05-04_17h24.22.237,ga_syllabified_check,2022.2.5,Win32,12.00436959,,,,,,,,,,,,,,./stim/p03_syllable_1_palumaisto_hit.wav,p03,palumaisto,hit,pa-lu-mais-to,pa-lu-mais-to,pa-lu-ma-is-to, ,-0.39444443,-0.103703746,1,0,0,3.8213,text_option_1,,0,110,110,28,1
5ca65510a0b6540012283c32,63f3cfca20052e4ae7554ebf,6453cbda2bcd6131c08316f8,2023-05-04_17h24.22.237,ga_syllabified_check,2022.2.5,Win32,12.00436959,,,,,,,,,,,,,,./stim/p07_syllable_1_tuliafo_hit.wav,p07,tuliafo,hit,tu-lia-fo,tu-lia-fo,tu-li-a-fo, ,-0.39444443,-0.103703746,1,0,0,1.6124,text_option_1,,0,111,111,169,1
5ca65510a0b6540012283c32,63f3cfca20052e4ae7554ebf,6453cbda2bcd6131c08316f8,2023-05-04_17h24.22.237,ga_syllabified_check,2022.2.5,Win32,12.00436959,,,,,,,,,,,,,,./stim/p05_syllable_1_lakadiaisto_hit.wav,p05,lakadiaisto,hit,la-ka-di-ais-to,la-ka-diais-to,la-ka-di-ais-to,la-ka-dia-is-to,-0.360185164,-0.104629658,1,0,0,1.8856,text_option_1,,0,112,112,76,1
5ca65510a0b6540012283c32,63f3cfca20052e4ae7554ebf,6453cbda2bcd6131c08316f8,2023-05-04_17h24.22.237,ga_syllabified_check,2022.2.5,Win32,12.00436959,,,,,,,,,,,,,,./stim/p07_syllable_1_costonhialo_hit.wav,p07,costoñialo,hit,cos-to-nhia-lo,cos-to-ñia-lo,cos-to-ñi-a-lo, ,-0.389814801,-0.103703746,1,0,0,2.7737,text_option_1,,0,113,113,137,1
5ca65510a0b6540012283c32,63f3cfca20052e4ae7554ebf,6453cbda2bcd6131c08316f8,2023-05-04_17h24.22.237,ga_syllabified_check,2022.2.5,Win32,12.00436959,,,,,,,,,,,,,,./stim/p05_syllable_1_lakafuaisto_hit.wav,p05,lakafuaisto,hit,la-ka-fais-to,la-ka-fuais-to,la-ka-fu-ais-to,la-ka-fua-is-to,-0.039814772,-0.304629644,1,0,0,3.1383,text_option_other,la-ka-fais-to,0,114,114,79,1
5ca65510a0b6540012283c32,63f3cfca20052e4ae7554ebf,6453cbda2bcd6131c08316f8,2023-05-04_17h24.22.237,ga_syllabified_check,2022.2.5,Win32,12.00436959,,,,,,,,,,,,,,./stim/p05_syllable_1_lakapuaisto_hit.wav,p05,lakapuaisto,hit,la-ka-pais-to,la-ka-puais-to,la-ka-pu-ais-to,la-ka-pua-is-to,-0.055555556,-0.30277782,1,0,0,9.6557,text_option_other,la-ka-pais-to,0,115,115,85,1
5ca65510a0b6540012283c32,63f3cfca20052e4ae7554ebf,6453cbda2bcd6131c08316f8,2023-05-04_17h24.22.237,ga_syllabified_check,2022.2.5,Win32,12.00436959,,,,,,,,,,,,,,./stim/p05_syllable_1_tuliafo_hit.wav,p05,tuliafo,hit,tu-lai-fo,tu-lia-fo,tu-li-a-fo, ,-0.008333347,-0.300000014,1,0,0,1.9312,text_option_other,tu-lai-fo,0,116,116,101,1
5ca65510a0b6540012283c32,63f3cfca20052e4ae7554ebf,6453cbda2bcd6131c08316f8,2023-05-04_17h24.22.237,ga_syllabified_check,2022.2.5,Win32,12.00436959,,,,,,,,,,,,,,./stim/p08_syllable_1_lliape_hit.wav,p08,lliape,hit,li-a-pe,llia-pe,lli-a-pe, ,0.389814871,-0.10555557,1,0,0,4.3003,text_option_2,,0,117,117,190,1
5ca65510a0b6540012283c32,63f3cfca20052e4ae7554ebf,6453cbda2bcd6131c08316f8,2023-05-04_17h24.22.237,ga_syllabified_check,2022.2.5,Win32,12.00436959,,,,,,,,,,,,,,./stim/p04_syllable_1_falufaisto_hit.wav,p04,falufaisto,hit,fa-lu-fais-to,fa-lu-fais-to,fa-lu-fa-is-to, ,-0.397222201,-0.086111104,1,0,0,1.2576,text_option_1,,0,118,118,37,1
5ca65510a0b6540012283c32,63f3cfca20052e4ae7554ebf,6453cbda2bcd6131c08316f8,2023-05-04_17h24.22.237,ga_syllabified_check,2022.2.5,Win32,12.00436959,,,,,,,,,,,,,,./stim/p07_syllable_1_palufauto_hit.wav,p07,palufauto,hit,pa-lu-fau-to,pa-lu-fau-to,pa-lu-fa-u-to, ,-0.360185164,-0.10555557,1,0,0,2.2754,text_option_1,,0,119,119,162,1
5ca65510a0b6540012283c32,63f3cfca20052e4ae7554ebf,6453cbda2bcd6131c08316f8,2023-05-04_17h24.22.237,ga_syllabified_check,2022.2.5,Win32,12.00436959,,,,,,,,,,,,,,./stim/p08_syllable_1_costonhialo_hit.wav,p08,costoñialo,hit,cos-to-nhia-lo,cos-to-ñia-lo,cos-to-ñi-a-lo, ,-0.357407393,-0.103703746,1,0,0,2.402,text_option_1,,0,120,120,171,1
5ca65510a0b6540012283c32,63f3cfca20052e4ae7554ebf,6453cbda2bcd6131c08316f8,2023-05-04_17h24.22.237,ga_syllabified_check,2022.2.5,Win32,12.00436959,,,,,,,,,,,,,,./stim/p03_syllable_1_flauro_hit.wav,p03,flauro,hit,flau-ro,flau-ro,fla-u-ro, ,-0.360185164,-0.108333376,1,0,0,1.1276,text_option_1,,0,121,121,5,1
5ca65510a0b6540012283c32,63f3cfca20052e4ae7554ebf,6453cbda2bcd6131c08316f8,2023-05-04_17h24.22.237,ga_syllabified_check,2022.2.5,Win32,12.00436959,,,,,,,,,,,,,,./stim/p06_syllable_1_lakadiaisto_hit.wav,p06,lakadiaisto,hit,la-ka-dia-is-to,la-ka-diais-to,la-ka-di-ais-to,la-ka-dia-is-to,0.063888903,-0.098148134,1,0,0,3.2816,text_option_3,,0,122,122,110,1
5ca65510a0b6540012283c32,63f3cfca20052e4ae7554ebf,6453cbda2bcd6131c08316f8,2023-05-04_17h24.22.237,ga_syllabified_check,2022.2.5,Win32,12.00436959,,,,,,,,,,,,,,./stim/p04_syllable_1_palutrauco_hit.wav,p04,palutrauco,hit,pa-lu-trau-co,pa-lu-trau-co,pa-lu-tra-u-co, ,-0.397222201,-0.103703746,1,0,0,1.9023,text_option_1,,0,123,123,63,1
5ca65510a0b6540012283c32,63f3cfca20052e4ae7554ebf,6453cbda2bcd6131c08316f8,2023-05-04_17h24.22.237,ga_syllabified_check,2022.2.5,Win32,12.00436959,,,,,,,,,,,,,,./stim/p04_syllable_1_mebochiana_hit.wav,p04,mebochiana,hit,me-bo-chia-na,me-bo-chia-na,me-bo-chi-a-na, ,-0.359259252,-0.106481481,1,0,0,4.7105,text_option_1,,0,124,124,56,1
5ca65510a0b6540012283c32,63f3cfca20052e4ae7554ebf,6453cbda2bcd6131c08316f8,2023-05-04_17h24.22.237,ga_syllabified_check,2022.2.5,Win32,12.00436959,,,,,,,,,,,,,,./stim/p05_syllable_1_palufauto_hit.wav,p05,palufauto,hit,pa-lu-fau-to,pa-lu-fau-to,pa-lu-fa-u-to, ,-0.359259252,-0.106481481,1,0,0,1.9204,text_option_1,,0,125,125,94,1
5ca65510a0b6540012283c32,63f3cfca20052e4ae7554ebf,6453cbda2bcd6131c08316f8,2023-05-04_17h24.22.237,ga_syllabified_check,2022.2.5,Win32,12.00436959,,,,,,,,,,,,,,./stim/p04_syllable_1_lakabuaisto_hit.wav,p04,lakabuaisto,hit,la-ka-buais-to,la-ka-buais-to,la-ka-bu-ais-to,la-ka-bua-is-to,-0.351851852,-0.100000028,1,0,0,2.4078,text_option_1,,0,126,126,41,1
5ca65510a0b6540012283c32,63f3cfca20052e4ae7554ebf,6453cbda2bcd6131c08316f8,2023-05-04_17h24.22.237,ga_syllabified_check,2022.2.5,Win32,12.00436959,,,,,,,,,,,,,,./stim/p08_syllable_1_palumaisto_hit.wav,p08,palumaisto,hit,pa-lu-mais-to,pa-lu-mais-to,pa-lu-ma-is-to, ,-0.360185164,-0.097222222,1,0,0,4.3126,text_option_1,,0,127,127,198,1
5ca65510a0b6540012283c32,63f3cfca20052e4ae7554ebf,6453cbda2bcd6131c08316f8,2023-05-04_17h24.22.237,ga_syllabified_check,2022.2.5,Win32,12.00436959,,,,,,,,,,,,,,./stim/p03_syllable_1_lakakuaisto_hit.wav,p03,lakakuaisto,hit,la-ka-kuais-to,la-ka-kuais-to,la-ka-ku-ais-to,la-ka-kua-is-to,-0.384259259,-0.103703746,1,0,0,3.1795,text_option_1,,0,128,128,15,1
5ca65510a0b6540012283c32,63f3cfca20052e4ae7554ebf,6453cbda2bcd6131c08316f8,2023-05-04_17h24.22.237,ga_syllabified_check,2022.2.5,Win32,12.00436959,,,,,,,,,,,,,,./stim/p03_syllable_1_palutrauco_hit.wav,p03,palutrauco,hit,pa-lu-trau-co,pa-lu-trau-co,pa-lu-tra-u-co, ,-0.357407393,-0.108333376,1,0,0,2.0513,text_option_1,,0,129,129,29,1
5ca65510a0b6540012283c32,63f3cfca20052e4ae7554ebf,6453cbda2bcd6131c08316f8,2023-05-04_17h24.22.237,ga_syllabified_check,2022.2.5,Win32,12.00436959,,,,,,,,,,,,,,./stim/p06_syllable_1_lakapuaisto_hit.wav,p06,lakapuaisto,hit,la-ka-pu-a-is,la-ka-puais-to,la-ka-pu-ais-to,la-ka-pua-is-to,-0.037037037,-0.30740745,1,0,0,9.3634,text_option_other,la-ka-pu-a-is-to,0,130,130,119,1
5ca65510a0b6540012283c32,63f3cfca20052e4ae7554ebf,6453cbda2bcd6131c08316f8,2023-05-04_17h24.22.237,ga_syllabified_check,2022.2.5,Win32,12.00436959,,,,,,,,,,,,,,./stim/p08_syllable_1_tuliafo_hit.wav,p08,tuliafo,hit,tu-li-a-fo,tu-lia-fo,tu-li-a-fo, ,0.388888889,-0.098148134,1,0,0,2.5102,text_option_2,,0,131,131,203,1
5ca65510a0b6540012283c32,63f3cfca20052e4ae7554ebf,6453cbda2bcd6131c08316f8,2023-05-04_17h24.22.237,ga_syllabified_check,2022.2.5,Win32,12.00436959,,,,,,,,,,,,,,./stim/p03_syllable_1_nhiape_hit.wav,p03,ñiape,hit,nhia-pe,ñia-pe,ñi-a-pe, ,-0.377777771,-0.10555557,1,0,0,3.1684,text_option_1,,0,132,132,23,1
5ca65510a0b6540012283c32,63f3cfca20052e4ae7554ebf,6453cbda2bcd6131c08316f8,2023-05-04_17h24.22.237,ga_syllabified_check,2022.2.5,Win32,12.00436959,,,,,,,,,,,,,,./stim/p05_syllable_1_paluguato_hit.wav,p05,paluguato,hit,pa-lu-gau-to,pa-lu-gua-to,pa-lu-gu-a-to, ,0.020370413,-0.299074102,1,0,0,2.1527,text_option_other,pa-lu-gau-to,0,133,133,95,1
5ca65510a0b6540012283c32,63f3cfca20052e4ae7554ebf,6453cbda2bcd6131c08316f8,2023-05-04_17h24.22.237,ga_syllabified_check,2022.2.5,Win32,12.00436959,,,,,,,,,,,,,,./stim/p04_syllable_1_palufauro_hit.wav,p04,palufauro,hit,pa-lu-fau-ro,pa-lu-fau-ro,pa-lu-fa-u-ro, ,-0.37037037,-0.110185199,1,0,0,1.7653,text_option_1,,0,134,134,59,1
5ca65510a0b6540012283c32,63f3cfca20052e4ae7554ebf,6453cbda2bcd6131c08316f8,2023-05-04_17h24.22.237,ga_syllabified_check,2022.2.5,Win32,12.00436959,,,,,,,,,,,,,,./stim/p04_syllable_1_lakapuaisto_hit.wav,p04,lakapuaisto,hit,la-ka-puais-to,la-ka-puais-to,la-ka-pu-ais-to,la-ka-pua-is-to,-0.337037016,-0.108333376,1,0,0,1.3903,text_option_1,,0,135,135,51,1
5ca65510a0b6540012283c32,63f3cfca20052e4ae7554ebf,6453cbda2bcd6131c08316f8,2023-05-04_17h24.22.237,ga_syllabified_check,2022.2.5,Win32,12.00436959,,,,,,,,,,,,,,./stim/p07_syllable_1_lakatuaisto_hit.wav,p07,lakatuaisto,hit,la-ka-tuais-to,la-ka-tuais-to,la-ka-tu-ais-to,la-ka-tua-is-to,-0.374074053,-0.10555557,1,0,0,2.8551,text_option_1,,0,136,136,155,1
5ca65510a0b6540012283c32,63f3cfca20052e4ae7554ebf,6453cbda2bcd6131c08316f8,2023-05-04_17h24.22.237,ga_syllabified_check,2022.2.5,Win32,12.00436959,,,,,,,,,,,,,,./stim/p04_syllable_1_lakaguaisto_hit.wav,p04,lakaguaisto,hit,la-ka-guais-to,la-ka-guais-to,la-ka-gu-ais-to,la-ka-gua-is-to,-0.365740741,-0.107407393,1,0,0,2.803,text_option_1,,0,137,137,47,1
5ca65510a0b6540012283c32,63f3cfca20052e4ae7554ebf,6453cbda2bcd6131c08316f8,2023-05-04_17h24.22.237,ga_syllabified_check,2022.2.5,Win32,12.00436959,,,,,,,,,,,,,,./stim/p03_syllable_1_paluguato_hit.wav,p03,paluguato,hit,pa-lu-gua,pa-lu-gua-to,pa-lu-gu-a-to, ,-0.396296289,-0.104629658,1,0,0,2.887,text_option_1,,0,138,138,27,1
5ca65510a0b6540012283c32,63f3cfca20052e4ae7554ebf,6453cbda2bcd6131c08316f8,2023-05-04_17h24.22.237,ga_syllabified_check,2022.2.5,Win32,12.00436959,,,,,,,,,,,,,,./stim/p05_syllable_1_lakakiaisto_hit.wav,p05,lakakiaisto,hit,la-ka-ki-ais-to,la-ka-kiais-to,la-ka-ki-ais-to,la-ka-kia-is-to,-0.396296289,-0.104629658,1,0,0,1.9256,text_option_1,,0,139,139,82,1
5ca65510a0b6540012283c32,63f3cfca20052e4ae7554ebf,6453cbda2bcd6131c08316f8,2023-05-04_17h24.22.237,ga_syllabified_check,2022.2.5,Win32,12.00436959,,,,,,,,,,,,,,./stim/p06_syllable_1_faluduako_hit.wav,p06,faluduako,hit,fa-lu-dua-ko,fa-lu-dua-ko,fa-lu-du-a-ko, ,0.399074131,-0.101851852,1,0,0,4.5511,text_option_2,,0,140,140,104,1
5ca65510a0b6540012283c32,63f3cfca20052e4ae7554ebf,6453cbda2bcd6131c08316f8,2023-05-04_17h24.22.237,ga_syllabified_check,2022.2.5,Win32,12.00436959,,,,,,,,,,,,,,./stim/p04_syllable_1_lakatuaisto_hit.wav,p04,lakatuaisto,hit,la-ka-kuais-to,la-ka-tuais-to,la-ka-tu-ais-to,la-ka-tua-is-to,-0.381481489,-0.106481481,1,0,0,1.4195,text_option_1,,0,141,141,53,1
5ca65510a0b6540012283c32,63f3cfca20052e4ae7554ebf,6453cbda2bcd6131c08316f8,2023-05-04_17h24.22.237,ga_syllabified_check,2022.2.5,Win32,12.00436959,,,,,,,,,,,,,,./stim/p03_syllable_1_palufauro_hit.wav,p03,palufauro,hit,pa-lu-fau-ro,pa-lu-fau-ro,pa-lu-fa-u-ro, ,-0.381481489,-0.106481481,1,0,0,1.7573,text_option_1,,0,142,142,25,1
5ca65510a0b6540012283c32,63f3cfca20052e4ae7554ebf,6453cbda2bcd6131c08316f8,2023-05-04_17h24.22.237,ga_syllabified_check,2022.2.5,Win32,12.00436959,,,,,,,,,,,,,,./stim/p05_syllable_1_rausto_hit.wav,p05,rausto,hit,raus-to,raus-to,ra-us-to, ,-0.381481489,-0.106481481,1,0,0,0.8843,text_option_1,,0,143,143,99,1
5ca65510a0b6540012283c32,63f3cfca20052e4ae7554ebf,6453cbda2bcd6131c08316f8,2023-05-04_17h24.22.237,ga_syllabified_check,2022.2.5,Win32,12.00436959,,,,,,,,,,,,,,./stim/p04_syllable_1_lakatiaisto_hit.wav,p04,lakatiaisto,hit,la-ka-kiais-to,la-ka-tiais-to,la-ka-ti-ais-to,la-ka-tia-is-to,-0.381481489,-0.106481481,1,0,0,2.272,text_option_1,,0,144,144,52,1
5ca65510a0b6540012283c32,63f3cfca20052e4ae7554ebf,6453cbda2bcd6131c08316f8,2023-05-04_17h24.22.237,ga_syllabified_check,2022.2.5,Win32,12.00436959,,,,,,,,,,,,,,./stim/p07_syllable_1_lakapiaisto_hit.wav,p07,lakapiaisto,hit,la-ka-pia-sto,la-ka-piais-to,la-ka-pi-ais-to,la-ka-pia-is-to,0.046296296,-0.109259288,1,0,0,4.8498,text_option_3,,0,145,145,152,1
5ca65510a0b6540012283c32,63f3cfca20052e4ae7554ebf,6453cbda2bcd6131c08316f8,2023-05-04_17h24.22.237,ga_syllabified_check,2022.2.5,Win32,12.00436959,,,,,,,,,,,,,,./stim/p08_syllable_1_lakapiaisto_hit.wav,p08,lakapiaisto,hit,la-ka-pi-as-to,la-ka-piais-to,la-ka-pi-ais-to,la-ka-pia-is-to,0.436111168,-0.10555557,1,0,0,3.0318,text_option_2,,0,146,146,186,1
5ca65510a0b6540012283c32,63f3cfca20052e4ae7554ebf,6453cbda2bcd6131c08316f8,2023-05-04_17h24.22.237,ga_syllabified_check,2022.2.5,Win32,12.00436959,,,,,,,,,,,,,,./stim/p07_syllable_1_falufaisto_hit.wav,p07,falufaisto,hit,fa-lu-fais-to,fa-lu-fais-to,fa-lu-fa-is-to, ,-0.38703703,-0.10092594,1,0,0,2.5512,text_option_1,,0,147,147,139,1
5ca65510a0b6540012283c32,63f3cfca20052e4ae7554ebf,6453cbda2bcd6131c08316f8,2023-05-04_17h24.22.237,ga_syllabified_check,2022.2.5,Win32,12.00436959,,,,,,,,,,,,,,./stim/p07_syllable_1_lakafuaisto_hit.wav,p07,lakafuaisto,hit,la-ka-fuais-to,la-ka-fuais-to,la-ka-fu-ais-to,la-ka-fua-is-to,-0.366666653,-0.10092594,1,0,0,3.8138,text_option_1,,0,148,148,147,1
5ca65510a0b6540012283c32,63f3cfca20052e4ae7554ebf,6453cbda2bcd6131c08316f8,2023-05-04_17h24.22.237,ga_syllabified_check,2022.2.5,Win32,12.00436959,,,,,,,,,,,,,,./stim/p04_syllable_1_paluguato_hit.wav,p04,paluguato,hit,pa-lu-gua,pa-lu-gua-to,pa-lu-gu-a-to, ,0.029629672,-0.301851838,1,0,0,2.9983,text_option_other,pa-lu-gua,0,149,149,61,1
5ca65510a0b6540012283c32,63f3cfca20052e4ae7554ebf,6453cbda2bcd6131c08316f8,2023-05-04_17h24.22.237,ga_syllabified_check,2022.2.5,Win32,12.00436959,,,,,,,,,,,,,,./stim/p04_syllable_1_palumaisto_hit.wav,p04,palumaisto,hit,pa-lu-mais-to,pa-lu-mais-to,pa-lu-ma-is-to, ,-0.3824074,-0.098148134,1,0,0,1.6557,text_option_1,,0,150,150,62,1
5ca65510a0b6540012283c32,63f3cfca20052e4ae7554ebf,6453cbda2bcd6131c08316f8,2023-05-04_17h24.22.237,ga_syllabified_check,2022.2.5,Win32,12.00436959,,,,,,,,,,,,,,./stim/p06_syllable_1_pachialo_hit.wav,p06,pachialo,hit,pa-shi-a-lo,pa-chia-lo,pa-chi-a-lo, ,0.414814843,-0.106481481,1,0,0,1.8419,text_option_2,,0,151,151,126,1
5ca65510a0b6540012283c32,63f3cfca20052e4ae7554ebf,6453cbda2bcd6131c08316f8,2023-05-04_17h24.22.237,ga_syllabified_check,2022.2.5,Win32,12.00436959,,,,,,,,,,,,,,./stim/p06_syllable_1_tuliafo_hit.wav,p06,tuliafo,hit,tu-li-a-fo,tu-lia-fo,tu-li-a-fo, ,0.419444473,-0.10555557,1,0,0,1.9162,text_option_2,,0,152,152,135,1
5ca65510a0b6540012283c32,63f3cfca20052e4ae7554ebf,6453cbda2bcd6131c08316f8,2023-05-04_17h24.22.237,ga_syllabified_check,2022.2.5,Win32,12.00436959,,,,,,,,,,,,,,./stim/p06_syllable_1_payielo_hit.wav,p06,payielo,hit,pa-yi-e-lo,pa-yie-lo,pa-yi-e-lo, ,0.419444473,-0.10555557,1,0,0,2.2634,text_option_2,,0,153,153,132,1
5ca65510a0b6540012283c32,63f3cfca20052e4ae7554ebf,6453cbda2bcd6131c08316f8,2023-05-04_17h24.22.237,ga_syllabified_check,2022.2.5,Win32,12.00436959,,,,,,,,,,,,,,./stim/p03_syllable_1_mebochiana_hit.wav,p03,mebochiana,hit,me-bo-chia-na,me-bo-chia-na,me-bo-chi-a-na, ,-0.327777757,-0.097222222,1,0,0,1.7069,text_option_1,,0,154,154,22,1
5ca65510a0b6540012283c32,63f3cfca20052e4ae7554ebf,6453cbda2bcd6131c08316f8,2023-05-04_17h24.22.237,ga_syllabified_check,2022.2.5,Win32,12.00436959,,,,,,,,,,,,,,./stim/p06_syllable_1_lakabiaisto_hit.wav,p06,lakabiaisto,hit,la-ka-bia-is-to,la-ka-biais-to,la-ka-bi-ais-to,la-ka-bia-is-to,0.044444473,-0.098148134,1,0,0,5.7273,text_option_3,,0,155,155,108,1
5ca65510a0b6540012283c32,63f3cfca20052e4ae7554ebf,6453cbda2bcd6131c08316f8,2023-05-04_17h24.22.237,ga_syllabified_check,2022.2.5,Win32,12.00436959,,,,,,,,,,,,,,./stim/p04_syllable_1_lliape_hit.wav,p04,lliape,hit,lia-pe,llia-pe,lli-a-pe, ,-0.360185164,-0.103703746,1,0,0,0.7681,text_option_1,,0,156,156,54,1
5ca65510a0b6540012283c32,63f3cfca20052e4ae7554ebf,6453cbda2bcd6131c08316f8,2023-05-04_17h24.22.237,ga_syllabified_check,2022.2.5,Win32,12.00436959,,,,,,,,,,,,,,./stim/p06_syllable_1_palufauro_hit.wav,p06,palufauro,hit,pa-lu-fau-ro,pa-lu-fau-ro,pa-lu-fa-u-ro, ,0.434259344,-0.112037023,1,0,0,4.3877,text_option_2,,0,157,157,127,1
5ca65510a0b6540012283c32,63f3cfca20052e4ae7554ebf,6453cbda2bcd6131c08316f8,2023-05-04_17h24.22.237,ga_syllabified_check,2022.2.5,Win32,12.00436959,,,,,,,,,,,,,,./stim/p03_syllable_1_lakafuaisto_hit.wav,p03,lakafuaisto,hit,la-ka-fuais-to,la-ka-fuais-to,la-ka-fu-ais-to,la-ka-fua-is-to,-0.356481481,-0.107407393,1,0,0,1.6619,text_option_1,,0,158,158,11,1
5ca65510a0b6540012283c32,63f3cfca20052e4ae7554ebf,6453cbda2bcd6131c08316f8,2023-05-04_17h24.22.237,ga_syllabified_check,2022.2.5,Win32,12.00436959,,,,,,,,,,,,,,./stim/p06_syllable_1_ruyiola_hit.wav,p06,ruyiola,hit,ru-yi-o-la,ru-yio-la,ru-yi-o-la, ,0.42777775,-0.104629658,1,0,0,2.4366,text_option_2,,0,159,159,134,1
5ca65510a0b6540012283c32,63f3cfca20052e4ae7554ebf,6453cbda2bcd6131c08316f8,2023-05-04_17h24.22.237,ga_syllabified_check,2022.2.5,Win32,12.00436959,,,,,,,,,,,,,,./stim/p04_syllable_1_lakaduaisto_hit.wav,p04,lakaduaisto,hit,la-ka-duais-to,la-ka-duais-to,la-ka-du-ais-to,la-ka-dua-is-to,-0.350925905,-0.108333376,1,0,0,1.3034,text_option_1,,0,160,160,43,1
5ca65510a0b6540012283c32,63f3cfca20052e4ae7554ebf,6453cbda2bcd6131c08316f8,2023-05-04_17h24.22.237,ga_syllabified_check,2022.2.5,Win32,12.00436959,,,,,,,,,,,,,,./stim/p05_syllable_1_lliape_hit.wav,p05,lliape,hit,liai-pe,llia-pe,lli-a-pe, ,-0.015740712,-0.305555556,1,0,0,3.2834,text_option_other,llia-ipe,0,161,161,88,1
5ca65510a0b6540012283c32,63f3cfca20052e4ae7554ebf,6453cbda2bcd6131c08316f8,2023-05-04_17h24.22.237,ga_syllabified_check,2022.2.5,Win32,12.00436959,,,,,,,,,,,,,,./stim/p07_syllable_1_lakagiaisto_hit.wav,p07,lakagiaisto,hit,la-ka-gais-to,la-ka-giais-to,la-ka-gi-ais-to,la-ka-gia-is-to,0.005555541,-0.308333362,1,0,0,6.9517,text_option_other,la-ka-gais-to,0,162,162,148,1
5ca65510a0b6540012283c32,63f3cfca20052e4ae7554ebf,6453cbda2bcd6131c08316f8,2023-05-04_17h24.22.237,ga_syllabified_check,2022.2.5,Win32,12.00436959,,,,,,,,,,,,,,./stim/p03_syllable_1_lakadiaisto_hit.wav,p03,lakadiaisto,hit,la-ka-diais-to,la-ka-diais-to,la-ka-di-ais-to,la-ka-dia-is-to,-0.352777764,-0.106481481,1,0,0,2.0553,text_option_1,,0,163,163,8,1
5ca65510a0b6540012283c32,63f3cfca20052e4ae7554ebf,6453cbda2bcd6131c08316f8,2023-05-04_17h24.22.237,ga_syllabified_check,2022.2.5,Win32,12.00436959,,,,,,,,,,,,,,./stim/p06_syllable_1_lakafuaisto_hit.wav,p06,lakafuaisto,hit,la-ka-fu-a-is,la-ka-fuais-to,la-ka-fu-ais-to,la-ka-fua-is-to,0.468518575,-0.102777764,1,0,0,4.1144,text_option_2,,0,164,164,113,1
5ca65510a0b6540012283c32,63f3cfca20052e4ae7554ebf,6453cbda2bcd6131c08316f8,2023-05-04_17h24.22.237,ga_syllabified_check,2022.2.5,Win32,12.00436959,,,,,,,,,,,,,,./stim/p07_syllable_1_lakafiaisto_hit.wav,p07,lakafiaisto,hit,la-ka-fiais-to,la-ka-fiais-to,la-ka-fi-ais-to,la-ka-fia-is-to,-0.363888882,-0.107407393,1,0,0,1.917,text_option_1,,0,165,165,146,1
5ca65510a0b6540012283c32,63f3cfca20052e4ae7554ebf,6453cbda2bcd6131c08316f8,2023-05-04_17h24.22.237,ga_syllabified_check,2022.2.5,Win32,12.00436959,,,,,,,,,,,,,,./stim/p06_syllable_1_lakatiaisto_hit.wav,p06,lakatiaisto,hit,la-ka-pia-is-to,la-ka-tiais-to,la-ka-ti-ais-to,la-ka-tia-is-to,0.009259259,-0.098148134,1,0,0,5.0643,text_option_3,,0,166,166,120,1
5ca65510a0b6540012283c32,63f3cfca20052e4ae7554ebf,6453cbda2bcd6131c08316f8,2023-05-04_17h24.22.237,ga_syllabified_check,2022.2.5,Win32,12.00436959,,,,,,,,,,,,,,./stim/p05_syllable_1_falutraigo_hit.wav,p05,falutraigo,hit,fa-lu-trai-go,fa-lu-trai-go,fa-lu-tra-i-go, ,-0.363888882,-0.101851852,1,0,0,146.0926,text_option_1,,0,167,167,72,1
5ca65510a0b6540012283c32,63f3cfca20052e4ae7554ebf,6453cbda2bcd6131c08316f8,2023-05-04_17h24.22.237,ga_syllabified_check,2022.2.5,Win32,12.00436959,,,,,,,,,,,,,,./stim/p03_syllable_1_manhiala_hit.wav,p03,mañiala,hit,ma-nhia-la,ma-ñia-la,ma-ñi-a-la, ,-0.337037016,-0.100000028,1,0,0,2.1971,text_option_1,,0,168,168,21,1
5ca65510a0b6540012283c32,63f3cfca20052e4ae7554ebf,6453cbda2bcd6131c08316f8,2023-05-04_17h24.22.237,ga_syllabified_check,2022.2.5,Win32,12.00436959,,,,,,,,,,,,,,./stim/p06_syllable_1_nhiape_hit.wav,p06,ñiape,hit,nhi-a-pe,ñia-pe,ñi-a-pe, ,0.415740826,-0.10555557,1,0,0,2.1692,text_option_2,,0,169,169,125,1
5ca65510a0b6540012283c32,63f3cfca20052e4ae7554ebf,6453cbda2bcd6131c08316f8,2023-05-04_17h24.22.237,ga_syllabified_check,2022.2.5,Win32,12.00436959,,,,,,,,,,,,,,./stim/p08_syllable_1_nhiape_hit.wav,p08,ñiape,hit,ni-a-pe,ñia-pe,ñi-a-pe, ,0.415740826,-0.10555557,1,0,0,2.3011,text_option_2,,0,170,170,193,1
5ca65510a0b6540012283c32,63f3cfca20052e4ae7554ebf,6453cbda2bcd6131c08316f8,2023-05-04_17h24.22.237,ga_syllabified_check,2022.2.5,Win32,12.00436959,,,,,,,,,,,,,,./stim/p07_syllable_1_rausto_hit.wav,p07,rausto,hit,raus-to,raus-to,ra-us-to, ,-0.383333312,-0.103703746,1,0,0,4.1717,text_option_1,,0,171,171,167,1
5ca65510a0b6540012283c32,63f3cfca20052e4ae7554ebf,6453cbda2bcd6131c08316f8,2023-05-04_17h24.22.237,ga_syllabified_check,2022.2.5,Win32,12.00436959,,,,,,,,,,,,,,./stim/p05_syllable_1_palumaisto_hit.wav,p05,palumaisto,hit,pa-lu-mais-to,pa-lu-mais-to,pa-lu-ma-is-to, ,-0.383333312,-0.103703746,1,0,0,2.0404,text_option_1,,0,172,172,96,1
5ca65510a0b6540012283c32,63f3cfca20052e4ae7554ebf,6453cbda2bcd6131c08316f8,2023-05-04_17h24.22.237,ga_syllabified_check,2022.2.5,Win32,12.00436959,,,,,,,,,,,,,,./stim/p07_syllable_1_lakaduaisto_hit.wav,p07,lakaduaisto,hit,la-ka-duais-to,la-ka-duais-to,la-ka-du-ais-to,la-ka-dua-is-to,-0.383333312,-0.103703746,1,0,0,2.299,text_option_1,,0,173,173,145,1
5ca65510a0b6540012283c32,63f3cfca20052e4ae7554ebf,6453cbda2bcd6131c08316f8,2023-05-04_17h24.22.237,ga_syllabified_check,2022.2.5,Win32,12.00436959,,,,,,,,,,,,,,./stim/p03_syllable_1_lakaduaisto_hit.wav,p03,lakaduaisto,hit,la-ka-duais-to,la-ka-duais-to,la-ka-du-ais-to,la-ka-dua-is-to,-0.383333312,-0.103703746,1,0,0,3.2491,text_option_1,,0,174,174,9,1
5ca65510a0b6540012283c32,63f3cfca20052e4ae7554ebf,6453cbda2bcd6131c08316f8,2023-05-04_17h24.22.237,ga_syllabified_check,2022.2.5,Win32,12.00436959,,,,,,,,,,,,,,./stim/p06_syllable_1_lakabuaisto_hit.wav,p06,lakabuaisto,hit,la-ka-bu-a-is,la-ka-buais-to,la-ka-bu-ais-to,la-ka-bua-is-to,0.450925898,-0.10555557,1,0,0,5.9637,text_option_2,,0,175,175,109,1
5ca65510a0b6540012283c32,63f3cfca20052e4ae7554ebf,6453cbda2bcd6131c08316f8,2023-05-04_17h24.22.237,ga_syllabified_check,2022.2.5,Win32,12.00436959,,,,,,,,,,,,,,./stim/p06_syllable_1_manhiala_hit.wav,p06,mañiala,hit,ma-nhi-a-la,ma-ñia-la,ma-ñi-a-la, ,0.441666638,-0.093518504,1,0,0,2.3534,text_option_2,,0,176,176,123,1
5ca65510a0b6540012283c32,63f3cfca20052e4ae7554ebf,6453cbda2bcd6131c08316f8,2023-05-04_17h24.22.237,ga_syllabified_check,2022.2.5,Win32,12.00436959,,,,,,,,,,,,,,./stim/p08_syllable_1_pachialo_hit.wav,p08,pachialo,hit,pa-chi-ja-lo,pa-chia-lo,pa-chi-a-lo, ,0.397222307,-0.110185199,1,0,0,4.3518,text_option_2,,0,177,177,194,1
5ca65510a0b6540012283c32,63f3cfca20052e4ae7554ebf,6453cbda2bcd6131c08316f8,2023-05-04_17h24.22.237,ga_syllabified_check,2022.2.5,Win32,12.00436959,,,,,,,,,,,,,,./stim/p07_syllable_1_flauro_hit.wav,p07,flauro,hit,flau-ro,flau-ro,fla-u-ro, ,-0.397222201,-0.103703746,1,0,0,1.2816,text_option_1,,0,178,178,141,1
5ca65510a0b6540012283c32,63f3cfca20052e4ae7554ebf,6453cbda2bcd6131c08316f8,2023-05-04_17h24.22.237,ga_syllabified_check,2022.2.5,Win32,12.00436959,,,,,,,,,,,,,,./stim/p05_syllable_1_costonhialo_hit.wav,p05,costoñialo,hit,cos-to-nhia-lo,cos-to-ñia-lo,cos-to-ñi-a-lo, ,-0.397222201,-0.103703746,1,0,0,1.2719,text_option_1,,0,179,179,69,1
5ca65510a0b6540012283c32,63f3cfca20052e4ae7554ebf,6453cbda2bcd6131c08316f8,2023-05-04_17h24.22.237,ga_syllabified_check,2022.2.5,Win32,12.00436959,,,,,,,,,,,,,,./stim/p03_syllable_1_lliape_hit.wav,p03,lliape,hit,llia,llia-pe,lli-a-pe, ,-0.397222201,-0.103703746,1,0,0,0.8857,text_option_1,,0,180,180,20,1
5ca65510a0b6540012283c32,63f3cfca20052e4ae7554ebf,6453cbda2bcd6131c08316f8,2023-05-04_17h24.22.237,ga_syllabified_check,2022.2.5,Win32,12.00436959,,,,,,,,,,,,,,./stim/p08_syllable_1_lakatiaisto_hit.wav,p08,lakatiaisto,hit,la-ka-ti-as-to,la-ka-tiais-to,la-ka-ti-ais-to,la-ka-tia-is-to,-0.383333312,-0.102777764,1,0,0,5.4155,text_option_1,,0,181,181,188,1
5ca65510a0b6540012283c32,63f3cfca20052e4ae7554ebf,6453cbda2bcd6131c08316f8,2023-05-04_17h24.22.237,ga_syllabified_check,2022.2.5,Win32,12.00436959,,,,,,,,,,,,,,./stim/p04_syllable_1_tuliafo_hit.wav,p04,tuliafo,hit,tu-lia-fo,tu-lia-fo,tu-li-a-fo, ,-0.39907406,-0.101851852,1,0,0,1.9477,text_option_1,,0,182,182,67,1
5ca65510a0b6540012283c32,63f3cfca20052e4ae7554ebf,6453cbda2bcd6131c08316f8,2023-05-04_17h24.22.237,ga_syllabified_check,2022.2.5,Win32,12.00436959,,,,,,,,,,,,,,./stim/p05_syllable_1_payielo_hit.wav,p05,payielo,hit,pai-yu-we-lo,pa-yie-lo,pa-yi-e-lo, ,-0.003703718,-0.300000014,1,0,0,3.7236,text_option_other,payuelo,0,183,183,98,1
5ca65510a0b6540012283c32,63f3cfca20052e4ae7554ebf,6453cbda2bcd6131c08316f8,2023-05-04_17h24.22.237,ga_syllabified_check,2022.2.5,Win32,12.00436959,,,,,,,,,,,,,,./stim/p06_syllable_1_lakaduaisto_hit.wav,p06,lakaduaisto,hit,la-ka-du-a-is,la-ka-duais-to,la-ka-du-ais-to,la-ka-dua-is-to,0.340740769,-0.098148134,1,0,0,5.3182,text_option_2,,0,184,184,111,1
5ca65510a0b6540012283c32,63f3cfca20052e4ae7554ebf,6453cbda2bcd6131c08316f8,2023-05-04_17h24.22.237,ga_syllabified_check,2022.2.5,Win32,12.00436959,,,,,,,,,,,,,,./stim/p05_syllable_1_falufaisto_hit.wav,p05,falufaisto,hit,fa-lu-fais-to,fa-lu-fais-to,fa-lu-fa-is-to, ,-0.376851859,-0.100000028,1,0,0,1.1912,text_option_1,,0,185,185,71,1
5ca65510a0b6540012283c32,63f3cfca20052e4ae7554ebf,6453cbda2bcd6131c08316f8,2023-05-04_17h24.22.237,ga_syllabified_check,2022.2.5,Win32,12.00436959,,,,,,,,,,,,,,./stim/p07_syllable_1_palumaisto_hit.wav,p07,palumaisto,hit,pa-lu-mais-to,pa-lu-mais-to,pa-lu-ma-is-to, ,-0.390740748,-0.100000028,1,0,0,2.8042,text_option_1,,0,186,186,164,1
5ca65510a0b6540012283c32,63f3cfca20052e4ae7554ebf,6453cbda2bcd6131c08316f8,2023-05-04_17h24.22.237,ga_syllabified_check,2022.2.5,Win32,12.00436959,,,,,,,,,,,,,,./stim/p04_syllable_1_ruyiola_hit.wav,p04,ruyiola,hit,ru-yio-la,ru-yio-la,ru-yi-o-la, ,-0.392592571,-0.10092594,1,0,0,1.0214,text_option_1,,0,187,187,66,1
5ca65510a0b6540012283c32,63f3cfca20052e4ae7554ebf,6453cbda2bcd6131c08316f8,2023-05-04_17h24.22.237,ga_syllabified_check,2022.2.5,Win32,12.00436959,,,,,,,,,,,,,,./stim/p08_syllable_1_palufauro_hit.wav,p08,palufauro,hit,pa-lu-fau-ro,pa-lu-fau-ro,pa-lu-fa-u-ro, ,-0.392592571,-0.10092594,1,0,0,2.5505,text_option_1,,0,188,188,195,1
5ca65510a0b6540012283c32,63f3cfca20052e4ae7554ebf,6453cbda2bcd6131c08316f8,2023-05-04_17h24.22.237,ga_syllabified_check,2022.2.5,Win32,12.00436959,,,,,,,,,,,,,,./stim/p07_syllable_1_lakabiaisto_hit.wav,p07,lakabiaisto,hit,la-ka-bais-to,la-ka-biais-to,la-ka-bi-ais-to,la-ka-bia-is-to,0.00462963,-0.300000014,1,0,0,6.3308,text_option_other,la-ka-bais-to,0,189,189,142,1
5ca65510a0b6540012283c32,63f3cfca20052e4ae7554ebf,6453cbda2bcd6131c08316f8,2023-05-04_17h24.22.237,ga_syllabified_check,2022.2.5,Win32,12.00436959,,,,,,,,,,,,,,./stim/p07_syllable_1_ruyiola_hit.wav,p07,ruyiola,hit,ru-yio-la,ru-yio-la,ru-yi-o-la, ,-0.385185171,-0.095370399,1,0,0,1.5777,text_option_1,,0,190,190,168,1
5ca65510a0b6540012283c32,63f3cfca20052e4ae7554ebf,6453cbda2bcd6131c08316f8,2023-05-04_17h24.22.237,ga_syllabified_check,2022.2.5,Win32,12.00436959,,,,,,,,,,,,,,./stim/p05_syllable_1_lakabiaisto_hit.wav,p05,lakabiaisto,hit,la-ka-bi-ais-to,la-ka-biais-to,la-ka-bi-ais-to,la-ka-bia-is-to,-0.376851859,-0.099074116,1,0,0,1.8121,text_option_1,,0,191,191,74,1
5ca65510a0b6540012283c32,63f3cfca20052e4ae7554ebf,6453cbda2bcd6131c08316f8,2023-05-04_17h24.22.237,ga_syllabified_check,2022.2.5,Win32,12.00436959,,,,,,,,,,,,,,./stim/p07_syllable_1_falutraigo_hit.wav,p07,falutraigo,hit,fa-lu-trai-go,fa-lu-trai-go,fa-lu-tra-i-go, ,-0.37962963,-0.102777764,1,0,0,2.5547,text_option_1,,0,192,192,140,1
5ca65510a0b6540012283c32,63f3cfca20052e4ae7554ebf,6453cbda2bcd6131c08316f8,2023-05-04_17h24.22.237,ga_syllabified_check,2022.2.5,Win32,12.00436959,,,,,,,,,,,,,,./stim/p03_syllable_1_falutraigo_hit.wav,p03,falutraigo,hit,fa-lu-trai-go,fa-lu-trai-go,fa-lu-tra-i-go, ,-0.37962963,-0.102777764,1,0,0,2.4428,text_option_1,,0,193,193,4,1
5ca65510a0b6540012283c32,63f3cfca20052e4ae7554ebf,6453cbda2bcd6131c08316f8,2023-05-04_17h24.22.237,ga_syllabified_check,2022.2.5,Win32,12.00436959,,,,,,,,,,,,,,./stim/p07_syllable_1_lakaguaisto_hit.wav,p07,lakaguaisto,hit,la-ka-guais-to,la-ka-guais-to,la-ka-gu-ais-to,la-ka-gua-is-to,-0.349074081,-0.102777764,1,0,0,2.1606,text_option_1,,0,194,194,149,1
5ca65510a0b6540012283c32,63f3cfca20052e4ae7554ebf,6453cbda2bcd6131c08316f8,2023-05-04_17h24.22.237,ga_syllabified_check,2022.2.5,Win32,12.00436959,,,,,,,,,,,,,,./stim/p08_syllable_1_palutrauco_hit.wav,p08,palutrauco,hit,pa-lu-trau-ko,pa-lu-trau-co,pa-lu-tra-u-co, ,-0.330555563,-0.101851852,1,0,0,3.5238,text_option_1,,0,195,195,199,1
5ca65510a0b6540012283c32,63f3cfca20052e4ae7554ebf,6453cbda2bcd6131c08316f8,2023-05-04_17h24.22.237,ga_syllabified_check,2022.2.5,Win32,12.00436959,,,,,,,,,,,,,,./stim/p08_syllable_1_lakaduaisto_hit.wav,p08,lakaduaisto,hit,la-ka-du-ais-to,la-ka-duais-to,la-ka-du-ais-to,la-ka-dua-is-to,0.445370427,-0.097222222,1,0,0,4.2409,text_option_2,,0,196,196,179,1
5ca65510a0b6540012283c32,63f3cfca20052e4ae7554ebf,6453cbda2bcd6131c08316f8,2023-05-04_17h24.22.237,ga_syllabified_check,2022.2.5,Win32,12.00436959,,,,,,,,,,,,,,./stim/p04_syllable_1_pachialo_hit.wav,p04,pachialo,hit,pa-chia-lo,pa-chia-lo,pa-chi-a-lo, ,-0.365740741,-0.107407393,1,0,0,1.1683,text_option_1,,0,197,197,58,1
5ca65510a0b6540012283c32,63f3cfca20052e4ae7554ebf,6453cbda2bcd6131c08316f8,2023-05-04_17h24.22.237,ga_syllabified_check,2022.2.5,Win32,12.00436959,,,,,,,,,,,,,,./stim/p05_syllable_1_palutrauco_hit.wav,p05,palutrauco,hit,pa-lu-trai-co,pa-lu-trau-co,pa-lu-tra-u-co, ,0.077777792,-0.30277782,1,0,0,2.0521,text_option_other,pa-lu-trai-co,0,198,198,97,1
5ca65510a0b6540012283c32,63f3cfca20052e4ae7554ebf,6453cbda2bcd6131c08316f8,2023-05-04_17h24.22.237,ga_syllabified_check,2022.2.5,Win32,12.00436959,,,,,,,,,,,,,,./stim/p03_syllable_1_lakatiaisto_hit.wav,p03,lakatiaisto,hit,la-ka-tiais-to,la-ka-tiais-to,la-ka-ti-ais-to,la-ka-tia-is-to,-0.376851859,-0.097222222,1,0,0,2.6796,text_option_1,,0,199,199,18,1
5ca65510a0b6540012283c32,63f3cfca20052e4ae7554ebf,6453cbda2bcd6131c08316f8,2023-05-04_17h24.22.237,ga_syllabified_check,2022.2.5,Win32,12.00436959,,,,,,,,,,,,,,./stim/p05_syllable_1_mebochiana_hit.wav,p05,mebochiana,hit,me-cho-chai-na,me-bo-chia-na,me-bo-chi-a-na, ,-0.049074032,-0.296296296,1,0,0,6.3414,text_option_other,me-cho-chai-na,0,200,200,90,1
5ca65510a0b6540012283c32,63f3cfca20052e4ae7554ebf,6453cbda2bcd6131c08316f8,2023-05-04_17h24.22.237,ga_syllabified_check,2022.2.5,Win32,12.00436959,,,,,,,,,,,,,,./stim/p04_syllable_1_costonhialo_hit.wav,p04,costoñialo,hit,cos-to-nhia-lo,cos-to-ñia-lo,cos-to-ñi-a-lo, ,-0.373148141,-0.109259288,1,0,0,1.7962,text_option_1,,0,201,201,35,1
5ca65510a0b6540012283c32,63f3cfca20052e4ae7554ebf,6453cbda2bcd6131c08316f8,2023-05-04_17h24.22.237,ga_syllabified_check,2022.2.5,Win32,12.00436959,,,,,,,,,,,,,,./stim/p08_syllable_1_lakatuaisto_hit.wav,p08,lakatuaisto,hit,la-ka-tu-i-jis,la-ka-tuais-to,la-ka-tu-ais-to,la-ka-tua-is-to,0.443518603,-0.104629658,1,0,0,15.7979,text_option_2,,0,202,202,189,1
5ca65510a0b6540012283c32,63f3cfca20052e4ae7554ebf,6453cbda2bcd6131c08316f8,2023-05-04_17h24.22.237,ga_syllabified_check,2022.2.5,Win32,12.00436959,,,,,,,,,,,,,,./stim/p05_syllable_1_lakafiaisto_hit.wav,p05,lakafiaisto,hit,la-ka-fi-ais-to,la-ka-fiais-to,la-ka-fi-ais-to,la-ka-fia-is-to,-0.327777757,-0.10092594,1,0,0,2.5758,text_option_1,,0,203,203,78,1
5ca65510a0b6540012283c32,63f3cfca20052e4ae7554ebf,6453cbda2bcd6131c08316f8,2023-05-04_17h24.22.237,ga_syllabified_check,2022.2.5,Win32,12.00436959,,,,,,,,,,,,,,,,,,,,,,,,,,,,,,,,,,
