participant,study,session,date,expName,psychopyVersion,OS,frameRate,mouse_practice.x,mouse_practice.y,mouse_practice.leftButton,mouse_practice.midButton,mouse_practice.rightButton,mouse_practice.time,mouse_practice.clicked_name,textbox_followup_practice.text,trials_practice.thisRepN,trials_practice.thisTrialN,trials_practice.thisN,trials_practice.thisIndex,trials_practice.ran,file_path,id,item,status,response,op1,op2,op3,mouse.x,mouse.y,mouse.leftButton,mouse.midButton,mouse.rightButton,mouse.time,mouse.clicked_name,textbox_followup.text,trials.thisRepN,trials.thisTrialN,trials.thisN,trials.thisIndex,trials.ran
5cb63520029f810015b238f8,63f3cfca20052e4ae7554ebf,6453ce136c5c72538d820acd,2023-05-04_17h25.12.465,ga_syllabified_check,2022.2.5,Win32,60.11060351,,,,,,,,,,,,,,,,,,,,,,,,,,,,,,,,,,
5cb63520029f810015b238f8,63f3cfca20052e4ae7554ebf,6453ce136c5c72538d820acd,2023-05-04_17h25.12.465,ga_syllabified_check,2022.2.5,Win32,60.11060351,-0.397395833,-0.109259288,1,0,0,4.8851,text_option_1_practice,,0,0,0,0,1,./stim/p03_syllable_1_liamo_hit.wav,p03,liamo,hit,lia-mo,lia-mo,li-a-mo, ,,,,,,,,,,,,,
5cb63520029f810015b238f8,63f3cfca20052e4ae7554ebf,6453ce136c5c72538d820acd,2023-05-04_17h25.12.465,ga_syllabified_check,2022.2.5,Win32,60.11060351,-0.386284733,-0.102777799,1,0,0,1.951,text_option_1_practice,,0,1,1,1,1,./stim/p05_syllable_1_matio_hit.wav,p05,matio,hit,ma-tio,ma-tio,ma-ti-o, ,,,,,,,,,,,,,
5cb63520029f810015b238f8,63f3cfca20052e4ae7554ebf,6453ce136c5c72538d820acd,2023-05-04_17h25.12.465,ga_syllabified_check,2022.2.5,Win32,60.11060351,0.422974523,-0.112963041,1,0,0,3.5347,text_option_2_practice,,0,2,2,2,1,./stim/p08_syllable_1_liamo_hit.wav,p08,liamo,hit,ja-mo,lia-mo,li-a-mo, ,,,,,,,,,,,,,
5cb63520029f810015b238f8,63f3cfca20052e4ae7554ebf,6453ce136c5c72538d820acd,2023-05-04_17h25.12.465,ga_syllabified_check,2022.2.5,Win32,60.11060351,,,,,,,,,,,,,,,,,,,,,,,,,,,,,,,,,,
5cb63520029f810015b238f8,63f3cfca20052e4ae7554ebf,6453ce136c5c72538d820acd,2023-05-04_17h25.12.465,ga_syllabified_check,2022.2.5,Win32,60.11060351,,,,,,,,,,,,,,./stim/p08_syllable_1_palutrauco_hit.wav,p08,palutrauco,hit,pa-lu-trau-ko,pa-lu-trau-co,pa-lu-tra-u-co, ,-0.311284701,-0.103703753,1,0,0,3.8851,text_option_1,,0,0,0,199,1
5cb63520029f810015b238f8,63f3cfca20052e4ae7554ebf,6453ce136c5c72538d820acd,2023-05-04_17h25.12.465,ga_syllabified_check,2022.2.5,Win32,60.11060351,,,,,,,,,,,,,,./stim/p08_syllable_1_faluduako_hit.wav,p08,faluduako,hit,fa-lu-duai-ko,fa-lu-dua-ko,fa-lu-du-a-ko, ,0.015567207,-0.3,1,0,0,3.5011,text_option_other,fa-lu-duai-ko,0,1,1,172,1
5cb63520029f810015b238f8,63f3cfca20052e4ae7554ebf,6453ce136c5c72538d820acd,2023-05-04_17h25.12.465,ga_syllabified_check,2022.2.5,Win32,60.11060351,,,,,,,,,,,,,,./stim/p06_syllable_1_flauro_hit.wav,p06,flauro,hit,fla-u-ro,flau-ro,fla-u-ro, ,0.422048569,-0.105555534,1,0,0,2.2014,text_option_2,,0,2,2,107,1
5cb63520029f810015b238f8,63f3cfca20052e4ae7554ebf,6453ce136c5c72538d820acd,2023-05-04_17h25.12.465,ga_syllabified_check,2022.2.5,Win32,60.11060351,,,,,,,,,,,,,,./stim/p08_syllable_1_lakakiaisto_hit.wav,p08,lakakiaisto,hit,la-ka-ki-jas-to,la-ka-kiais-to,la-ka-ki-ais-to,la-ka-kia-is-to,0.054456011,-0.29629631,1,0,0,4.8517,text_option_other,la-ka-kias-to,0,3,3,184,1
5cb63520029f810015b238f8,63f3cfca20052e4ae7554ebf,6453ce136c5c72538d820acd,2023-05-04_17h25.12.465,ga_syllabified_check,2022.2.5,Win32,60.11060351,,,,,,,,,,,,,,./stim/p08_syllable_1_rausto_hit.wav,p08,rausto,hit,raus-to,raus-to,ra-us-to, ,-0.377951399,-0.089814822,1,0,0,1.5174,text_option_1,,0,4,4,201,1
5cb63520029f810015b238f8,63f3cfca20052e4ae7554ebf,6453ce136c5c72538d820acd,2023-05-04_17h25.12.465,ga_syllabified_check,2022.2.5,Win32,60.11060351,,,,,,,,,,,,,,./stim/p04_syllable_1_lakafuaisto_hit.wav,p04,lakafuaisto,hit,la-ka-fuais-to,la-ka-fuais-to,la-ka-fu-ais-to,la-ka-fua-is-to,-0.344618034,-0.104629644,1,0,0,3.5179,text_option_1,,0,5,5,45,1
5cb63520029f810015b238f8,63f3cfca20052e4ae7554ebf,6453ce136c5c72538d820acd,2023-05-04_17h25.12.465,ga_syllabified_check,2022.2.5,Win32,60.11060351,,,,,,,,,,,,,,./stim/p07_syllable_1_lakadiaisto_hit.wav,p07,lakadiaisto,hit,la-ka-dia-is-to,la-ka-diais-to,la-ka-di-ais-to,la-ka-dia-is-to,0.057233874,-0.099074109,1,0,0,3.9179,text_option_3,,0,6,6,144,1
5cb63520029f810015b238f8,63f3cfca20052e4ae7554ebf,6453ce136c5c72538d820acd,2023-05-04_17h25.12.465,ga_syllabified_check,2022.2.5,Win32,60.11060351,,,,,,,,,,,,,,./stim/p08_syllable_1_lakabiaisto_hit.wav,p08,lakabiaisto,hit,la-ka-bi-as-to,la-ka-biais-to,la-ka-bi-ais-to,la-ka-bia-is-to,0.010011609,-0.293518575,1,0,0,4.1015,text_option_other,la-ka-bias-to,0,7,7,176,1
5cb63520029f810015b238f8,63f3cfca20052e4ae7554ebf,6453ce136c5c72538d820acd,2023-05-04_17h25.12.465,ga_syllabified_check,2022.2.5,Win32,60.11060351,,,,,,,,,,,,,,./stim/p04_syllable_1_lakapiaisto_hit.wav,p04,lakapiaisto,hit,la-ka-piais-to,la-ka-piais-to,la-ka-pi-ais-to,la-ka-pia-is-to,0.000752322,-0.300925954,1,0,0,6.0355,text_option_other,la-kra-piais-to,0,8,8,50,1
5cb63520029f810015b238f8,63f3cfca20052e4ae7554ebf,6453ce136c5c72538d820acd,2023-05-04_17h25.12.465,ga_syllabified_check,2022.2.5,Win32,60.11060351,,,,,,,,,,,,,,./stim/p05_syllable_1_lakapuaisto_hit.wav,p05,lakapuaisto,hit,la-ka-pais-to,la-ka-puais-to,la-ka-pu-ais-to,la-ka-pua-is-to,-0.035358747,-0.313888868,1,0,0,5.585,text_option_other,la-kai-pais-to,0,9,9,85,1
5cb63520029f810015b238f8,63f3cfca20052e4ae7554ebf,6453ce136c5c72538d820acd,2023-05-04_17h25.12.465,ga_syllabified_check,2022.2.5,Win32,60.11060351,,,,,,,,,,,,,,./stim/p05_syllable_1_manhiala_hit.wav,p05,mañiala,hit,ma-nhia-la,ma-ñia-la,ma-ñi-a-la, ,0.437789408,-0.117592684,1,0,0,6.5687,text_option_2,,0,10,10,89,1
5cb63520029f810015b238f8,63f3cfca20052e4ae7554ebf,6453ce136c5c72538d820acd,2023-05-04_17h25.12.465,ga_syllabified_check,2022.2.5,Win32,60.11060351,,,,,,,,,,,,,,./stim/p04_syllable_1_costonhialo_hit.wav,p04,costoñialo,hit,cos-to-nhia-lo,cos-to-ñia-lo,cos-to-ñi-a-lo, ,-0.333506966,-0.109259288,1,0,0,3.4513,text_option_1,,0,11,11,35,1
5cb63520029f810015b238f8,63f3cfca20052e4ae7554ebf,6453ce136c5c72538d820acd,2023-05-04_17h25.12.465,ga_syllabified_check,2022.2.5,Win32,60.11060351,,,,,,,,,,,,,,./stim/p04_syllable_1_paluguato_hit.wav,p04,paluguato,hit,pa-lu-gua,pa-lu-gua-to,pa-lu-gu-a-to, ,-0.035358747,-0.29629631,1,0,0,3.3844,text_option_other,pa-lu-gua,0,12,12,61,1
5cb63520029f810015b238f8,63f3cfca20052e4ae7554ebf,6453ce136c5c72538d820acd,2023-05-04_17h25.12.465,ga_syllabified_check,2022.2.5,Win32,60.11060351,,,,,,,,,,,,,,./stim/p05_syllable_1_lakafiaisto_hit.wav,p05,lakafiaisto,hit,la-ka-fi-ais-to,la-ka-fiais-to,la-ka-fi-ais-to,la-ka-fia-is-to,0.410937627,-0.116666667,1,0,0,9.147,text_option_2,,0,13,13,78,1
5cb63520029f810015b238f8,63f3cfca20052e4ae7554ebf,6453ce136c5c72538d820acd,2023-05-04_17h25.12.465,ga_syllabified_check,2022.2.5,Win32,60.11060351,,,,,,,,,,,,,,./stim/p06_syllable_1_lakakiaisto_hit.wav,p06,lakakiaisto,hit,la-ka-kia-is-to,la-ka-kiais-to,la-ka-ki-ais-to,la-ka-kia-is-to,0.072974523,-0.110185178,1,0,0,5.1023,text_option_3,,0,14,14,116,1
5cb63520029f810015b238f8,63f3cfca20052e4ae7554ebf,6453ce136c5c72538d820acd,2023-05-04_17h25.12.465,ga_syllabified_check,2022.2.5,Win32,60.11060351,,,,,,,,,,,,,,./stim/p04_syllable_1_falutraigo_hit.wav,p04,falutraigo,hit,fa-lu-trai-go,fa-lu-trai-go,fa-lu-tra-i-go, ,-0.328877322,-0.101851845,1,0,0,3.2515,text_option_1,,0,15,15,38,1
5cb63520029f810015b238f8,63f3cfca20052e4ae7554ebf,6453ce136c5c72538d820acd,2023-05-04_17h25.12.465,ga_syllabified_check,2022.2.5,Win32,60.11060351,,,,,,,,,,,,,,./stim/p05_syllable_1_chiaba_hit.wav,p05,chiaba,hit,chia-ba,chia-ba,chi-a-ba, ,0.026678276,-0.289814822,1,0,0,1.1005,text_option_other,chai-ba,0,16,16,68,1
5cb63520029f810015b238f8,63f3cfca20052e4ae7554ebf,6453ce136c5c72538d820acd,2023-05-04_17h25.12.465,ga_syllabified_check,2022.2.5,Win32,60.11060351,,,,,,,,,,,,,,./stim/p07_syllable_1_lakafuaisto_hit.wav,p07,lakafuaisto,hit,la-ka-fuais-to,la-ka-fuais-to,la-ka-fu-ais-to,la-ka-fua-is-to,-0.373321756,-0.1,1,0,0,3.3519,text_option_1,,0,17,17,147,1
5cb63520029f810015b238f8,63f3cfca20052e4ae7554ebf,6453ce136c5c72538d820acd,2023-05-04_17h25.12.465,ga_syllabified_check,2022.2.5,Win32,60.11060351,,,,,,,,,,,,,,./stim/p06_syllable_1_costonhialo_hit.wav,p06,costoñialo,hit,cos-to-nhia-lo,cos-to-ñia-lo,cos-to-ñi-a-lo, ,-0.337210655,-0.094444593,1,0,0,3.4176,text_option_1,,0,18,18,103,1
5cb63520029f810015b238f8,63f3cfca20052e4ae7554ebf,6453ce136c5c72538d820acd,2023-05-04_17h25.12.465,ga_syllabified_check,2022.2.5,Win32,60.11060351,,,,,,,,,,,,,,./stim/p05_syllable_1_faluduako_hit.wav,p05,faluduako,hit,fa-lu-ba-ko,fa-lu-dua-ko,fa-lu-du-a-ko, ,0.034085719,-0.27870369,1,0,0,1.6171,text_option_other,fa-lu-pa-ko,0,19,19,70,1
5cb63520029f810015b238f8,63f3cfca20052e4ae7554ebf,6453ce136c5c72538d820acd,2023-05-04_17h25.12.465,ga_syllabified_check,2022.2.5,Win32,60.11060351,,,,,,,,,,,,,,./stim/p03_syllable_1_lakaduaisto_hit.wav,p03,lakaduaisto,hit,la-ka-duais-to,la-ka-duais-to,la-ka-du-ais-to,la-ka-dua-is-to,-0.348321724,-0.098148155,1,0,0,2.768,text_option_1,,0,20,20,9,1
5cb63520029f810015b238f8,63f3cfca20052e4ae7554ebf,6453ce136c5c72538d820acd,2023-05-04_17h25.12.465,ga_syllabified_check,2022.2.5,Win32,60.11060351,,,,,,,,,,,,,,./stim/p04_syllable_1_chiaba_hit.wav,p04,chiaba,hit,chia-ba,chia-ba,chi-a-ba, ,-0.348321724,-0.098148155,1,0,0,1.5506,text_option_1,,0,21,21,34,1
5cb63520029f810015b238f8,63f3cfca20052e4ae7554ebf,6453ce136c5c72538d820acd,2023-05-04_17h25.12.465,ga_syllabified_check,2022.2.5,Win32,60.11060351,,,,,,,,,,,,,,./stim/p04_syllable_1_lakadiaisto_hit.wav,p04,lakadiaisto,hit,la-ka-dias-to,la-ka-diais-to,la-ka-di-ais-to,la-ka-dia-is-to,-0.341840299,-0.091666667,1,0,0,3.6347,text_option_1,,0,22,22,42,1
5cb63520029f810015b238f8,63f3cfca20052e4ae7554ebf,6453ce136c5c72538d820acd,2023-05-04_17h25.12.465,ga_syllabified_check,2022.2.5,Win32,60.11060351,,,,,,,,,,,,,,./stim/p07_syllable_1_pachialo_hit.wav,p07,pachialo,hit,pa-cha-lo,pa-chia-lo,pa-chi-a-lo, ,-0.022395833,-0.311111132,1,0,0,1.5001,text_option_other,pa-cha-lo,0,23,23,160,1
5cb63520029f810015b238f8,63f3cfca20052e4ae7554ebf,6453ce136c5c72538d820acd,2023-05-04_17h25.12.465,ga_syllabified_check,2022.2.5,Win32,60.11060351,,,,,,,,,,,,,,./stim/p05_syllable_1_palufauto_hit.wav,p05,palufauto,hit,pa-lu-fau-to,pa-lu-fau-to,pa-lu-fa-u-to, ,-0.340914345,-0.108333397,1,0,0,2.36,text_option_1,,0,24,24,94,1
5cb63520029f810015b238f8,63f3cfca20052e4ae7554ebf,6453ce136c5c72538d820acd,2023-05-04_17h25.12.465,ga_syllabified_check,2022.2.5,Win32,60.11060351,,,,,,,,,,,,,,./stim/p05_syllable_1_lakakiaisto_hit.wav,p05,lakakiaisto,hit,la-ka-ki-ais-to,la-ka-kiais-to,la-ka-ki-ais-to,la-ka-kia-is-to,-0.324247678,-0.101851845,1,0,0,2.5678,text_option_1,,0,25,25,82,1
5cb63520029f810015b238f8,63f3cfca20052e4ae7554ebf,6453ce136c5c72538d820acd,2023-05-04_17h25.12.465,ga_syllabified_check,2022.2.5,Win32,60.11060351,,,,,,,,,,,,,,./stim/p03_syllable_1_mebochiana_hit.wav,p03,mebochiana,hit,me-bo-chia-na,me-bo-chia-na,me-bo-chi-a-na, ,-0.044617907,-0.308333333,1,0,0,4.1264,text_option_other,me-bo-xia-na,0,26,26,22,1
5cb63520029f810015b238f8,63f3cfca20052e4ae7554ebf,6453ce136c5c72538d820acd,2023-05-04_17h25.12.465,ga_syllabified_check,2022.2.5,Win32,60.11060351,,,,,,,,,,,,,,./stim/p07_syllable_1_falutraigo_hit.wav,p07,falutraigo,hit,fa-lu-trai-go,fa-lu-trai-go,fa-lu-tra-i-go, ,-0.324247678,-0.102777799,1,0,0,3.0184,text_option_1,,0,27,27,140,1
5cb63520029f810015b238f8,63f3cfca20052e4ae7554ebf,6453ce136c5c72538d820acd,2023-05-04_17h25.12.465,ga_syllabified_check,2022.2.5,Win32,60.11060351,,,,,,,,,,,,,,./stim/p08_syllable_1_manhiala_hit.wav,p08,mañiala,hit,ma-nhia-la,ma-ñia-la,ma-ñi-a-la, ,-0.386284733,-0.09629631,1,0,0,2.2742,text_option_1,,0,28,28,191,1
5cb63520029f810015b238f8,63f3cfca20052e4ae7554ebf,6453ce136c5c72538d820acd,2023-05-04_17h25.12.465,ga_syllabified_check,2022.2.5,Win32,60.11060351,,,,,,,,,,,,,,./stim/p04_syllable_1_falufaisto_hit.wav,p04,falufaisto,hit,fa-lu-fais-to,fa-lu-fais-to,fa-lu-fa-is-to, ,-0.349247678,-0.107407443,1,0,0,1.4011,text_option_1,,0,29,29,37,1
5cb63520029f810015b238f8,63f3cfca20052e4ae7554ebf,6453ce136c5c72538d820acd,2023-05-04_17h25.12.465,ga_syllabified_check,2022.2.5,Win32,60.11060351,,,,,,,,,,,,,,./stim/p08_syllable_1_lakafuaisto_hit.wav,p08,lakafuaisto,hit,la-ka-fju-ais-to,la-ka-fuais-to,la-ka-fu-ais-to,la-ka-fua-is-to,-0.053877258,-0.295370356,1,0,0,2.4675,text_option_other,la-ka-fiuais-to,0,30,30,181,1
5cb63520029f810015b238f8,63f3cfca20052e4ae7554ebf,6453ce136c5c72538d820acd,2023-05-04_17h25.12.465,ga_syllabified_check,2022.2.5,Win32,60.11060351,,,,,,,,,,,,,,./stim/p07_syllable_1_lakakiaisto_hit.wav,p07,lakakiaisto,hit,la-ka-kais-to,la-ka-kiais-to,la-ka-ki-ais-to,la-ka-kia-is-to,0.005381966,-0.320370356,1,0,0,2.1341,text_option_other,la-ka-kais-to,0,31,31,150,1
5cb63520029f810015b238f8,63f3cfca20052e4ae7554ebf,6453ce136c5c72538d820acd,2023-05-04_17h25.12.465,ga_syllabified_check,2022.2.5,Win32,60.11060351,,,,,,,,,,,,,,./stim/p07_syllable_1_lakabiaisto_hit.wav,p07,lakabiaisto,hit,la-ka-bais-to,la-ka-biais-to,la-ka-bi-ais-to,la-ka-bia-is-to,0.0359375,-0.302777926,1,0,0,2.3172,text_option_other,la-ka-bais-to,0,32,32,142,1
5cb63520029f810015b238f8,63f3cfca20052e4ae7554ebf,6453ce136c5c72538d820acd,2023-05-04_17h25.12.465,ga_syllabified_check,2022.2.5,Win32,60.11060351,,,,,,,,,,,,,,./stim/p05_syllable_1_lakapiaisto_hit.wav,p05,lakapiaisto,hit,la-ka-pais-to,la-ka-piais-to,la-ka-pi-ais-to,la-ka-pia-is-to,0.013715299,-0.317592621,1,0,0,2.6017,text_option_other,la-ka-pais-to,0,33,33,84,1
5cb63520029f810015b238f8,63f3cfca20052e4ae7554ebf,6453ce136c5c72538d820acd,2023-05-04_17h25.12.465,ga_syllabified_check,2022.2.5,Win32,60.11060351,,,,,,,,,,,,,,./stim/p06_syllable_1_falutraigo_hit.wav,p06,falutraigo,hit,fa-lu-tra-i-go,fa-lu-trai-go,fa-lu-tra-i-go, ,0.422048569,-0.095370356,1,0,0,4.4016,text_option_2,,0,34,34,106,1
5cb63520029f810015b238f8,63f3cfca20052e4ae7554ebf,6453ce136c5c72538d820acd,2023-05-04_17h25.12.465,ga_syllabified_check,2022.2.5,Win32,60.11060351,,,,,,,,,,,,,,./stim/p06_syllable_1_faluduako_hit.wav,p06,faluduako,hit,fa-lu-dua-ko,fa-lu-dua-ko,fa-lu-du-a-ko, ,-0.3390625,-0.108333397,1,0,0,3.5517,text_option_1,,0,35,35,104,1
5cb63520029f810015b238f8,63f3cfca20052e4ae7554ebf,6453ce136c5c72538d820acd,2023-05-04_17h25.12.465,ga_syllabified_check,2022.2.5,Win32,60.11060351,,,,,,,,,,,,,,./stim/p04_syllable_1_lakatiaisto_hit.wav,p04,lakatiaisto,hit,la-ka-kiais-to,la-ka-tiais-to,la-ka-ti-ais-to,la-ka-tia-is-to,-0.325173632,-0.110185178,1,0,0,5.0185,text_option_1,,0,36,36,52,1
5cb63520029f810015b238f8,63f3cfca20052e4ae7554ebf,6453ce136c5c72538d820acd,2023-05-04_17h25.12.465,ga_syllabified_check,2022.2.5,Win32,60.11060351,,,,,,,,,,,,,,./stim/p04_syllable_1_pachialo_hit.wav,p04,pachialo,hit,pa-chia-lo,pa-chia-lo,pa-chi-a-lo, ,-0.366840267,-0.116666667,1,0,0,2.3677,text_option_1,,0,37,37,58,1
5cb63520029f810015b238f8,63f3cfca20052e4ae7554ebf,6453ce136c5c72538d820acd,2023-05-04_17h25.12.465,ga_syllabified_check,2022.2.5,Win32,60.11060351,,,,,,,,,,,,,,./stim/p07_syllable_1_palufauto_hit.wav,p07,palufauto,hit,pa-lu-fau-to,pa-lu-fau-to,pa-lu-fa-u-to, ,-0.339988391,-0.09629631,1,0,0,1.9009,text_option_1,,0,38,38,162,1
5cb63520029f810015b238f8,63f3cfca20052e4ae7554ebf,6453ce136c5c72538d820acd,2023-05-04_17h25.12.465,ga_syllabified_check,2022.2.5,Win32,60.11060351,,,,,,,,,,,,,,./stim/p07_syllable_1_lakapiaisto_hit.wav,p07,lakapiaisto,hit,la-ka-pia-sto,la-ka-piais-to,la-ka-pi-ais-to,la-ka-pia-is-to,-0.067766126,-0.302777926,1,0,0,4.9188,text_option_other,la-ka-pia-s-to,0,39,39,152,1
5cb63520029f810015b238f8,63f3cfca20052e4ae7554ebf,6453ce136c5c72538d820acd,2023-05-04_17h25.12.465,ga_syllabified_check,2022.2.5,Win32,60.11060351,,,,,,,,,,,,,,./stim/p06_syllable_1_lakadiaisto_hit.wav,p06,lakadiaisto,hit,la-ka-dia-is-to,la-ka-diais-to,la-ka-di-ais-to,la-ka-dia-is-to,0.068344943,-0.103703753,1,0,0,3.551,text_option_3,,0,40,40,110,1
5cb63520029f810015b238f8,63f3cfca20052e4ae7554ebf,6453ce136c5c72538d820acd,2023-05-04_17h25.12.465,ga_syllabified_check,2022.2.5,Win32,60.11060351,,,,,,,,,,,,,,./stim/p05_syllable_1_falutraigo_hit.wav,p05,falutraigo,hit,fa-lu-trai-go,fa-lu-trai-go,fa-lu-tra-i-go, ,-0.3390625,-0.087962977,1,0,0,1.6009,text_option_1,,0,41,41,72,1
5cb63520029f810015b238f8,63f3cfca20052e4ae7554ebf,6453ce136c5c72538d820acd,2023-05-04_17h25.12.465,ga_syllabified_check,2022.2.5,Win32,60.11060351,,,,,,,,,,,,,,./stim/p03_syllable_1_lakafuaisto_hit.wav,p03,lakafuaisto,hit,la-ka-fuais-to,la-ka-fuais-to,la-ka-fu-ais-to,la-ka-fua-is-to,-0.360358779,-0.108333397,1,0,0,2.1676,text_option_1,,0,42,42,11,1
5cb63520029f810015b238f8,63f3cfca20052e4ae7554ebf,6453ce136c5c72538d820acd,2023-05-04_17h25.12.465,ga_syllabified_check,2022.2.5,Win32,60.11060351,,,,,,,,,,,,,,./stim/p03_syllable_1_manhiala_hit.wav,p03,mañiala,hit,ma-nhia-la,ma-ñia-la,ma-ñi-a-la, ,-0.344618034,-0.103703753,1,0,0,2.5844,text_option_1,,0,43,43,21,1
5cb63520029f810015b238f8,63f3cfca20052e4ae7554ebf,6453ce136c5c72538d820acd,2023-05-04_17h25.12.465,ga_syllabified_check,2022.2.5,Win32,60.11060351,,,,,,,,,,,,,,./stim/p05_syllable_1_lakabuaisto_hit.wav,p05,lakabuaisto,hit,la-ka-buais-to,la-ka-buais-to,la-ka-bu-ais-to,la-ka-bua-is-to,-0.354803212,-0.105555534,1,0,0,3.4182,text_option_1,,0,44,44,75,1
5cb63520029f810015b238f8,63f3cfca20052e4ae7554ebf,6453ce136c5c72538d820acd,2023-05-04_17h25.12.465,ga_syllabified_check,2022.2.5,Win32,60.11060351,,,,,,,,,,,,,,./stim/p04_syllable_1_lakafiaisto_hit.wav,p04,lakafiaisto,hit,la-ka-fiais-to,la-ka-fiais-to,la-ka-fi-ais-to,la-ka-fia-is-to,-0.353877322,-0.110185178,1,0,0,3.1512,text_option_1,,0,45,45,44,1
5cb63520029f810015b238f8,63f3cfca20052e4ae7554ebf,6453ce136c5c72538d820acd,2023-05-04_17h25.12.465,ga_syllabified_check,2022.2.5,Win32,60.11060351,,,,,,,,,,,,,,./stim/p08_syllable_1_falutraigo_hit.wav,p08,falutraigo,hit,fa-lu-trai-go,fa-lu-trai-go,fa-lu-tra-i-go, ,-0.332581011,-0.102777799,1,0,0,2.068,text_option_1,,0,46,46,174,1
5cb63520029f810015b238f8,63f3cfca20052e4ae7554ebf,6453ce136c5c72538d820acd,2023-05-04_17h25.12.465,ga_syllabified_check,2022.2.5,Win32,60.11060351,,,,,,,,,,,,,,./stim/p07_syllable_1_lakatuaisto_hit.wav,p07,lakatuaisto,hit,la-ka-tuais-to,la-ka-tuais-to,la-ka-tu-ais-to,la-ka-tua-is-to,-0.329803212,-0.100925954,1,0,0,3.5682,text_option_1,,0,47,47,155,1
5cb63520029f810015b238f8,63f3cfca20052e4ae7554ebf,6453ce136c5c72538d820acd,2023-05-04_17h25.12.465,ga_syllabified_check,2022.2.5,Win32,60.11060351,,,,,,,,,,,,,,./stim/p05_syllable_1_lakabiaisto_hit.wav,p05,lakabiaisto,hit,la-ka-bi-ais-to,la-ka-biais-to,la-ka-bi-ais-to,la-ka-bia-is-to,0.065567144,-0.110185178,1,0,0,4.9963,text_option_3,,0,48,48,74,1
5cb63520029f810015b238f8,63f3cfca20052e4ae7554ebf,6453ce136c5c72538d820acd,2023-05-04_17h25.12.465,ga_syllabified_check,2022.2.5,Win32,60.11060351,,,,,,,,,,,,,,./stim/p08_syllable_1_ruyiola_hit.wav,p08,ruyiola,hit,ru-yio-la,ru-yio-la,ru-yi-o-la, ,-0.370543989,-0.101851845,1,0,0,2.9513,text_option_1,,0,49,49,202,1
5cb63520029f810015b238f8,63f3cfca20052e4ae7554ebf,6453ce136c5c72538d820acd,2023-05-04_17h25.12.465,ga_syllabified_check,2022.2.5,Win32,60.11060351,,,,,,,,,,,,,,./stim/p04_syllable_1_mebochiana_hit.wav,p04,mebochiana,hit,me-bo-chia-na,me-bo-chia-na,me-bo-chi-a-na, ,-0.347395833,-0.105555534,1,0,0,1.584,text_option_1,,0,50,50,56,1
5cb63520029f810015b238f8,63f3cfca20052e4ae7554ebf,6453ce136c5c72538d820acd,2023-05-04_17h25.12.465,ga_syllabified_check,2022.2.5,Win32,60.11060351,,,,,,,,,,,,,,./stim/p04_syllable_1_lakabuaisto_hit.wav,p04,lakabuaisto,hit,la-ka-buais-to,la-ka-buais-to,la-ka-bu-ais-to,la-ka-bua-is-to,-0.334432856,-0.081481489,1,0,0,1.4598,text_option_1,,0,51,51,41,1
5cb63520029f810015b238f8,63f3cfca20052e4ae7554ebf,6453ce136c5c72538d820acd,2023-05-04_17h25.12.465,ga_syllabified_check,2022.2.5,Win32,60.11060351,,,,,,,,,,,,,,./stim/p07_syllable_1_paluguato_hit.wav,p07,paluguato,hit,pa-lu-gua-to,pa-lu-gua-to,pa-lu-gu-a-to, ,-0.343692144,-0.112037023,1,0,0,1.6505,text_option_1,,0,52,52,163,1
5cb63520029f810015b238f8,63f3cfca20052e4ae7554ebf,6453ce136c5c72538d820acd,2023-05-04_17h25.12.465,ga_syllabified_check,2022.2.5,Win32,60.11060351,,,,,,,,,,,,,,./stim/p07_syllable_1_lakabuaisto_hit.wav,p07,lakabuaisto,hit,la-ka-buais-to,la-ka-buais-to,la-ka-bu-ais-to,la-ka-bua-is-to,-0.3390625,-0.109259288,1,0,0,2.4602,text_option_1,,0,53,53,143,1
5cb63520029f810015b238f8,63f3cfca20052e4ae7554ebf,6453ce136c5c72538d820acd,2023-05-04_17h25.12.465,ga_syllabified_check,2022.2.5,Win32,60.11060351,,,,,,,,,,,,,,./stim/p05_syllable_1_palufauro_hit.wav,p05,palufauro,hit,pa-lu-fau-ro,pa-lu-fau-ro,pa-lu-fa-u-ro, ,-0.352025477,-0.109259288,1,0,0,1.3172,text_option_1,,0,54,54,93,1
5cb63520029f810015b238f8,63f3cfca20052e4ae7554ebf,6453ce136c5c72538d820acd,2023-05-04_17h25.12.465,ga_syllabified_check,2022.2.5,Win32,60.11060351,,,,,,,,,,,,,,./stim/p06_syllable_1_mebochiana_hit.wav,p06,mebochiana,hit,me-bo-shi-a-na,me-bo-chia-na,me-bo-chi-a-na, ,0.418344879,-0.091666667,1,0,0,4.7353,text_option_2,,0,55,55,124,1
5cb63520029f810015b238f8,63f3cfca20052e4ae7554ebf,6453ce136c5c72538d820acd,2023-05-04_17h25.12.465,ga_syllabified_check,2022.2.5,Win32,60.11060351,,,,,,,,,,,,,,./stim/p05_syllable_1_payielo_hit.wav,p05,payielo,hit,pai-yu-we-lo,pa-yie-lo,pa-yi-e-lo, ,0.010937564,-0.308333333,1,0,0,1.8841,text_option_other,pa-yue-lo,0,56,56,98,1
5cb63520029f810015b238f8,63f3cfca20052e4ae7554ebf,6453ce136c5c72538d820acd,2023-05-04_17h25.12.465,ga_syllabified_check,2022.2.5,Win32,60.11060351,,,,,,,,,,,,,,./stim/p06_syllable_1_chiaba_hit.wav,p06,chiaba,hit,chi-a-ba,chia-ba,chi-a-ba, ,-0.381655089,-0.113888868,1,0,0,2.5676,text_option_1,,0,57,57,102,1
5cb63520029f810015b238f8,63f3cfca20052e4ae7554ebf,6453ce136c5c72538d820acd,2023-05-04_17h25.12.465,ga_syllabified_check,2022.2.5,Win32,60.11060351,,,,,,,,,,,,,,./stim/p03_syllable_1_costonhialo_hit.wav,p03,costoñialo,hit,cos-to-nhia-lo,cos-to-ñia-lo,cos-to-ñi-a-lo, ,-0.336284701,-0.110185178,1,0,0,3.8684,text_option_1,,0,58,58,1,1
5cb63520029f810015b238f8,63f3cfca20052e4ae7554ebf,6453ce136c5c72538d820acd,2023-05-04_17h25.12.465,ga_syllabified_check,2022.2.5,Win32,60.11060351,,,,,,,,,,,,,,./stim/p03_syllable_1_pachialo_hit.wav,p03,pachialo,hit,pa-chia-lo,pa-chia-lo,pa-chi-a-lo, ,-0.361284733,-0.090740776,1,0,0,1.6851,text_option_1,,0,59,59,24,1
5cb63520029f810015b238f8,63f3cfca20052e4ae7554ebf,6453ce136c5c72538d820acd,2023-05-04_17h25.12.465,ga_syllabified_check,2022.2.5,Win32,60.11060351,,,,,,,,,,,,,,./stim/p03_syllable_1_lakabuaisto_hit.wav,p03,lakabuaisto,hit,la-ka-buais-to,la-ka-buais-to,la-ka-bu-ais-to,la-ka-bua-is-to,-0.34276619,-0.105555534,1,0,0,1.8178,text_option_1,,0,60,60,7,1
5cb63520029f810015b238f8,63f3cfca20052e4ae7554ebf,6453ce136c5c72538d820acd,2023-05-04_17h25.12.465,ga_syllabified_check,2022.2.5,Win32,60.11060351,,,,,,,,,,,,,,./stim/p05_syllable_1_lakagiaisto_hit.wav,p05,lakagiaisto,hit,la-ka-ki-ais-to,la-ka-giais-to,la-ka-gi-ais-to,la-ka-gia-is-to,-0.338136546,-0.094444593,1,0,0,2.3676,text_option_1,,0,61,61,80,1
5cb63520029f810015b238f8,63f3cfca20052e4ae7554ebf,6453ce136c5c72538d820acd,2023-05-04_17h25.12.465,ga_syllabified_check,2022.2.5,Win32,60.11060351,,,,,,,,,,,,,,./stim/p08_syllable_1_lakadiaisto_hit.wav,p08,lakadiaisto,hit,la-ka-di-jas-to,la-ka-diais-to,la-ka-di-ais-to,la-ka-dia-is-to,0.06464119,-0.299074109,1,0,0,3.2844,text_option_other,la-ka-dias-to,0,62,62,178,1
5cb63520029f810015b238f8,63f3cfca20052e4ae7554ebf,6453ce136c5c72538d820acd,2023-05-04_17h25.12.465,ga_syllabified_check,2022.2.5,Win32,60.11060351,,,,,,,,,,,,,,./stim/p07_syllable_1_lakatiaisto_hit.wav,p07,lakatiaisto,hit,la-ka-tiai-sto,la-ka-tiais-to,la-ka-ti-ais-to,la-ka-tia-is-to,0.072974523,-0.105555534,1,0,0,4.8521,text_option_3,,0,63,63,154,1
5cb63520029f810015b238f8,63f3cfca20052e4ae7554ebf,6453ce136c5c72538d820acd,2023-05-04_17h25.12.465,ga_syllabified_check,2022.2.5,Win32,60.11060351,,,,,,,,,,,,,,./stim/p03_syllable_1_nhiape_hit.wav,p03,ñiape,hit,nhia-pe,ñia-pe,ñi-a-pe, ,-0.380729167,-0.108333397,1,0,0,1.3173,text_option_1,,0,64,64,23,1
5cb63520029f810015b238f8,63f3cfca20052e4ae7554ebf,6453ce136c5c72538d820acd,2023-05-04_17h25.12.465,ga_syllabified_check,2022.2.5,Win32,60.11060351,,,,,,,,,,,,,,./stim/p08_syllable_1_lliape_hit.wav,p08,lliape,hit,li-a-pe,llia-pe,lli-a-pe, ,0.398900477,-0.086111132,1,0,0,1.0673,text_option_2,,0,65,65,190,1
5cb63520029f810015b238f8,63f3cfca20052e4ae7554ebf,6453ce136c5c72538d820acd,2023-05-04_17h25.12.465,ga_syllabified_check,2022.2.5,Win32,60.11060351,,,,,,,,,,,,,,./stim/p06_syllable_1_palufauto_hit.wav,p06,palufauto,hit,pa-lu-fau-to,pa-lu-fau-to,pa-lu-fa-u-to, ,-0.352951368,-0.092592621,1,0,0,3.3516,text_option_1,,0,66,66,128,1
5cb63520029f810015b238f8,63f3cfca20052e4ae7554ebf,6453ce136c5c72538d820acd,2023-05-04_17h25.12.465,ga_syllabified_check,2022.2.5,Win32,60.11060351,,,,,,,,,,,,,,./stim/p08_syllable_1_tuliafo_hit.wav,p08,tuliafo,hit,tu-li-a-fo,tu-lia-fo,tu-li-a-fo, ,0.376678212,-0.092592621,1,0,0,2.1174,text_option_2,,0,67,67,203,1
5cb63520029f810015b238f8,63f3cfca20052e4ae7554ebf,6453ce136c5c72538d820acd,2023-05-04_17h25.12.465,ga_syllabified_check,2022.2.5,Win32,60.11060351,,,,,,,,,,,,,,./stim/p08_syllable_1_palumaisto_hit.wav,p08,palumaisto,hit,pa-lu-mais-to,pa-lu-mais-to,pa-lu-ma-is-to, ,-0.315914345,-0.097222201,1,0,0,2.2008,text_option_1,,0,68,68,198,1
5cb63520029f810015b238f8,63f3cfca20052e4ae7554ebf,6453ce136c5c72538d820acd,2023-05-04_17h25.12.465,ga_syllabified_check,2022.2.5,Win32,60.11060351,,,,,,,,,,,,,,./stim/p04_syllable_1_tuliafo_hit.wav,p04,tuliafo,hit,tu-lia-fo,tu-lia-fo,tu-li-a-fo, ,-0.39276619,-0.087037023,1,0,0,1.9839,text_option_1,,0,69,69,67,1
5cb63520029f810015b238f8,63f3cfca20052e4ae7554ebf,6453ce136c5c72538d820acd,2023-05-04_17h25.12.465,ga_syllabified_check,2022.2.5,Win32,60.11060351,,,,,,,,,,,,,,./stim/p03_syllable_1_rausto_hit.wav,p03,rausto,hit,raus-to,raus-to,ra-us-to, ,-0.397395833,-0.098148155,1,0,0,0.8834,text_option_1,,0,70,70,31,1
5cb63520029f810015b238f8,63f3cfca20052e4ae7554ebf,6453ce136c5c72538d820acd,2023-05-04_17h25.12.465,ga_syllabified_check,2022.2.5,Win32,60.11060351,,,,,,,,,,,,,,./stim/p07_syllable_1_ruyiola_hit.wav,p07,ruyiola,hit,ru-yio-la,ru-yio-la,ru-yi-o-la, ,-0.380729167,-0.080555534,1,0,0,1.4505,text_option_1,,0,71,71,168,1
5cb63520029f810015b238f8,63f3cfca20052e4ae7554ebf,6453ce136c5c72538d820acd,2023-05-04_17h25.12.465,ga_syllabified_check,2022.2.5,Win32,60.11060351,,,,,,,,,,,,,,./stim/p08_syllable_1_mebochiana_hit.wav,p08,mebochiana,hit,me-bo-chi-a-na,me-bo-chia-na,me-bo-chi-a-na, ,0.380381902,-0.088888868,1,0,0,2.1341,text_option_2,,0,72,72,192,1
5cb63520029f810015b238f8,63f3cfca20052e4ae7554ebf,6453ce136c5c72538d820acd,2023-05-04_17h25.12.465,ga_syllabified_check,2022.2.5,Win32,60.11060351,,,,,,,,,,,,,,./stim/p03_syllable_1_lakadiaisto_hit.wav,p03,lakadiaisto,hit,la-ka-diais-to,la-ka-diais-to,la-ka-di-ais-to,la-ka-dia-is-to,-0.321469879,-0.112037023,1,0,0,1.8006,text_option_1,,0,73,73,8,1
5cb63520029f810015b238f8,63f3cfca20052e4ae7554ebf,6453ce136c5c72538d820acd,2023-05-04_17h25.12.465,ga_syllabified_check,2022.2.5,Win32,60.11060351,,,,,,,,,,,,,,./stim/p06_syllable_1_lakapiaisto_hit.wav,p06,lakapiaisto,hit,la-ka-pia-is-to,la-ka-piais-to,la-ka-pi-ais-to,la-ka-pia-is-to,0.075752322,-0.104629644,1,0,0,4.8019,text_option_3,,0,74,74,118,1
5cb63520029f810015b238f8,63f3cfca20052e4ae7554ebf,6453ce136c5c72538d820acd,2023-05-04_17h25.12.465,ga_syllabified_check,2022.2.5,Win32,60.11060351,,,,,,,,,,,,,,./stim/p06_syllable_1_lliape_hit.wav,p06,lliape,hit,lli-lla-pe,llia-pe,lli-a-pe, ,0.3859375,-0.102777799,1,0,0,1.2878,text_option_2,,0,75,75,122,1
5cb63520029f810015b238f8,63f3cfca20052e4ae7554ebf,6453ce136c5c72538d820acd,2023-05-04_17h25.12.465,ga_syllabified_check,2022.2.5,Win32,60.11060351,,,,,,,,,,,,,,./stim/p04_syllable_1_lliape_hit.wav,p04,lliape,hit,lia-pe,llia-pe,lli-a-pe, ,-0.405729167,-0.102777799,1,0,0,3.1679,text_option_1,,0,76,76,54,1
5cb63520029f810015b238f8,63f3cfca20052e4ae7554ebf,6453ce136c5c72538d820acd,2023-05-04_17h25.12.465,ga_syllabified_check,2022.2.5,Win32,60.11060351,,,,,,,,,,,,,,./stim/p06_syllable_1_falufaisto_hit.wav,p06,falufaisto,hit,fa-lu-fa-is-to,fa-lu-fais-to,fa-lu-fa-is-to, ,0.384085719,-0.09629631,1,0,0,3.3183,text_option_2,,0,77,77,105,1
5cb63520029f810015b238f8,63f3cfca20052e4ae7554ebf,6453ce136c5c72538d820acd,2023-05-04_17h25.12.465,ga_syllabified_check,2022.2.5,Win32,60.11060351,,,,,,,,,,,,,,./stim/p07_syllable_1_tuliafo_hit.wav,p07,tuliafo,hit,tu-lia-fo,tu-lia-fo,tu-li-a-fo, ,-0.374247678,-0.102777799,1,0,0,1.801,text_option_1,,0,78,78,169,1
5cb63520029f810015b238f8,63f3cfca20052e4ae7554ebf,6453ce136c5c72538d820acd,2023-05-04_17h25.12.465,ga_syllabified_check,2022.2.5,Win32,60.11060351,,,,,,,,,,,,,,./stim/p08_syllable_1_lakagiaisto_hit.wav,p08,lakagiaisto,hit,la-ka-gi-jas-to,la-ka-giais-to,la-ka-gi-ais-to,la-ka-gia-is-to,0.351678212,-0.115740776,1,0,0,3.8348,text_option_2,,0,79,79,182,1
5cb63520029f810015b238f8,63f3cfca20052e4ae7554ebf,6453ce136c5c72538d820acd,2023-05-04_17h25.12.465,ga_syllabified_check,2022.2.5,Win32,60.11060351,,,,,,,,,,,,,,./stim/p06_syllable_1_lakatiaisto_hit.wav,p06,lakatiaisto,hit,la-ka-pia-is-to,la-ka-tiais-to,la-ka-ti-ais-to,la-ka-tia-is-to,0.048900477,-0.109259288,1,0,0,3.4354,text_option_3,,0,80,80,120,1
5cb63520029f810015b238f8,63f3cfca20052e4ae7554ebf,6453ce136c5c72538d820acd,2023-05-04_17h25.12.465,ga_syllabified_check,2022.2.5,Win32,60.11060351,,,,,,,,,,,,,,./stim/p07_syllable_1_palumaisto_hit.wav,p07,palumaisto,hit,pa-lu-mais-to,pa-lu-mais-to,pa-lu-ma-is-to, ,-0.332581011,-0.116666667,1,0,0,2.5841,text_option_1,,0,81,81,164,1
5cb63520029f810015b238f8,63f3cfca20052e4ae7554ebf,6453ce136c5c72538d820acd,2023-05-04_17h25.12.465,ga_syllabified_check,2022.2.5,Win32,60.11060351,,,,,,,,,,,,,,./stim/p07_syllable_1_lakakuaisto_hit.wav,p07,lakakuaisto,hit,la-ka-kuais-to,la-ka-kuais-to,la-ka-ku-ais-to,la-ka-kua-is-to,-0.31035881,-0.110185178,1,0,0,2.4677,text_option_1,,0,82,82,151,1
5cb63520029f810015b238f8,63f3cfca20052e4ae7554ebf,6453ce136c5c72538d820acd,2023-05-04_17h25.12.465,ga_syllabified_check,2022.2.5,Win32,60.11060351,,,,,,,,,,,,,,./stim/p04_syllable_1_faluduako_hit.wav,p04,faluduako,hit,fa-lu-dua-ko,fa-lu-dua-ko,fa-lu-du-a-ko, ,-0.382581011,-0.1,1,0,0,1.0006,text_option_1,,0,83,83,36,1
5cb63520029f810015b238f8,63f3cfca20052e4ae7554ebf,6453ce136c5c72538d820acd,2023-05-04_17h25.12.465,ga_syllabified_check,2022.2.5,Win32,60.11060351,,,,,,,,,,,,,,./stim/p06_syllable_1_rausto_hit.wav,p06,rausto,hit,ra-us-to,raus-to,ra-us-to, ,0.38223381,-0.101851845,1,0,0,1.7631,text_option_2,,0,84,84,133,1
5cb63520029f810015b238f8,63f3cfca20052e4ae7554ebf,6453ce136c5c72538d820acd,2023-05-04_17h25.12.465,ga_syllabified_check,2022.2.5,Win32,60.11060351,,,,,,,,,,,,,,./stim/p03_syllable_1_lakabiaisto_hit.wav,p03,lakabiaisto,hit,la-ka-biais-to,la-ka-biais-to,la-ka-bi-ais-to,la-ka-bia-is-to,-0.331655057,-0.090740776,1,0,0,2.5508,text_option_1,,0,85,85,6,1
5cb63520029f810015b238f8,63f3cfca20052e4ae7554ebf,6453ce136c5c72538d820acd,2023-05-04_17h25.12.465,ga_syllabified_check,2022.2.5,Win32,60.11060351,,,,,,,,,,,,,,./stim/p08_syllable_1_flauro_hit.wav,p08,flauro,hit,flau-ro,flau-ro,fla-u-ro, ,-0.413136578,-0.111111132,1,0,0,1.1171,text_option_1,,0,86,86,175,1
5cb63520029f810015b238f8,63f3cfca20052e4ae7554ebf,6453ce136c5c72538d820acd,2023-05-04_17h25.12.465,ga_syllabified_check,2022.2.5,Win32,60.11060351,,,,,,,,,,,,,,./stim/p05_syllable_1_lakaguaisto_hit.wav,p05,lakaguaisto,hit,la-ka-gais,la-ka-guais-to,la-ka-gu-ais-to,la-ka-gua-is-to,0.051678276,-0.298148219,1,0,0,1.5338,text_option_other,la-ka-kais-to,0,87,87,81,1
5cb63520029f810015b238f8,63f3cfca20052e4ae7554ebf,6453ce136c5c72538d820acd,2023-05-04_17h25.12.465,ga_syllabified_check,2022.2.5,Win32,60.11060351,,,,,,,,,,,,,,./stim/p04_syllable_1_lakaguaisto_hit.wav,p04,lakaguaisto,hit,la-ka-guais-to,la-ka-guais-to,la-ka-gu-ais-to,la-ka-gua-is-to,-0.377951399,-0.097222201,1,0,0,2.384,text_option_1,,0,88,88,47,1
5cb63520029f810015b238f8,63f3cfca20052e4ae7554ebf,6453ce136c5c72538d820acd,2023-05-04_17h25.12.465,ga_syllabified_check,2022.2.5,Win32,60.11060351,,,,,,,,,,,,,,./stim/p08_syllable_1_lakafiaisto_hit.wav,p08,lakafiaisto,hit,la-ka-fi-as-to,la-ka-fiais-to,la-ka-fi-ais-to,la-ka-fia-is-to,-0.050173632,-0.299074109,1,0,0,3.8511,text_option_other,la-ka-fi-as-to,0,89,89,180,1
5cb63520029f810015b238f8,63f3cfca20052e4ae7554ebf,6453ce136c5c72538d820acd,2023-05-04_17h25.12.465,ga_syllabified_check,2022.2.5,Win32,60.11060351,,,,,,,,,,,,,,./stim/p05_syllable_1_costonhialo_hit.wav,p05,costoñialo,hit,cos-to-nhia-lo,cos-to-ñia-lo,cos-to-ñi-a-lo, ,-0.314988391,-0.107407443,1,0,0,1.5007,text_option_1,,0,90,90,69,1
5cb63520029f810015b238f8,63f3cfca20052e4ae7554ebf,6453ce136c5c72538d820acd,2023-05-04_17h25.12.465,ga_syllabified_check,2022.2.5,Win32,60.11060351,,,,,,,,,,,,,,./stim/p06_syllable_1_manhiala_hit.wav,p06,mañiala,hit,ma-nhi-a-la,ma-ñia-la,ma-ñi-a-la, ,0.340567144,-0.097222201,1,0,0,1.9682,text_option_2,,0,91,91,123,1
5cb63520029f810015b238f8,63f3cfca20052e4ae7554ebf,6453ce136c5c72538d820acd,2023-05-04_17h25.12.465,ga_syllabified_check,2022.2.5,Win32,60.11060351,,,,,,,,,,,,,,./stim/p08_syllable_1_lakapiaisto_hit.wav,p08,lakapiaisto,hit,la-ka-pi-as-to,la-ka-piais-to,la-ka-pi-ais-to,la-ka-pia-is-to,0.062789345,-0.297222201,1,0,0,4.0181,text_option_other,la-ka-pi-as-to,0,92,92,186,1
5cb63520029f810015b238f8,63f3cfca20052e4ae7554ebf,6453ce136c5c72538d820acd,2023-05-04_17h25.12.465,ga_syllabified_check,2022.2.5,Win32,60.11060351,,,,,,,,,,,,,,./stim/p05_syllable_1_lakatiaisto_hit.wav,p05,lakatiaisto,hit,la-ka-ti-ais-to,la-ka-tiais-to,la-ka-ti-ais-to,la-ka-tia-is-to,-0.34276619,-0.084259288,1,0,0,2.8681,text_option_1,,0,93,93,86,1
5cb63520029f810015b238f8,63f3cfca20052e4ae7554ebf,6453ce136c5c72538d820acd,2023-05-04_17h25.12.465,ga_syllabified_check,2022.2.5,Win32,60.11060351,,,,,,,,,,,,,,./stim/p04_syllable_1_lakabiaisto_hit.wav,p04,lakabiaisto,hit,la-ka-biais-to,la-ka-biais-to,la-ka-bi-ais-to,la-ka-bia-is-to,-0.352025477,-0.106481489,1,0,0,2.4676,text_option_1,,0,94,94,40,1
5cb63520029f810015b238f8,63f3cfca20052e4ae7554ebf,6453ce136c5c72538d820acd,2023-05-04_17h25.12.465,ga_syllabified_check,2022.2.5,Win32,60.11060351,,,,,,,,,,,,,,./stim/p08_syllable_1_costonhialo_hit.wav,p08,costoñialo,hit,cos-to-nhia-lo,cos-to-ñia-lo,cos-to-ñi-a-lo, ,-0.348321724,-0.110185178,1,0,0,2.301,text_option_1,,0,95,95,171,1
5cb63520029f810015b238f8,63f3cfca20052e4ae7554ebf,6453ce136c5c72538d820acd,2023-05-04_17h25.12.465,ga_syllabified_check,2022.2.5,Win32,60.11060351,,,,,,,,,,,,,,./stim/p08_syllable_1_chiaba_hit.wav,p08,chiaba,hit,chi-a-ba,chia-ba,chi-a-ba, ,0.412789408,-0.100925954,1,0,0,1.1841,text_option_2,,0,96,96,170,1
5cb63520029f810015b238f8,63f3cfca20052e4ae7554ebf,6453ce136c5c72538d820acd,2023-05-04_17h25.12.465,ga_syllabified_check,2022.2.5,Win32,60.11060351,,,,,,,,,,,,,,./stim/p03_syllable_1_paluguato_hit.wav,p03,paluguato,hit,pa-lu-gua,pa-lu-gua-to,pa-lu-gu-a-to, ,-0.358506934,-0.094444593,1,0,0,1.3453,text_option_1,,0,97,97,27,1
5cb63520029f810015b238f8,63f3cfca20052e4ae7554ebf,6453ce136c5c72538d820acd,2023-05-04_17h25.12.465,ga_syllabified_check,2022.2.5,Win32,60.11060351,,,,,,,,,,,,,,./stim/p03_syllable_1_payielo_hit.wav,p03,payielo,hit,pa-yie-lo,pa-yie-lo,pa-yi-e-lo, ,-0.406655089,-0.087962977,1,0,0,1.5455,text_option_1,,0,98,98,30,1
5cb63520029f810015b238f8,63f3cfca20052e4ae7554ebf,6453ce136c5c72538d820acd,2023-05-04_17h25.12.465,ga_syllabified_check,2022.2.5,Win32,60.11060351,,,,,,,,,,,,,,./stim/p06_syllable_1_lakapuaisto_hit.wav,p06,lakapuaisto,hit,la-ka-pu-a-is,la-ka-puais-to,la-ka-pu-ais-to,la-ka-pua-is-to,0.034085719,-0.30370369,1,0,0,7.4125,text_option_other,la-ka-pu-a-is-to,0,99,99,119,1
5cb63520029f810015b238f8,63f3cfca20052e4ae7554ebf,6453ce136c5c72538d820acd,2023-05-04_17h25.12.465,ga_syllabified_check,2022.2.5,Win32,60.11060351,,,,,,,,,,,,,,./stim/p06_syllable_1_palutrauco_hit.wav,p06,palutrauco,hit,pa-lu-tra-u-co,pa-lu-trau-co,pa-lu-tra-u-co, ,0.350752385,-0.103703753,1,0,0,2.335,text_option_2,,0,100,100,131,1
5cb63520029f810015b238f8,63f3cfca20052e4ae7554ebf,6453ce136c5c72538d820acd,2023-05-04_17h25.12.465,ga_syllabified_check,2022.2.5,Win32,60.11060351,,,,,,,,,,,,,,./stim/p08_syllable_1_falufaisto_hit.wav,p08,falufaisto,hit,fa-lu-fais-to,fa-lu-fais-to,fa-lu-fa-is-to, ,-0.327951368,-0.106481489,1,0,0,2.0175,text_option_1,,0,101,101,173,1
5cb63520029f810015b238f8,63f3cfca20052e4ae7554ebf,6453ce136c5c72538d820acd,2023-05-04_17h25.12.465,ga_syllabified_check,2022.2.5,Win32,60.11060351,,,,,,,,,,,,,,./stim/p04_syllable_1_lakapuaisto_hit.wav,p04,lakapuaisto,hit,la-ka-puais-to,la-ka-puais-to,la-ka-pu-ais-to,la-ka-pua-is-to,-0.327951368,-0.106481489,1,0,0,0.9171,text_option_1,,0,102,102,51,1
5cb63520029f810015b238f8,63f3cfca20052e4ae7554ebf,6453ce136c5c72538d820acd,2023-05-04_17h25.12.465,ga_syllabified_check,2022.2.5,Win32,60.11060351,,,,,,,,,,,,,,./stim/p06_syllable_1_lakabiaisto_hit.wav,p06,lakabiaisto,hit,la-ka-bia-is-to,la-ka-biais-to,la-ka-bi-ais-to,la-ka-bia-is-to,0.030381966,-0.098148155,1,0,0,4.0184,text_option_3,,0,103,103,108,1
5cb63520029f810015b238f8,63f3cfca20052e4ae7554ebf,6453ce136c5c72538d820acd,2023-05-04_17h25.12.465,ga_syllabified_check,2022.2.5,Win32,60.11060351,,,,,,,,,,,,,,./stim/p03_syllable_1_palufauro_hit.wav,p03,palufauro,hit,pa-lu-fau-ro,pa-lu-fau-ro,pa-lu-fa-u-ro, ,-0.31776619,-0.102777799,1,0,0,1.442,text_option_1,,0,104,104,25,1
5cb63520029f810015b238f8,63f3cfca20052e4ae7554ebf,6453ce136c5c72538d820acd,2023-05-04_17h25.12.465,ga_syllabified_check,2022.2.5,Win32,60.11060351,,,,,,,,,,,,,,./stim/p06_syllable_1_lakagiaisto_hit.wav,p06,lakagiaisto,hit,la-ka-gia-is-to,la-ka-giais-to,la-ka-gi-ais-to,la-ka-gia-is-to,0.017418989,-0.12129631,1,0,0,4.3286,text_option_3,,0,105,105,114,1
5cb63520029f810015b238f8,63f3cfca20052e4ae7554ebf,6453ce136c5c72538d820acd,2023-05-04_17h25.12.465,ga_syllabified_check,2022.2.5,Win32,60.11060351,,,,,,,,,,,,,,./stim/p04_syllable_1_lakaduaisto_hit.wav,p04,lakaduaisto,hit,la-ka-duais-to,la-ka-duais-to,la-ka-du-ais-to,la-ka-dua-is-to,-0.328877322,-0.118518511,1,0,0,2.1027,text_option_1,,0,106,106,43,1
5cb63520029f810015b238f8,63f3cfca20052e4ae7554ebf,6453ce136c5c72538d820acd,2023-05-04_17h25.12.465,ga_syllabified_check,2022.2.5,Win32,60.11060351,,,,,,,,,,,,,,./stim/p03_syllable_1_lakagiaisto_hit.wav,p03,lakagiaisto,hit,la-ka-giais-to,la-ka-giais-to,la-ka-gi-ais-to,la-ka-gia-is-to,-0.334432856,-0.105555534,1,0,0,1.6173,text_option_1,,0,107,107,12,1
5cb63520029f810015b238f8,63f3cfca20052e4ae7554ebf,6453ce136c5c72538d820acd,2023-05-04_17h25.12.465,ga_syllabified_check,2022.2.5,Win32,60.11060351,,,,,,,,,,,,,,./stim/p07_syllable_1_lakaguaisto_hit.wav,p07,lakaguaisto,hit,la-ka-guais-to,la-ka-guais-to,la-ka-gu-ais-to,la-ka-gua-is-to,-0.329803212,-0.107407443,1,0,0,1.9339,text_option_1,,0,108,108,149,1
5cb63520029f810015b238f8,63f3cfca20052e4ae7554ebf,6453ce136c5c72538d820acd,2023-05-04_17h25.12.465,ga_syllabified_check,2022.2.5,Win32,60.11060351,,,,,,,,,,,,,,./stim/p04_syllable_1_palumaisto_hit.wav,p04,palumaisto,hit,pa-lu-mais-to,pa-lu-mais-to,pa-lu-ma-is-to, ,-0.344618034,-0.098148155,1,0,0,1.1001,text_option_1,,0,109,109,62,1
5cb63520029f810015b238f8,63f3cfca20052e4ae7554ebf,6453ce136c5c72538d820acd,2023-05-04_17h25.12.465,ga_syllabified_check,2022.2.5,Win32,60.11060351,,,,,,,,,,,,,,./stim/p08_syllable_1_lakaduaisto_hit.wav,p08,lakaduaisto,hit,la-ka-du-ais-to,la-ka-duais-to,la-ka-du-ais-to,la-ka-dua-is-to,-0.345543989,-0.108333397,1,0,0,2.7679,text_option_1,,0,110,110,179,1
5cb63520029f810015b238f8,63f3cfca20052e4ae7554ebf,6453ce136c5c72538d820acd,2023-05-04_17h25.12.465,ga_syllabified_check,2022.2.5,Win32,60.11060351,,,,,,,,,,,,,,./stim/p05_syllable_1_paluguato_hit.wav,p05,paluguato,hit,pa-lu-gau-to,pa-lu-gua-to,pa-lu-gu-a-to, ,-0.050173632,-0.311111132,1,0,0,2.1341,text_option_other,pa-lu-gau-to,0,111,111,95,1
5cb63520029f810015b238f8,63f3cfca20052e4ae7554ebf,6453ce136c5c72538d820acd,2023-05-04_17h25.12.465,ga_syllabified_check,2022.2.5,Win32,60.11060351,,,,,,,,,,,,,,./stim/p08_syllable_1_nhiape_hit.wav,p08,ñiape,hit,ni-a-pe,ñia-pe,ñi-a-pe, ,0.392419052,-0.095370356,1,0,0,1.1338,text_option_2,,0,112,112,193,1
5cb63520029f810015b238f8,63f3cfca20052e4ae7554ebf,6453ce136c5c72538d820acd,2023-05-04_17h25.12.465,ga_syllabified_check,2022.2.5,Win32,60.11060351,,,,,,,,,,,,,,./stim/p08_syllable_1_lakaguaisto_hit.wav,p08,lakaguaisto,hit,la-ka-gu-ais-to,la-ka-guais-to,la-ka-gu-ais-to,la-ka-gua-is-to,0.402604167,-0.101851845,1,0,0,4.1014,text_option_2,,0,113,113,183,1
5cb63520029f810015b238f8,63f3cfca20052e4ae7554ebf,6453ce136c5c72538d820acd,2023-05-04_17h25.12.465,ga_syllabified_check,2022.2.5,Win32,60.11060351,,,,,,,,,,,,,,./stim/p05_syllable_1_palumaisto_hit.wav,p05,palumaisto,hit,pa-lu-mais-to,pa-lu-mais-to,pa-lu-ma-is-to, ,-0.407581011,-0.104629644,1,0,0,1.2383,text_option_1,,0,114,114,96,1
5cb63520029f810015b238f8,63f3cfca20052e4ae7554ebf,6453ce136c5c72538d820acd,2023-05-04_17h25.12.465,ga_syllabified_check,2022.2.5,Win32,60.11060351,,,,,,,,,,,,,,./stim/p08_syllable_1_lakabuaisto_hit.wav,p08,lakabuaisto,hit,la-ka-bu-ais-to,la-ka-buais-to,la-ka-bu-ais-to,la-ka-bua-is-to,0.350752385,-0.086111132,1,0,0,2.8603,text_option_2,,0,115,115,177,1
5cb63520029f810015b238f8,63f3cfca20052e4ae7554ebf,6453ce136c5c72538d820acd,2023-05-04_17h25.12.465,ga_syllabified_check,2022.2.5,Win32,60.11060351,,,,,,,,,,,,,,./stim/p05_syllable_1_pachialo_hit.wav,p05,pachialo,hit,pan-chia-lo,pa-chia-lo,pa-chi-a-lo, ,-0.011284701,-0.304629644,1,0,0,1.3674,text_option_other,pan-chia-lo,0,116,116,92,1
5cb63520029f810015b238f8,63f3cfca20052e4ae7554ebf,6453ce136c5c72538d820acd,2023-05-04_17h25.12.465,ga_syllabified_check,2022.2.5,Win32,60.11060351,,,,,,,,,,,,,,./stim/p07_syllable_1_rausto_hit.wav,p07,rausto,hit,raus-to,raus-to,ra-us-to, ,-0.369618066,-0.087037023,1,0,0,1.334,text_option_1,,0,117,117,167,1
5cb63520029f810015b238f8,63f3cfca20052e4ae7554ebf,6453ce136c5c72538d820acd,2023-05-04_17h25.12.465,ga_syllabified_check,2022.2.5,Win32,60.11060351,,,,,,,,,,,,,,./stim/p05_syllable_1_palutrauco_hit.wav,p05,palutrauco,hit,pa-lu-trai-co,pa-lu-trau-co,pa-lu-tra-u-co, ,0.067418989,-0.307407443,1,0,0,1.7338,text_option_other,pa-lu-trai-co,0,118,118,97,1
5cb63520029f810015b238f8,63f3cfca20052e4ae7554ebf,6453ce136c5c72538d820acd,2023-05-04_17h25.12.465,ga_syllabified_check,2022.2.5,Win32,60.11060351,,,,,,,,,,,,,,./stim/p07_syllable_1_palufauro_hit.wav,p07,palufauro,hit,pa-lu-fau-ro,pa-lu-fau-ro,pa-lu-fa-u-ro, ,-0.327025477,-0.105555534,1,0,0,1.6172,text_option_1,,0,119,119,161,1
5cb63520029f810015b238f8,63f3cfca20052e4ae7554ebf,6453ce136c5c72538d820acd,2023-05-04_17h25.12.465,ga_syllabified_check,2022.2.5,Win32,60.11060351,,,,,,,,,,,,,,./stim/p05_syllable_1_tuliafo_hit.wav,p05,tuliafo,hit,tu-lai-fo,tu-lia-fo,tu-li-a-fo, ,-0.053877258,-0.300925954,1,0,0,0.9504,text_option_other,tu-lai-fo,0,120,120,101,1
5cb63520029f810015b238f8,63f3cfca20052e4ae7554ebf,6453ce136c5c72538d820acd,2023-05-04_17h25.12.465,ga_syllabified_check,2022.2.5,Win32,60.11060351,,,,,,,,,,,,,,./stim/p03_syllable_1_lakaguaisto_hit.wav,p03,lakaguaisto,hit,la-ka-guais-to,la-ka-guais-to,la-ka-gu-ais-to,la-ka-gua-is-to,-0.389988422,-0.089814822,1,0,0,1.5173,text_option_1,,0,121,121,13,1
5cb63520029f810015b238f8,63f3cfca20052e4ae7554ebf,6453ce136c5c72538d820acd,2023-05-04_17h25.12.465,ga_syllabified_check,2022.2.5,Win32,60.11060351,,,,,,,,,,,,,,./stim/p05_syllable_1_lakaduaisto_hit.wav,p05,lakaduaisto,hit,la-ka-dais-to,la-ka-duais-to,la-ka-du-ais-to,la-ka-dua-is-to,-0.026099459,-0.280555534,1,0,0,1.3513,text_option_other,la-ka-dais-to,0,122,122,77,1
5cb63520029f810015b238f8,63f3cfca20052e4ae7554ebf,6453ce136c5c72538d820acd,2023-05-04_17h25.12.465,ga_syllabified_check,2022.2.5,Win32,60.11060351,,,,,,,,,,,,,,./stim/p05_syllable_1_lliape_hit.wav,p05,lliape,hit,liai-pe,llia-pe,lli-a-pe, ,0.009085655,-0.290740776,1,0,0,0.6836,text_option_other,llai-pe,0,123,123,88,1
5cb63520029f810015b238f8,63f3cfca20052e4ae7554ebf,6453ce136c5c72538d820acd,2023-05-04_17h25.12.465,ga_syllabified_check,2022.2.5,Win32,60.11060351,,,,,,,,,,,,,,./stim/p07_syllable_1_lliape_hit.wav,p07,lliape,hit,lliai-pe,llia-pe,lli-a-pe, ,0.041493034,-0.310185178,1,0,0,2.534,text_option_other,lliai-pe,0,124,124,156,1
5cb63520029f810015b238f8,63f3cfca20052e4ae7554ebf,6453ce136c5c72538d820acd,2023-05-04_17h25.12.465,ga_syllabified_check,2022.2.5,Win32,60.11060351,,,,,,,,,,,,,,./stim/p07_syllable_1_faluduako_hit.wav,p07,faluduako,hit,fa-lu-dua-ko,fa-lu-dua-ko,fa-lu-du-a-ko, ,-0.34276619,-0.101851845,1,0,0,2.6175,text_option_1,,0,125,125,138,1
5cb63520029f810015b238f8,63f3cfca20052e4ae7554ebf,6453ce136c5c72538d820acd,2023-05-04_17h25.12.465,ga_syllabified_check,2022.2.5,Win32,60.11060351,,,,,,,,,,,,,,./stim/p06_syllable_1_lakafiaisto_hit.wav,p06,lakafiaisto,hit,la-ka-fia-is-to,la-ka-fiais-to,la-ka-fi-ais-to,la-ka-fia-is-to,0.025752322,-0.112037023,1,0,0,3.4676,text_option_3,,0,126,126,112,1
5cb63520029f810015b238f8,63f3cfca20052e4ae7554ebf,6453ce136c5c72538d820acd,2023-05-04_17h25.12.465,ga_syllabified_check,2022.2.5,Win32,60.11060351,,,,,,,,,,,,,,./stim/p03_syllable_1_lakapiaisto_hit.wav,p03,lakapiaisto,hit,la-ka-piais-to,la-ka-piais-to,la-ka-pi-ais-to,la-ka-pia-is-to,-0.378877322,-0.117592684,1,0,0,1.9811,text_option_1,,0,127,127,16,1
5cb63520029f810015b238f8,63f3cfca20052e4ae7554ebf,6453ce136c5c72538d820acd,2023-05-04_17h25.12.465,ga_syllabified_check,2022.2.5,Win32,60.11060351,,,,,,,,,,,,,,./stim/p05_syllable_1_flauro_hit.wav,p05,flauro,hit,fa-lu-ro,flau-ro,fla-u-ro, ,0.023900477,-0.286111132,1,0,0,1.2836,text_option_other,fa-lu-ro,0,128,128,73,1
5cb63520029f810015b238f8,63f3cfca20052e4ae7554ebf,6453ce136c5c72538d820acd,2023-05-04_17h25.12.465,ga_syllabified_check,2022.2.5,Win32,60.11060351,,,,,,,,,,,,,,./stim/p07_syllable_1_lakapuaisto_hit.wav,p07,lakapuaisto,hit,la-ka-puais-to,la-ka-puais-to,la-ka-pu-ais-to,la-ka-pua-is-to,-0.325173632,-0.09629631,1,0,0,2.6011,text_option_1,,0,129,129,153,1
5cb63520029f810015b238f8,63f3cfca20052e4ae7554ebf,6453ce136c5c72538d820acd,2023-05-04_17h25.12.465,ga_syllabified_check,2022.2.5,Win32,60.11060351,,,,,,,,,,,,,,./stim/p05_syllable_1_falufaisto_hit.wav,p05,falufaisto,hit,fa-lu-fais-to,fa-lu-fais-to,fa-lu-fa-is-to, ,-0.347395833,-0.107407443,1,0,0,1.1002,text_option_1,,0,130,130,71,1
5cb63520029f810015b238f8,63f3cfca20052e4ae7554ebf,6453ce136c5c72538d820acd,2023-05-04_17h25.12.465,ga_syllabified_check,2022.2.5,Win32,60.11060351,,,,,,,,,,,,,,./stim/p07_syllable_1_nhiape_hit.wav,p07,ñiape,hit,nhia-pe,ñia-pe,ñi-a-pe, ,-0.366840267,-0.107407443,1,0,0,0.6338,text_option_1,,0,131,131,159,1
5cb63520029f810015b238f8,63f3cfca20052e4ae7554ebf,6453ce136c5c72538d820acd,2023-05-04_17h25.12.465,ga_syllabified_check,2022.2.5,Win32,60.11060351,,,,,,,,,,,,,,./stim/p07_syllable_1_flauro_hit.wav,p07,flauro,hit,flau-ro,flau-ro,fla-u-ro, ,-0.366840267,-0.107407443,1,0,0,0.9335,text_option_1,,0,132,132,141,1
5cb63520029f810015b238f8,63f3cfca20052e4ae7554ebf,6453ce136c5c72538d820acd,2023-05-04_17h25.12.465,ga_syllabified_check,2022.2.5,Win32,60.11060351,,,,,,,,,,,,,,./stim/p04_syllable_1_ruyiola_hit.wav,p04,ruyiola,hit,ru-yio-la,ru-yio-la,ru-yi-o-la, ,-0.366840267,-0.107407443,1,0,0,0.7005,text_option_1,,0,133,133,66,1
5cb63520029f810015b238f8,63f3cfca20052e4ae7554ebf,6453ce136c5c72538d820acd,2023-05-04_17h25.12.465,ga_syllabified_check,2022.2.5,Win32,60.11060351,,,,,,,,,,,,,,./stim/p03_syllable_1_palutrauco_hit.wav,p03,palutrauco,hit,pa-lu-trau-co,pa-lu-trau-co,pa-lu-tra-u-co, ,-0.366840267,-0.107407443,1,0,0,1.1672,text_option_1,,0,134,134,29,1
5cb63520029f810015b238f8,63f3cfca20052e4ae7554ebf,6453ce136c5c72538d820acd,2023-05-04_17h25.12.465,ga_syllabified_check,2022.2.5,Win32,60.11060351,,,,,,,,,,,,,,./stim/p04_syllable_1_lakagiaisto_hit.wav,p04,lakagiaisto,hit,la-ka-giais-to,la-ka-giais-to,la-ka-gi-ais-to,la-ka-gia-is-to,-0.366840267,-0.107407443,1,0,0,1.6544,text_option_1,,0,135,135,46,1
5cb63520029f810015b238f8,63f3cfca20052e4ae7554ebf,6453ce136c5c72538d820acd,2023-05-04_17h25.12.465,ga_syllabified_check,2022.2.5,Win32,60.11060351,,,,,,,,,,,,,,./stim/p03_syllable_1_lakakiaisto_hit.wav,p03,lakakiaisto,hit,la-ka-kiais-to,la-ka-kiais-to,la-ka-ki-ais-to,la-ka-kia-is-to,-0.366840267,-0.107407443,1,0,0,1.784,text_option_1,,0,136,136,14,1
5cb63520029f810015b238f8,63f3cfca20052e4ae7554ebf,6453ce136c5c72538d820acd,2023-05-04_17h25.12.465,ga_syllabified_check,2022.2.5,Win32,60.11060351,,,,,,,,,,,,,,./stim/p06_syllable_1_lakatuaisto_hit.wav,p06,lakatuaisto,hit,la-ka-tu-a-is,la-ka-tuais-to,la-ka-tu-ais-to,la-ka-tua-is-to,0.044270833,-0.30370369,1,0,0,3.4179,text_option_other,la-ka-tu-a-is-to,0,137,137,121,1
5cb63520029f810015b238f8,63f3cfca20052e4ae7554ebf,6453ce136c5c72538d820acd,2023-05-04_17h25.12.465,ga_syllabified_check,2022.2.5,Win32,60.11060351,,,,,,,,,,,,,,./stim/p08_syllable_1_palufauto_hit.wav,p08,palufauto,hit,pa-lu-fau-to,pa-lu-fau-to,pa-lu-fa-u-to, ,-0.371469911,-0.108333397,1,0,0,2.7009,text_option_1,,0,138,138,196,1
5cb63520029f810015b238f8,63f3cfca20052e4ae7554ebf,6453ce136c5c72538d820acd,2023-05-04_17h25.12.465,ga_syllabified_check,2022.2.5,Win32,60.11060351,,,,,,,,,,,,,,./stim/p07_syllable_1_costonhialo_hit.wav,p07,costoñialo,hit,cos-to-nhia-lo,cos-to-ñia-lo,cos-to-ñi-a-lo, ,-0.363136578,-0.107407443,1,0,0,2.0008,text_option_1,,0,139,139,137,1
5cb63520029f810015b238f8,63f3cfca20052e4ae7554ebf,6453ce136c5c72538d820acd,2023-05-04_17h25.12.465,ga_syllabified_check,2022.2.5,Win32,60.11060351,,,,,,,,,,,,,,./stim/p05_syllable_1_lakakuaisto_hit.wav,p05,lakakuaisto,hit,la-ka-kais-to,la-ka-kuais-to,la-ka-ku-ais-to,la-ka-kua-is-to,-0.011284701,-0.308333333,1,0,0,1.5173,text_option_other,la-ka-kais-to,0,140,140,83,1
5cb63520029f810015b238f8,63f3cfca20052e4ae7554ebf,6453ce136c5c72538d820acd,2023-05-04_17h25.12.465,ga_syllabified_check,2022.2.5,Win32,60.11060351,,,,,,,,,,,,,,./stim/p04_syllable_1_flauro_hit.wav,p04,flauro,hit,flau-ro,flau-ro,fla-u-ro, ,-0.369618066,-0.091666667,1,0,0,0.7173,text_option_1,,0,141,141,39,1
5cb63520029f810015b238f8,63f3cfca20052e4ae7554ebf,6453ce136c5c72538d820acd,2023-05-04_17h25.12.465,ga_syllabified_check,2022.2.5,Win32,60.11060351,,,,,,,,,,,,,,./stim/p05_syllable_1_mebochiana_hit.wav,p05,mebochiana,hit,me-cho-chai-na,me-bo-chia-na,me-bo-chi-a-na, ,-0.01776619,-0.29629631,1,0,0,1.2673,text_option_other,me-cho-chai-na,0,142,142,90,1
5cb63520029f810015b238f8,63f3cfca20052e4ae7554ebf,6453ce136c5c72538d820acd,2023-05-04_17h25.12.465,ga_syllabified_check,2022.2.5,Win32,60.11060351,,,,,,,,,,,,,,./stim/p08_syllable_1_lakapuaisto_hit.wav,p08,lakapuaisto,hit,la-ka-pu-as-to,la-ka-puais-to,la-ka-pu-ais-to,la-ka-pua-is-to,0.037789345,-0.298148219,1,0,0,3.201,text_option_other,la-ka-puas-to,0,143,143,187,1
5cb63520029f810015b238f8,63f3cfca20052e4ae7554ebf,6453ce136c5c72538d820acd,2023-05-04_17h25.12.465,ga_syllabified_check,2022.2.5,Win32,60.11060351,,,,,,,,,,,,,,./stim/p06_syllable_1_pachialo_hit.wav,p06,pachialo,hit,pa-shi-a-lo,pa-chia-lo,pa-chi-a-lo, ,0.380381902,-0.101851845,1,0,0,1.7004,text_option_2,,0,144,144,126,1
5cb63520029f810015b238f8,63f3cfca20052e4ae7554ebf,6453ce136c5c72538d820acd,2023-05-04_17h25.12.465,ga_syllabified_check,2022.2.5,Win32,60.11060351,,,,,,,,,,,,,,./stim/p06_syllable_1_palumaisto_hit.wav,p06,palumaisto,hit,pa-lu-ma-is-to,pa-lu-mais-to,pa-lu-ma-is-to, ,0.402604167,-0.088888868,1,0,0,3.2347,text_option_2,,0,145,145,130,1
5cb63520029f810015b238f8,63f3cfca20052e4ae7554ebf,6453ce136c5c72538d820acd,2023-05-04_17h25.12.465,ga_syllabified_check,2022.2.5,Win32,60.11060351,,,,,,,,,,,,,,./stim/p06_syllable_1_paluguato_hit.wav,p06,paluguato,hit,pa-lu-gua-to,pa-lu-gua-to,pa-lu-gu-a-to, ,-0.364988422,-0.104629644,1,0,0,2.443,text_option_1,,0,146,146,129,1
5cb63520029f810015b238f8,63f3cfca20052e4ae7554ebf,6453ce136c5c72538d820acd,2023-05-04_17h25.12.465,ga_syllabified_check,2022.2.5,Win32,60.11060351,,,,,,,,,,,,,,./stim/p03_syllable_1_lakafiaisto_hit.wav,p03,lakafiaisto,hit,la-ka-fiais-to,la-ka-fiais-to,la-ka-fi-ais-to,la-ka-fia-is-to,-0.345543989,-0.097222201,1,0,0,1.4265,text_option_1,,0,147,147,10,1
5cb63520029f810015b238f8,63f3cfca20052e4ae7554ebf,6453ce136c5c72538d820acd,2023-05-04_17h25.12.465,ga_syllabified_check,2022.2.5,Win32,60.11060351,,,,,,,,,,,,,,./stim/p07_syllable_1_payielo_hit.wav,p07,payielo,hit,pa-yie-lo,pa-yie-lo,pa-yi-e-lo, ,-0.402951399,-0.088888868,1,0,0,1.3444,text_option_1,,0,148,148,166,1
5cb63520029f810015b238f8,63f3cfca20052e4ae7554ebf,6453ce136c5c72538d820acd,2023-05-04_17h25.12.465,ga_syllabified_check,2022.2.5,Win32,60.11060351,,,,,,,,,,,,,,./stim/p07_syllable_1_falufaisto_hit.wav,p07,falufaisto,hit,fa-lu-fais-to,fa-lu-fais-to,fa-lu-fa-is-to, ,-0.354803212,-0.1,1,0,0,2.1271,text_option_1,,0,149,149,139,1
5cb63520029f810015b238f8,63f3cfca20052e4ae7554ebf,6453ce136c5c72538d820acd,2023-05-04_17h25.12.465,ga_syllabified_check,2022.2.5,Win32,60.11060351,,,,,,,,,,,,,,./stim/p03_syllable_1_lakapuaisto_hit.wav,p03,lakapuaisto,hit,la-ka-puais-to,la-ka-puais-to,la-ka-pu-ais-to,la-ka-pua-is-to,-0.331655057,-0.084259288,1,0,0,2.6014,text_option_1,,0,150,150,17,1
5cb63520029f810015b238f8,63f3cfca20052e4ae7554ebf,6453ce136c5c72538d820acd,2023-05-04_17h25.12.465,ga_syllabified_check,2022.2.5,Win32,60.11060351,,,,,,,,,,,,,,./stim/p05_syllable_1_lakadiaisto_hit.wav,p05,lakadiaisto,hit,la-ka-di-ais-to,la-ka-diais-to,la-ka-di-ais-to,la-ka-dia-is-to,-0.31776619,-0.100925954,1,0,0,1.55,text_option_1,,0,151,151,76,1
5cb63520029f810015b238f8,63f3cfca20052e4ae7554ebf,6453ce136c5c72538d820acd,2023-05-04_17h25.12.465,ga_syllabified_check,2022.2.5,Win32,60.11060351,,,,,,,,,,,,,,./stim/p06_syllable_1_lakaduaisto_hit.wav,p06,lakaduaisto,hit,la-ka-du-a-is,la-ka-duais-to,la-ka-du-ais-to,la-ka-dua-is-to,-0.002951241,-0.297222201,1,0,0,2.9515,text_option_other,la-ka-du-a-is-to,0,152,152,111,1
5cb63520029f810015b238f8,63f3cfca20052e4ae7554ebf,6453ce136c5c72538d820acd,2023-05-04_17h25.12.465,ga_syllabified_check,2022.2.5,Win32,60.11060351,,,,,,,,,,,,,,./stim/p03_syllable_1_falutraigo_hit.wav,p03,falutraigo,hit,fa-lu-trai-go,fa-lu-trai-go,fa-lu-tra-i-go, ,-0.36776619,-0.103703753,1,0,0,2.1177,text_option_1,,0,153,153,4,1
5cb63520029f810015b238f8,63f3cfca20052e4ae7554ebf,6453ce136c5c72538d820acd,2023-05-04_17h25.12.465,ga_syllabified_check,2022.2.5,Win32,60.11060351,,,,,,,,,,,,,,./stim/p06_syllable_1_nhiape_hit.wav,p06,ñiape,hit,nhi-a-pe,ñia-pe,ñi-a-pe, ,0.395196788,-0.114814822,1,0,0,1.584,text_option_2,,0,154,154,125,1
5cb63520029f810015b238f8,63f3cfca20052e4ae7554ebf,6453ce136c5c72538d820acd,2023-05-04_17h25.12.465,ga_syllabified_check,2022.2.5,Win32,60.11060351,,,,,,,,,,,,,,./stim/p04_syllable_1_lakakuaisto_hit.wav,p04,lakakuaisto,hit,la-ka-kuais-to,la-ka-kuais-to,la-ka-ku-ais-to,la-ka-kua-is-to,-0.402951399,-0.112963041,1,0,0,1.2839,text_option_1,,0,155,155,49,1
5cb63520029f810015b238f8,63f3cfca20052e4ae7554ebf,6453ce136c5c72538d820acd,2023-05-04_17h25.12.465,ga_syllabified_check,2022.2.5,Win32,60.11060351,,,,,,,,,,,,,,./stim/p05_syllable_1_lakafuaisto_hit.wav,p05,lakafuaisto,hit,la-ka-fais-to,la-ka-fuais-to,la-ka-fu-ais-to,la-ka-fua-is-to,-0.0640625,-0.299074109,1,0,0,1.3339,text_option_other,la-ka-fais-to,0,156,156,79,1
5cb63520029f810015b238f8,63f3cfca20052e4ae7554ebf,6453ce136c5c72538d820acd,2023-05-04_17h25.12.465,ga_syllabified_check,2022.2.5,Win32,60.11060351,,,,,,,,,,,,,,./stim/p05_syllable_1_rausto_hit.wav,p05,rausto,hit,raus-to,raus-to,ra-us-to, ,-0.398321756,-0.093518511,1,0,0,0.7668,text_option_1,,0,157,157,99,1
5cb63520029f810015b238f8,63f3cfca20052e4ae7554ebf,6453ce136c5c72538d820acd,2023-05-04_17h25.12.465,ga_syllabified_check,2022.2.5,Win32,60.11060351,,,,,,,,,,,,,,./stim/p07_syllable_1_palutrauco_hit.wav,p07,palutrauco,hit,pa-lu-trau-co,pa-lu-trau-co,pa-lu-tra-u-co, ,-0.339988391,-0.114814822,1,0,0,1.5673,text_option_1,,0,158,158,165,1
5cb63520029f810015b238f8,63f3cfca20052e4ae7554ebf,6453ce136c5c72538d820acd,2023-05-04_17h25.12.465,ga_syllabified_check,2022.2.5,Win32,60.11060351,,,,,,,,,,,,,,./stim/p07_syllable_1_manhiala_hit.wav,p07,mañiala,hit,ma-nhia-la,ma-ñia-la,ma-ñi-a-la, ,-0.369618066,-0.104629644,1,0,0,1.4838,text_option_1,,0,159,159,157,1
5cb63520029f810015b238f8,63f3cfca20052e4ae7554ebf,6453ce136c5c72538d820acd,2023-05-04_17h25.12.465,ga_syllabified_check,2022.2.5,Win32,60.11060351,,,,,,,,,,,,,,./stim/p08_syllable_1_lakatuaisto_hit.wav,p08,lakatuaisto,hit,la-ka-tu-i-jis,la-ka-tuais-to,la-ka-tu-ais-to,la-ka-tua-is-to,-0.048321724,-0.300925954,1,0,0,2.8345,text_option_other,la-ka-tui-yis-to,0,160,160,189,1
5cb63520029f810015b238f8,63f3cfca20052e4ae7554ebf,6453ce136c5c72538d820acd,2023-05-04_17h25.12.465,ga_syllabified_check,2022.2.5,Win32,60.11060351,,,,,,,,,,,,,,./stim/p04_syllable_1_manhiala_hit.wav,p04,mañiala,hit,ma-nhia-la,ma-ñia-la,ma-ñi-a-la, ,-0.349247678,-0.088888868,1,0,0,0.9173,text_option_1,,0,161,161,55,1
5cb63520029f810015b238f8,63f3cfca20052e4ae7554ebf,6453ce136c5c72538d820acd,2023-05-04_17h25.12.465,ga_syllabified_check,2022.2.5,Win32,60.11060351,,,,,,,,,,,,,,./stim/p08_syllable_1_lakakuaisto_hit.wav,p08,lakakuaisto,hit,la-ka-ku-ais-to,la-ka-kuais-to,la-ka-ku-ais-to,la-ka-kua-is-to,0.436863454,-0.092592621,1,0,0,3.7518,text_option_2,,0,162,162,185,1
5cb63520029f810015b238f8,63f3cfca20052e4ae7554ebf,6453ce136c5c72538d820acd,2023-05-04_17h25.12.465,ga_syllabified_check,2022.2.5,Win32,60.11060351,,,,,,,,,,,,,,./stim/p06_syllable_1_palufauro_hit.wav,p06,palufauro,hit,pa-lu-fau-ro,pa-lu-fau-ro,pa-lu-fa-u-ro, ,-0.002951241,-0.288888931,1,0,0,4.1682,text_option_other,pa-lu-fao-u-ro,0,163,163,127,1
5cb63520029f810015b238f8,63f3cfca20052e4ae7554ebf,6453ce136c5c72538d820acd,2023-05-04_17h25.12.465,ga_syllabified_check,2022.2.5,Win32,60.11060351,,,,,,,,,,,,,,./stim/p07_syllable_1_lakafiaisto_hit.wav,p07,lakafiaisto,hit,la-ka-fiais-to,la-ka-fiais-to,la-ka-fi-ais-to,la-ka-fia-is-to,-0.327951368,-0.109259288,1,0,0,1.5511,text_option_1,,0,164,164,146,1
5cb63520029f810015b238f8,63f3cfca20052e4ae7554ebf,6453ce136c5c72538d820acd,2023-05-04_17h25.12.465,ga_syllabified_check,2022.2.5,Win32,60.11060351,,,,,,,,,,,,,,./stim/p07_syllable_1_lakaduaisto_hit.wav,p07,lakaduaisto,hit,la-ka-duais-to,la-ka-duais-to,la-ka-du-ais-to,la-ka-dua-is-to,-0.365914345,-0.119444466,1,0,0,1.6173,text_option_1,,0,165,165,145,1
5cb63520029f810015b238f8,63f3cfca20052e4ae7554ebf,6453ce136c5c72538d820acd,2023-05-04_17h25.12.465,ga_syllabified_check,2022.2.5,Win32,60.11060351,,,,,,,,,,,,,,./stim/p06_syllable_1_ruyiola_hit.wav,p06,ruyiola,hit,ru-yi-o-la,ru-yio-la,ru-yi-o-la, ,0.40167834,-0.113888868,1,0,0,1.7674,text_option_2,,0,166,166,134,1
5cb63520029f810015b238f8,63f3cfca20052e4ae7554ebf,6453ce136c5c72538d820acd,2023-05-04_17h25.12.465,ga_syllabified_check,2022.2.5,Win32,60.11060351,,,,,,,,,,,,,,./stim/p04_syllable_1_lakatuaisto_hit.wav,p04,lakatuaisto,hit,la-ka-kuais-to,la-ka-tuais-to,la-ka-tu-ais-to,la-ka-tua-is-to,-0.33535881,-0.109259288,1,0,0,2.0009,text_option_1,,0,167,167,53,1
5cb63520029f810015b238f8,63f3cfca20052e4ae7554ebf,6453ce136c5c72538d820acd,2023-05-04_17h25.12.465,ga_syllabified_check,2022.2.5,Win32,60.11060351,,,,,,,,,,,,,,./stim/p06_syllable_1_lakafuaisto_hit.wav,p06,lakafuaisto,hit,la-ka-fu-a-is,la-ka-fuais-to,la-ka-fu-ais-to,la-ka-fua-is-to,0.005381966,-0.312962977,1,0,0,5.3352,text_option_other,la-ka-fu-a-is-to,0,168,168,113,1
5cb63520029f810015b238f8,63f3cfca20052e4ae7554ebf,6453ce136c5c72538d820acd,2023-05-04_17h25.12.465,ga_syllabified_check,2022.2.5,Win32,60.11060351,,,,,,,,,,,,,,./stim/p06_syllable_1_payielo_hit.wav,p06,payielo,hit,pa-yi-e-lo,pa-yie-lo,pa-yi-e-lo, ,0.396122742,-0.083333333,1,0,0,2.1174,text_option_2,,0,169,169,132,1
5cb63520029f810015b238f8,63f3cfca20052e4ae7554ebf,6453ce136c5c72538d820acd,2023-05-04_17h25.12.465,ga_syllabified_check,2022.2.5,Win32,60.11060351,,,,,,,,,,,,,,./stim/p03_syllable_1_lliape_hit.wav,p03,lliape,hit,llia,llia-pe,lli-a-pe, ,-0.370543989,-0.102777799,1,0,0,1.0743,text_option_1,,0,170,170,20,1
5cb63520029f810015b238f8,63f3cfca20052e4ae7554ebf,6453ce136c5c72538d820acd,2023-05-04_17h25.12.465,ga_syllabified_check,2022.2.5,Win32,60.11060351,,,,,,,,,,,,,,./stim/p04_syllable_1_palufauro_hit.wav,p04,palufauro,hit,pa-lu-fau-ro,pa-lu-fau-ro,pa-lu-fa-u-ro, ,-0.349247678,-0.093518511,1,0,0,1.3604,text_option_1,,0,171,171,59,1
5cb63520029f810015b238f8,63f3cfca20052e4ae7554ebf,6453ce136c5c72538d820acd,2023-05-04_17h25.12.465,ga_syllabified_check,2022.2.5,Win32,60.11060351,,,,,,,,,,,,,,./stim/p04_syllable_1_palufauto_hit.wav,p04,palufauto,hit,pa-lu-fau-to,pa-lu-fau-to,pa-lu-fa-u-to, ,-0.353877322,-0.087037023,1,0,0,1.1672,text_option_1,,0,172,172,60,1
5cb63520029f810015b238f8,63f3cfca20052e4ae7554ebf,6453ce136c5c72538d820acd,2023-05-04_17h25.12.465,ga_syllabified_check,2022.2.5,Win32,60.11060351,,,,,,,,,,,,,,./stim/p03_syllable_1_palufauto_hit.wav,p03,palufauto,hit,pa-lu-fau,pa-lu-fau-to,pa-lu-fa-u-to, ,-0.352951368,-0.1,1,0,0,1.7512,text_option_1,,0,173,173,26,1
5cb63520029f810015b238f8,63f3cfca20052e4ae7554ebf,6453ce136c5c72538d820acd,2023-05-04_17h25.12.465,ga_syllabified_check,2022.2.5,Win32,60.11060351,,,,,,,,,,,,,,./stim/p08_syllable_1_pachialo_hit.wav,p08,pachialo,hit,pa-chi-ja-lo,pa-chia-lo,pa-chi-a-lo, ,0.442419052,-0.099074109,1,0,0,1.4174,text_option_2,,0,174,174,194,1
5cb63520029f810015b238f8,63f3cfca20052e4ae7554ebf,6453ce136c5c72538d820acd,2023-05-04_17h25.12.465,ga_syllabified_check,2022.2.5,Win32,60.11060351,,,,,,,,,,,,,,./stim/p03_syllable_1_lakatiaisto_hit.wav,p03,lakatiaisto,hit,la-ka-tiais-to,la-ka-tiais-to,la-ka-ti-ais-to,la-ka-tia-is-to,-0.362210655,-0.102777799,1,0,0,3.5282,text_option_1,,0,175,175,18,1
5cb63520029f810015b238f8,63f3cfca20052e4ae7554ebf,6453ce136c5c72538d820acd,2023-05-04_17h25.12.465,ga_syllabified_check,2022.2.5,Win32,60.11060351,,,,,,,,,,,,,,./stim/p04_syllable_1_nhiape_hit.wav,p04,ñiape,hit,nhia-pe,ñia-pe,ñi-a-pe, ,-0.398321756,-0.095370356,1,0,0,0.7669,text_option_1,,0,176,176,57,1
5cb63520029f810015b238f8,63f3cfca20052e4ae7554ebf,6453ce136c5c72538d820acd,2023-05-04_17h25.12.465,ga_syllabified_check,2022.2.5,Win32,60.11060351,,,,,,,,,,,,,,./stim/p06_syllable_1_tuliafo_hit.wav,p06,tuliafo,hit,tu-li-a-fo,tu-lia-fo,tu-li-a-fo, ,0.435011546,-0.087962977,1,0,0,1.534,text_option_2,,0,177,177,135,1
5cb63520029f810015b238f8,63f3cfca20052e4ae7554ebf,6453ce136c5c72538d820acd,2023-05-04_17h25.12.465,ga_syllabified_check,2022.2.5,Win32,60.11060351,,,,,,,,,,,,,,./stim/p06_syllable_1_lakabuaisto_hit.wav,p06,lakabuaisto,hit,la-ka-bu-a-is,la-ka-buais-to,la-ka-bu-ais-to,la-ka-bua-is-to,0.045196788,-0.299074109,1,0,0,4.2854,text_option_other,la-ka-bu-a-is-to,0,178,178,109,1
5cb63520029f810015b238f8,63f3cfca20052e4ae7554ebf,6453ce136c5c72538d820acd,2023-05-04_17h25.12.465,ga_syllabified_check,2022.2.5,Win32,60.11060351,,,,,,,,,,,,,,./stim/p08_syllable_1_paluguato_hit.wav,p08,paluguato,hit,pa-lu-gua-to,pa-lu-gua-to,pa-lu-gu-a-to, ,-0.3640625,-0.102777799,1,0,0,1.9506,text_option_1,,0,179,179,197,1
5cb63520029f810015b238f8,63f3cfca20052e4ae7554ebf,6453ce136c5c72538d820acd,2023-05-04_17h25.12.465,ga_syllabified_check,2022.2.5,Win32,60.11060351,,,,,,,,,,,,,,./stim/p03_syllable_1_palumaisto_hit.wav,p03,palumaisto,hit,pa-lu-mais-to,pa-lu-mais-to,pa-lu-ma-is-to, ,-0.332581011,-0.09629631,1,0,0,1.2927,text_option_1,,0,180,180,28,1
5cb63520029f810015b238f8,63f3cfca20052e4ae7554ebf,6453ce136c5c72538d820acd,2023-05-04_17h25.12.465,ga_syllabified_check,2022.2.5,Win32,60.11060351,,,,,,,,,,,,,,./stim/p03_syllable_1_falufaisto_hit.wav,p03,falufaisto,hit,fa-lu-fais-to,fa-lu-fais-to,fa-lu-fa-is-to, ,-0.350173632,-0.108333397,1,0,0,1.4941,text_option_1,,0,181,181,3,1
5cb63520029f810015b238f8,63f3cfca20052e4ae7554ebf,6453ce136c5c72538d820acd,2023-05-04_17h25.12.465,ga_syllabified_check,2022.2.5,Win32,60.11060351,,,,,,,,,,,,,,./stim/p05_syllable_1_nhiape_hit.wav,p05,ñiape,hit,nhia-pe,ñia-pe,ñi-a-pe, ,-0.378877322,-0.109259288,1,0,0,1.3841,text_option_1,,0,182,182,91,1
5cb63520029f810015b238f8,63f3cfca20052e4ae7554ebf,6453ce136c5c72538d820acd,2023-05-04_17h25.12.465,ga_syllabified_check,2022.2.5,Win32,60.11060351,,,,,,,,,,,,,,./stim/p04_syllable_1_palutrauco_hit.wav,p04,palutrauco,hit,pa-lu-trau-co,pa-lu-trau-co,pa-lu-tra-u-co, ,-0.358506934,-0.104629644,1,0,0,1.0428,text_option_1,,0,183,183,63,1
5cb63520029f810015b238f8,63f3cfca20052e4ae7554ebf,6453ce136c5c72538d820acd,2023-05-04_17h25.12.465,ga_syllabified_check,2022.2.5,Win32,60.11060351,,,,,,,,,,,,,,./stim/p07_syllable_1_mebochiana_hit.wav,p07,mebochiana,hit,me-bo-chia-na,me-bo-chia-na,me-bo-chi-a-na, ,-0.343692144,-0.094444593,1,0,0,2.3414,text_option_1,,0,184,184,158,1
5cb63520029f810015b238f8,63f3cfca20052e4ae7554ebf,6453ce136c5c72538d820acd,2023-05-04_17h25.12.465,ga_syllabified_check,2022.2.5,Win32,60.11060351,,,,,,,,,,,,,,./stim/p04_syllable_1_rausto_hit.wav,p04,rausto,hit,raus-to,raus-to,ra-us-to, ,-0.380729167,-0.103703753,1,0,0,0.4938,text_option_1,,0,185,185,65,1
5cb63520029f810015b238f8,63f3cfca20052e4ae7554ebf,6453ce136c5c72538d820acd,2023-05-04_17h25.12.465,ga_syllabified_check,2022.2.5,Win32,60.11060351,,,,,,,,,,,,,,./stim/p03_syllable_1_ruyiola_hit.wav,p03,ruyiola,hit,ru-yio-la,ru-yio-la,ru-yi-o-la, ,-0.363136578,-0.106481489,1,0,0,1.8671,text_option_1,,0,186,186,32,1
5cb63520029f810015b238f8,63f3cfca20052e4ae7554ebf,6453ce136c5c72538d820acd,2023-05-04_17h25.12.465,ga_syllabified_check,2022.2.5,Win32,60.11060351,,,,,,,,,,,,,,./stim/p06_syllable_1_lakaguaisto_hit.wav,p06,lakaguaisto,hit,la-ka-gu-a-is,la-ka-guais-to,la-ka-gu-ais-to,la-ka-gua-is-to,-0.021469816,-0.308333333,1,0,0,4.4355,text_option_other,la-ka-gu-a-is-to,0,187,187,115,1
5cb63520029f810015b238f8,63f3cfca20052e4ae7554ebf,6453ce136c5c72538d820acd,2023-05-04_17h25.12.465,ga_syllabified_check,2022.2.5,Win32,60.11060351,,,,,,,,,,,,,,./stim/p04_syllable_1_lakakiaisto_hit.wav,p04,lakakiaisto,hit,la-ka-kiais-to,la-ka-kiais-to,la-ka-ki-ais-to,la-ka-kia-is-to,-0.365914345,-0.100925954,1,0,0,1.7005,text_option_1,,0,188,188,48,1
5cb63520029f810015b238f8,63f3cfca20052e4ae7554ebf,6453ce136c5c72538d820acd,2023-05-04_17h25.12.465,ga_syllabified_check,2022.2.5,Win32,60.11060351,,,,,,,,,,,,,,./stim/p06_syllable_1_lakakuaisto_hit.wav,p06,lakakuaisto,hit,la-ka-ku-a-is,la-ka-kuais-to,la-ka-ku-ais-to,la-ka-kua-is-to,-0.018692144,-0.293518575,1,0,0,5.0684,text_option_other,la-ka-ku-a-is-to,0,189,189,117,1
5cb63520029f810015b238f8,63f3cfca20052e4ae7554ebf,6453ce136c5c72538d820acd,2023-05-04_17h25.12.465,ga_syllabified_check,2022.2.5,Win32,60.11060351,,,,,,,,,,,,,,./stim/p07_syllable_1_lakagiaisto_hit.wav,p07,lakagiaisto,hit,la-ka-gais-to,la-ka-giais-to,la-ka-gi-ais-to,la-ka-gia-is-to,0.033159701,-0.305555534,1,0,0,1.8509,text_option_other,la-ka-gais-to,0,190,190,148,1
5cb63520029f810015b238f8,63f3cfca20052e4ae7554ebf,6453ce136c5c72538d820acd,2023-05-04_17h25.12.465,ga_syllabified_check,2022.2.5,Win32,60.11060351,,,,,,,,,,,,,,./stim/p03_syllable_1_tuliafo_hit.wav,p03,tuliafo,hit,tu-lia-fo,tu-lia-fo,tu-li-a-fo, ,-0.36776619,-0.093518511,1,0,0,1.034,text_option_1,,0,191,191,33,1
5cb63520029f810015b238f8,63f3cfca20052e4ae7554ebf,6453ce136c5c72538d820acd,2023-05-04_17h25.12.465,ga_syllabified_check,2022.2.5,Win32,60.11060351,,,,,,,,,,,,,,./stim/p03_syllable_1_lakakuaisto_hit.wav,p03,lakakuaisto,hit,la-ka-kuais-to,la-ka-kuais-to,la-ka-ku-ais-to,la-ka-kua-is-to,-0.355729167,-0.110185178,1,0,0,1.3673,text_option_1,,0,192,192,15,1
5cb63520029f810015b238f8,63f3cfca20052e4ae7554ebf,6453ce136c5c72538d820acd,2023-05-04_17h25.12.465,ga_syllabified_check,2022.2.5,Win32,60.11060351,,,,,,,,,,,,,,./stim/p04_syllable_1_payielo_hit.wav,p04,payielo,hit,pa-yie-lo,pa-yie-lo,pa-yi-e-lo, ,-0.355729167,-0.110185178,1,0,0,0.7172,text_option_1,,0,193,193,64,1
5cb63520029f810015b238f8,63f3cfca20052e4ae7554ebf,6453ce136c5c72538d820acd,2023-05-04_17h25.12.465,ga_syllabified_check,2022.2.5,Win32,60.11060351,,,,,,,,,,,,,,./stim/p05_syllable_1_lakatuaisto_hit.wav,p05,lakatuaisto,hit,la-ka-tais-to,la-ka-tuais-to,la-ka-tu-ais-to,la-ka-tua-is-to,-0.036284701,-0.29629631,1,0,0,2.0174,text_option_other,la-ka-tais-to,0,194,194,87,1
5cb63520029f810015b238f8,63f3cfca20052e4ae7554ebf,6453ce136c5c72538d820acd,2023-05-04_17h25.12.465,ga_syllabified_check,2022.2.5,Win32,60.11060351,,,,,,,,,,,,,,./stim/p07_syllable_1_chiaba_hit.wav,p07,chiaba,hit,chia-ba,chia-ba,chi-a-ba, ,-0.370543989,-0.109259288,1,0,0,0.7005,text_option_1,,0,195,195,136,1
5cb63520029f810015b238f8,63f3cfca20052e4ae7554ebf,6453ce136c5c72538d820acd,2023-05-04_17h25.12.465,ga_syllabified_check,2022.2.5,Win32,60.11060351,,,,,,,,,,,,,,./stim/p08_syllable_1_payielo_hit.wav,p08,payielo,hit,pa-yie-lo,pa-yie-lo,pa-yi-e-lo, ,-0.370543989,-0.109259288,1,0,0,1.127,text_option_1,,0,196,196,200,1
5cb63520029f810015b238f8,63f3cfca20052e4ae7554ebf,6453ce136c5c72538d820acd,2023-05-04_17h25.12.465,ga_syllabified_check,2022.2.5,Win32,60.11060351,,,,,,,,,,,,,,./stim/p03_syllable_1_lakatuaisto_hit.wav,p03,lakatuaisto,hit,la-ka-tuais-to,la-ka-tuais-to,la-ka-tu-ais-to,la-ka-tua-is-to,-0.370543989,-0.109259288,1,0,0,1.1678,text_option_1,,0,197,197,19,1
5cb63520029f810015b238f8,63f3cfca20052e4ae7554ebf,6453ce136c5c72538d820acd,2023-05-04_17h25.12.465,ga_syllabified_check,2022.2.5,Win32,60.11060351,,,,,,,,,,,,,,./stim/p03_syllable_1_faluduako_hit.wav,p03,faluduako,hit,fa-lu-dua-ko,fa-lu-dua-ko,fa-lu-du-a-ko, ,-0.370543989,-0.109259288,1,0,0,1.4505,text_option_1,,0,198,198,2,1
5cb63520029f810015b238f8,63f3cfca20052e4ae7554ebf,6453ce136c5c72538d820acd,2023-05-04_17h25.12.465,ga_syllabified_check,2022.2.5,Win32,60.11060351,,,,,,,,,,,,,,./stim/p08_syllable_1_palufauro_hit.wav,p08,palufauro,hit,pa-lu-fau-ro,pa-lu-fau-ro,pa-lu-fa-u-ro, ,-0.370543989,-0.109259288,1,0,0,2.3415,text_option_1,,0,199,199,195,1
5cb63520029f810015b238f8,63f3cfca20052e4ae7554ebf,6453ce136c5c72538d820acd,2023-05-04_17h25.12.465,ga_syllabified_check,2022.2.5,Win32,60.11060351,,,,,,,,,,,,,,./stim/p03_syllable_1_chiaba_hit.wav,p03,chiaba,hit,chia-ba,chia-ba,chi-a-ba, ,-0.370543989,-0.109259288,1,0,0,0.5503,text_option_1,,0,200,200,0,1
5cb63520029f810015b238f8,63f3cfca20052e4ae7554ebf,6453ce136c5c72538d820acd,2023-05-04_17h25.12.465,ga_syllabified_check,2022.2.5,Win32,60.11060351,,,,,,,,,,,,,,./stim/p08_syllable_1_lakatiaisto_hit.wav,p08,lakatiaisto,hit,la-ka-ti-as-to,la-ka-tiais-to,la-ka-ti-ais-to,la-ka-tia-is-to,0.019270833,-0.295370356,1,0,0,3.4846,text_option_other,la-ka-tias-to,0,201,201,188,1
5cb63520029f810015b238f8,63f3cfca20052e4ae7554ebf,6453ce136c5c72538d820acd,2023-05-04_17h25.12.465,ga_syllabified_check,2022.2.5,Win32,60.11060351,,,,,,,,,,,,,,./stim/p05_syllable_1_ruyiola_hit.wav,p05,ruyiola,hit,ru-yio-la,ru-yio-la,ru-yi-o-la, ,-0.402025445,-0.1,1,0,0,0.9336,text_option_1,,0,202,202,100,1
5cb63520029f810015b238f8,63f3cfca20052e4ae7554ebf,6453ce136c5c72538d820acd,2023-05-04_17h25.12.465,ga_syllabified_check,2022.2.5,Win32,60.11060351,,,,,,,,,,,,,,./stim/p03_syllable_1_flauro_hit.wav,p03,flauro,hit,flau-ro,flau-ro,fla-u-ro, ,-0.388136578,-0.109259288,1,0,0,0.8334,text_option_1,,0,203,203,5,1
5cb63520029f810015b238f8,63f3cfca20052e4ae7554ebf,6453ce136c5c72538d820acd,2023-05-04_17h25.12.465,ga_syllabified_check,2022.2.5,Win32,60.11060351,,,,,,,,,,,,,,,,,,,,,,,,,,,,,,,,,,
