participant,study,session,date,expName,psychopyVersion,OS,frameRate,mouse_practice.x,mouse_practice.y,mouse_practice.leftButton,mouse_practice.midButton,mouse_practice.rightButton,mouse_practice.time,mouse_practice.clicked_name,textbox_followup_practice.text,trials_practice.thisRepN,trials_practice.thisTrialN,trials_practice.thisN,trials_practice.thisIndex,trials_practice.ran,file_path,id,item,status,response,op1,op2,op3,mouse.x,mouse.y,mouse.leftButton,mouse.midButton,mouse.rightButton,mouse.time,mouse.clicked_name,textbox_followup.text,trials.thisRepN,trials.thisTrialN,trials.thisN,trials.thisIndex,trials.ran
5cb863ccebd17d0016e7f4f1,63f3cfca20052e4ae7554ebf,6453c94e4704cf9f366b2ad7,2023-05-04_17h04.06.951,ga_syllabified_check,2022.2.5,Win32,9.992006395,,,,,,,,,,,,,,,,,,,,,,,,,,,,,,,,,,
5cb863ccebd17d0016e7f4f1,63f3cfca20052e4ae7554ebf,6453c94e4704cf9f366b2ad7,2023-05-04_17h04.06.951,ga_syllabified_check,2022.2.5,Win32,9.992006395,0.388888889,-0.099074074,1,0,0,3.5405,text_option_2_practice,,0,0,0,0,1,./stim/p03_syllable_1_liamo_hit.wav,p03,liamo,hit,lia-mo,lia-mo,li-a-mo, ,,,,,,,,,,,,,
5cb863ccebd17d0016e7f4f1,63f3cfca20052e4ae7554ebf,6453c94e4704cf9f366b2ad7,2023-05-04_17h04.06.951,ga_syllabified_check,2022.2.5,Win32,9.992006395,-0.384259259,-0.1,1,0,0,1.914,text_option_1_practice,,0,1,1,1,1,./stim/p05_syllable_1_matio_hit.wav,p05,matio,hit,ma-tio,ma-tio,ma-ti-o, ,,,,,,,,,,,,,
5cb863ccebd17d0016e7f4f1,63f3cfca20052e4ae7554ebf,6453c94e4704cf9f366b2ad7,2023-05-04_17h04.06.951,ga_syllabified_check,2022.2.5,Win32,9.992006395,-0.375,-0.109259259,1,0,0,3.1172,text_option_1_practice,,0,2,2,2,1,./stim/p08_syllable_1_liamo_hit.wav,p08,liamo,hit,ja-mo,lia-mo,li-a-mo, ,,,,,,,,,,,,,
5cb863ccebd17d0016e7f4f1,63f3cfca20052e4ae7554ebf,6453c94e4704cf9f366b2ad7,2023-05-04_17h04.06.951,ga_syllabified_check,2022.2.5,Win32,9.992006395,,,,,,,,,,,,,,,,,,,,,,,,,,,,,,,,,,
5cb863ccebd17d0016e7f4f1,63f3cfca20052e4ae7554ebf,6453c94e4704cf9f366b2ad7,2023-05-04_17h04.06.951,ga_syllabified_check,2022.2.5,Win32,9.992006395,,,,,,,,,,,,,,./stim/p04_syllable_1_flauro_hit.wav,p04,flauro,hit,flau-ro,flau-ro,fla-u-ro, ,-0.373148148,-0.106481481,1,0,0,2.9748,text_option_1,,0,0,0,39,1
5cb863ccebd17d0016e7f4f1,63f3cfca20052e4ae7554ebf,6453c94e4704cf9f366b2ad7,2023-05-04_17h04.06.951,ga_syllabified_check,2022.2.5,Win32,9.992006395,,,,,,,,,,,,,,./stim/p06_syllable_1_lakatiaisto_hit.wav,p06,lakatiaisto,hit,la-ka-pia-is-to,la-ka-tiais-to,la-ka-ti-ais-to,la-ka-tia-is-to,-0.023148148,-0.10462963,1,0,0,4.9545,text_option_3,,0,1,1,120,1
5cb863ccebd17d0016e7f4f1,63f3cfca20052e4ae7554ebf,6453c94e4704cf9f366b2ad7,2023-05-04_17h04.06.951,ga_syllabified_check,2022.2.5,Win32,9.992006395,,,,,,,,,,,,,,./stim/p08_syllable_1_paluguato_hit.wav,p08,paluguato,hit,pa-lu-gua-to,pa-lu-gua-to,pa-lu-gu-a-to, ,-0.372222222,-0.10462963,1,0,0,2.8027,text_option_1,,0,2,2,197,1
5cb863ccebd17d0016e7f4f1,63f3cfca20052e4ae7554ebf,6453c94e4704cf9f366b2ad7,2023-05-04_17h04.06.951,ga_syllabified_check,2022.2.5,Win32,9.992006395,,,,,,,,,,,,,,./stim/p04_syllable_1_lakabiaisto_hit.wav,p04,lakabiaisto,hit,la-ka-biais-to,la-ka-biais-to,la-ka-bi-ais-to,la-ka-bia-is-to,-0.424074074,-0.109259259,1,0,0,2.555,text_option_1,,0,3,3,40,1
5cb863ccebd17d0016e7f4f1,63f3cfca20052e4ae7554ebf,6453c94e4704cf9f366b2ad7,2023-05-04_17h04.06.951,ga_syllabified_check,2022.2.5,Win32,9.992006395,,,,,,,,,,,,,,./stim/p03_syllable_1_lakadiaisto_hit.wav,p03,lakadiaisto,hit,la-ka-diais-to,la-ka-diais-to,la-ka-di-ais-to,la-ka-dia-is-to,-0.341666667,-0.103703704,1,0,0,2.003,text_option_1,,0,4,4,8,1
5cb863ccebd17d0016e7f4f1,63f3cfca20052e4ae7554ebf,6453c94e4704cf9f366b2ad7,2023-05-04_17h04.06.951,ga_syllabified_check,2022.2.5,Win32,9.992006395,,,,,,,,,,,,,,./stim/p06_syllable_1_costonhialo_hit.wav,p06,costoñialo,hit,cos-to-nhia-lo,cos-to-ñia-lo,cos-to-ñi-a-lo, ,-0.358333333,-0.101851852,1,0,0,3.5747,text_option_1,,0,5,5,103,1
5cb863ccebd17d0016e7f4f1,63f3cfca20052e4ae7554ebf,6453c94e4704cf9f366b2ad7,2023-05-04_17h04.06.951,ga_syllabified_check,2022.2.5,Win32,9.992006395,,,,,,,,,,,,,,./stim/p03_syllable_1_ruyiola_hit.wav,p03,ruyiola,hit,ru-yio-la,ru-yio-la,ru-yi-o-la, ,-0.4,-0.096296296,1,0,0,2.2018,text_option_1,,0,6,6,32,1
5cb863ccebd17d0016e7f4f1,63f3cfca20052e4ae7554ebf,6453c94e4704cf9f366b2ad7,2023-05-04_17h04.06.951,ga_syllabified_check,2022.2.5,Win32,9.992006395,,,,,,,,,,,,,,./stim/p05_syllable_1_palufauro_hit.wav,p05,palufauro,hit,pa-lu-fau-ro,pa-lu-fau-ro,pa-lu-fa-u-ro, ,0.412962963,-0.109259259,1,0,0,2.4658,text_option_2,,0,7,7,93,1
5cb863ccebd17d0016e7f4f1,63f3cfca20052e4ae7554ebf,6453c94e4704cf9f366b2ad7,2023-05-04_17h04.06.951,ga_syllabified_check,2022.2.5,Win32,9.992006395,,,,,,,,,,,,,,./stim/p03_syllable_1_falufaisto_hit.wav,p03,falufaisto,hit,fa-lu-fais-to,fa-lu-fais-to,fa-lu-fa-is-to, ,-0.380555556,-0.102777778,1,0,0,3.2571,text_option_1,,0,8,8,3,1
5cb863ccebd17d0016e7f4f1,63f3cfca20052e4ae7554ebf,6453c94e4704cf9f366b2ad7,2023-05-04_17h04.06.951,ga_syllabified_check,2022.2.5,Win32,9.992006395,,,,,,,,,,,,,,./stim/p05_syllable_1_faluduako_hit.wav,p05,faluduako,hit,fa-lu-ba-ko,fa-lu-dua-ko,fa-lu-du-a-ko, ,-0.39537037,-0.10462963,1,0,0,3.0939,text_option_1,,0,9,9,70,1
5cb863ccebd17d0016e7f4f1,63f3cfca20052e4ae7554ebf,6453c94e4704cf9f366b2ad7,2023-05-04_17h04.06.951,ga_syllabified_check,2022.2.5,Win32,9.992006395,,,,,,,,,,,,,,./stim/p07_syllable_1_lliape_hit.wav,p07,lliape,hit,lliai-pe,llia-pe,lli-a-pe, ,0.387962963,-0.100925926,1,0,0,6.2916,text_option_2,,0,10,10,156,1
5cb863ccebd17d0016e7f4f1,63f3cfca20052e4ae7554ebf,6453c94e4704cf9f366b2ad7,2023-05-04_17h04.06.951,ga_syllabified_check,2022.2.5,Win32,9.992006395,,,,,,,,,,,,,,./stim/p04_syllable_1_chiaba_hit.wav,p04,chiaba,hit,chia-ba,chia-ba,chi-a-ba, ,0.382407407,-0.110185185,1,0,0,1.1911,text_option_2,,0,11,11,34,1
5cb863ccebd17d0016e7f4f1,63f3cfca20052e4ae7554ebf,6453c94e4704cf9f366b2ad7,2023-05-04_17h04.06.951,ga_syllabified_check,2022.2.5,Win32,9.992006395,,,,,,,,,,,,,,./stim/p03_syllable_1_palufauto_hit.wav,p03,palufauto,hit,pa-lu-fau,pa-lu-fau-to,pa-lu-fa-u-to, ,0.409259259,-0.107407407,1,0,0,1.8532,text_option_2,,0,12,12,26,1
5cb863ccebd17d0016e7f4f1,63f3cfca20052e4ae7554ebf,6453c94e4704cf9f366b2ad7,2023-05-04_17h04.06.951,ga_syllabified_check,2022.2.5,Win32,9.992006395,,,,,,,,,,,,,,./stim/p03_syllable_1_nhiape_hit.wav,p03,ñiape,hit,nhia-pe,ñia-pe,ñi-a-pe, ,-0.381481481,-0.109259259,1,0,0,0.7633,text_option_1,,0,13,13,23,1
5cb863ccebd17d0016e7f4f1,63f3cfca20052e4ae7554ebf,6453c94e4704cf9f366b2ad7,2023-05-04_17h04.06.951,ga_syllabified_check,2022.2.5,Win32,9.992006395,,,,,,,,,,,,,,./stim/p06_syllable_1_rausto_hit.wav,p06,rausto,hit,ra-us-to,raus-to,ra-us-to, ,0.412962963,-0.103703704,1,0,0,1.8405,text_option_2,,0,14,14,133,1
5cb863ccebd17d0016e7f4f1,63f3cfca20052e4ae7554ebf,6453c94e4704cf9f366b2ad7,2023-05-04_17h04.06.951,ga_syllabified_check,2022.2.5,Win32,9.992006395,,,,,,,,,,,,,,./stim/p04_syllable_1_lakakuaisto_hit.wav,p04,lakakuaisto,hit,la-ka-kuais-to,la-ka-kuais-to,la-ka-ku-ais-to,la-ka-kua-is-to,-0.338888889,-0.10462963,1,0,0,3.767,text_option_1,,0,15,15,49,1
5cb863ccebd17d0016e7f4f1,63f3cfca20052e4ae7554ebf,6453c94e4704cf9f366b2ad7,2023-05-04_17h04.06.951,ga_syllabified_check,2022.2.5,Win32,9.992006395,,,,,,,,,,,,,,./stim/p04_syllable_1_palufauro_hit.wav,p04,palufauro,hit,pa-lu-fau-ro,pa-lu-fau-ro,pa-lu-fa-u-ro, ,-0.387037037,-0.099074074,1,0,0,1.709,text_option_1,,0,16,16,59,1
5cb863ccebd17d0016e7f4f1,63f3cfca20052e4ae7554ebf,6453c94e4704cf9f366b2ad7,2023-05-04_17h04.06.951,ga_syllabified_check,2022.2.5,Win32,9.992006395,,,,,,,,,,,,,,./stim/p04_syllable_1_lakaduaisto_hit.wav,p04,lakaduaisto,hit,la-ka-duais-to,la-ka-duais-to,la-ka-du-ais-to,la-ka-dua-is-to,-0.360185185,-0.10462963,1,0,0,1.2301,text_option_1,,0,17,17,43,1
5cb863ccebd17d0016e7f4f1,63f3cfca20052e4ae7554ebf,6453c94e4704cf9f366b2ad7,2023-05-04_17h04.06.951,ga_syllabified_check,2022.2.5,Win32,9.992006395,,,,,,,,,,,,,,./stim/p03_syllable_1_lakabiaisto_hit.wav,p03,lakabiaisto,hit,la-ka-biais-to,la-ka-biais-to,la-ka-bi-ais-to,la-ka-bia-is-to,-0.352777778,-0.112962963,1,0,0,1.2121,text_option_1,,0,18,18,6,1
5cb863ccebd17d0016e7f4f1,63f3cfca20052e4ae7554ebf,6453c94e4704cf9f366b2ad7,2023-05-04_17h04.06.951,ga_syllabified_check,2022.2.5,Win32,9.992006395,,,,,,,,,,,,,,./stim/p07_syllable_1_palutrauco_hit.wav,p07,palutrauco,hit,pa-lu-trau-co,pa-lu-trau-co,pa-lu-tra-u-co, ,-0.346296296,-0.105555556,1,0,0,1.9853,text_option_1,,0,19,19,165,1
5cb863ccebd17d0016e7f4f1,63f3cfca20052e4ae7554ebf,6453c94e4704cf9f366b2ad7,2023-05-04_17h04.06.951,ga_syllabified_check,2022.2.5,Win32,9.992006395,,,,,,,,,,,,,,./stim/p07_syllable_1_pachialo_hit.wav,p07,pachialo,hit,pa-cha-lo,pa-chia-lo,pa-chi-a-lo, ,-0.398148148,-0.121296296,1,0,0,3.9848,text_option_1,,0,20,20,160,1
5cb863ccebd17d0016e7f4f1,63f3cfca20052e4ae7554ebf,6453c94e4704cf9f366b2ad7,2023-05-04_17h04.06.951,ga_syllabified_check,2022.2.5,Win32,9.992006395,,,,,,,,,,,,,,./stim/p08_syllable_1_chiaba_hit.wav,p08,chiaba,hit,chi-a-ba,chia-ba,chi-a-ba, ,0.418518519,-0.09537037,1,0,0,2.1932,text_option_2,,0,21,21,170,1
5cb863ccebd17d0016e7f4f1,63f3cfca20052e4ae7554ebf,6453c94e4704cf9f366b2ad7,2023-05-04_17h04.06.951,ga_syllabified_check,2022.2.5,Win32,9.992006395,,,,,,,,,,,,,,./stim/p04_syllable_1_lakapuaisto_hit.wav,p04,lakapuaisto,hit,la-ka-puais-to,la-ka-puais-to,la-ka-pu-ais-to,la-ka-pua-is-to,-0.335185185,-0.100925926,1,0,0,1.2453,text_option_1,,0,22,22,51,1
5cb863ccebd17d0016e7f4f1,63f3cfca20052e4ae7554ebf,6453c94e4704cf9f366b2ad7,2023-05-04_17h04.06.951,ga_syllabified_check,2022.2.5,Win32,9.992006395,,,,,,,,,,,,,,./stim/p08_syllable_1_costonhialo_hit.wav,p08,costoñialo,hit,cos-to-nhia-lo,cos-to-ñia-lo,cos-to-ñi-a-lo, ,-0.391666667,-0.094444444,1,0,0,2.0013,text_option_1,,0,23,23,171,1
5cb863ccebd17d0016e7f4f1,63f3cfca20052e4ae7554ebf,6453c94e4704cf9f366b2ad7,2023-05-04_17h04.06.951,ga_syllabified_check,2022.2.5,Win32,9.992006395,,,,,,,,,,,,,,./stim/p07_syllable_1_lakafuaisto_hit.wav,p07,lakafuaisto,hit,la-ka-fuais-to,la-ka-fuais-to,la-ka-fu-ais-to,la-ka-fua-is-to,-0.362037037,-0.099074074,1,0,0,1.866,text_option_1,,0,24,24,147,1
5cb863ccebd17d0016e7f4f1,63f3cfca20052e4ae7554ebf,6453c94e4704cf9f366b2ad7,2023-05-04_17h04.06.951,ga_syllabified_check,2022.2.5,Win32,9.992006395,,,,,,,,,,,,,,./stim/p06_syllable_1_mebochiana_hit.wav,p06,mebochiana,hit,me-bo-shi-a-na,me-bo-chia-na,me-bo-chi-a-na, ,0.487962963,-0.096296296,1,0,0,2.8712,text_option_2,,0,25,25,124,1
5cb863ccebd17d0016e7f4f1,63f3cfca20052e4ae7554ebf,6453c94e4704cf9f366b2ad7,2023-05-04_17h04.06.951,ga_syllabified_check,2022.2.5,Win32,9.992006395,,,,,,,,,,,,,,./stim/p07_syllable_1_lakadiaisto_hit.wav,p07,lakadiaisto,hit,la-ka-dia-is-to,la-ka-diais-to,la-ka-di-ais-to,la-ka-dia-is-to,0.017592593,-0.114814815,1,0,0,4.468,text_option_3,,0,26,26,144,1
5cb863ccebd17d0016e7f4f1,63f3cfca20052e4ae7554ebf,6453c94e4704cf9f366b2ad7,2023-05-04_17h04.06.951,ga_syllabified_check,2022.2.5,Win32,9.992006395,,,,,,,,,,,,,,./stim/p05_syllable_1_lakaguaisto_hit.wav,p05,lakaguaisto,hit,la-ka-gais,la-ka-guais-to,la-ka-gu-ais-to,la-ka-gua-is-to,0.044444444,-0.301851852,1,0,0,2.4482,text_option_other,la-ka-kais-to,0,27,27,81,1
5cb863ccebd17d0016e7f4f1,63f3cfca20052e4ae7554ebf,6453c94e4704cf9f366b2ad7,2023-05-04_17h04.06.951,ga_syllabified_check,2022.2.5,Win32,9.992006395,,,,,,,,,,,,,,./stim/p08_syllable_1_manhiala_hit.wav,p08,mañiala,hit,ma-nhia-la,ma-ñia-la,ma-ñi-a-la, ,-0.390740741,-0.109259259,1,0,0,1.4301,text_option_1,,0,28,28,191,1
5cb863ccebd17d0016e7f4f1,63f3cfca20052e4ae7554ebf,6453c94e4704cf9f366b2ad7,2023-05-04_17h04.06.951,ga_syllabified_check,2022.2.5,Win32,9.992006395,,,,,,,,,,,,,,./stim/p07_syllable_1_costonhialo_hit.wav,p07,costoñialo,hit,cos-to-nhia-lo,cos-to-ñia-lo,cos-to-ñi-a-lo, ,-0.397222222,-0.109259259,1,0,0,1.9142,text_option_1,,0,29,29,137,1
5cb863ccebd17d0016e7f4f1,63f3cfca20052e4ae7554ebf,6453c94e4704cf9f366b2ad7,2023-05-04_17h04.06.951,ga_syllabified_check,2022.2.5,Win32,9.992006395,,,,,,,,,,,,,,./stim/p06_syllable_1_flauro_hit.wav,p06,flauro,hit,fla-u-ro,flau-ro,fla-u-ro, ,0.402777778,-0.09537037,1,0,0,1.1025,text_option_2,,0,30,30,107,1
5cb863ccebd17d0016e7f4f1,63f3cfca20052e4ae7554ebf,6453c94e4704cf9f366b2ad7,2023-05-04_17h04.06.951,ga_syllabified_check,2022.2.5,Win32,9.992006395,,,,,,,,,,,,,,./stim/p04_syllable_1_ruyiola_hit.wav,p04,ruyiola,hit,ru-yio-la,ru-yio-la,ru-yi-o-la, ,-0.352777778,-0.103703704,1,0,0,0.7877,text_option_1,,0,31,31,66,1
5cb863ccebd17d0016e7f4f1,63f3cfca20052e4ae7554ebf,6453c94e4704cf9f366b2ad7,2023-05-04_17h04.06.951,ga_syllabified_check,2022.2.5,Win32,9.992006395,,,,,,,,,,,,,,./stim/p03_syllable_1_lakaguaisto_hit.wav,p03,lakaguaisto,hit,la-ka-guais-to,la-ka-guais-to,la-ka-gu-ais-to,la-ka-gua-is-to,-0.35462963,-0.102777778,1,0,0,1.2199,text_option_1,,0,32,32,13,1
5cb863ccebd17d0016e7f4f1,63f3cfca20052e4ae7554ebf,6453c94e4704cf9f366b2ad7,2023-05-04_17h04.06.951,ga_syllabified_check,2022.2.5,Win32,9.992006395,,,,,,,,,,,,,,./stim/p08_syllable_1_lakafuaisto_hit.wav,p08,lakafuaisto,hit,la-ka-fju-ais-to,la-ka-fuais-to,la-ka-fu-ais-to,la-ka-fua-is-to,0.017592593,-0.302777778,1,0,0,3.8453,text_option_other,lakafiuaisto,0,33,33,181,1
5cb863ccebd17d0016e7f4f1,63f3cfca20052e4ae7554ebf,6453c94e4704cf9f366b2ad7,2023-05-04_17h04.06.951,ga_syllabified_check,2022.2.5,Win32,9.992006395,,,,,,,,,,,,,,./stim/p03_syllable_1_lakagiaisto_hit.wav,p03,lakagiaisto,hit,la-ka-giais-to,la-ka-giais-to,la-ka-gi-ais-to,la-ka-gia-is-to,-0.455555556,-0.105555556,1,0,0,2.5425,text_option_1,,0,34,34,12,1
5cb863ccebd17d0016e7f4f1,63f3cfca20052e4ae7554ebf,6453c94e4704cf9f366b2ad7,2023-05-04_17h04.06.951,ga_syllabified_check,2022.2.5,Win32,9.992006395,,,,,,,,,,,,,,./stim/p06_syllable_1_palufauto_hit.wav,p06,palufauto,hit,pa-lu-fau-to,pa-lu-fau-to,pa-lu-fa-u-to, ,-0.372222222,-0.112037037,1,0,0,3.7142,text_option_1,,0,35,35,128,1
5cb863ccebd17d0016e7f4f1,63f3cfca20052e4ae7554ebf,6453c94e4704cf9f366b2ad7,2023-05-04_17h04.06.951,ga_syllabified_check,2022.2.5,Win32,9.992006395,,,,,,,,,,,,,,./stim/p04_syllable_1_costonhialo_hit.wav,p04,costoñialo,hit,cos-to-nhia-lo,cos-to-ñia-lo,cos-to-ñi-a-lo, ,-0.362037037,-0.102777778,1,0,0,2.2064,text_option_1,,0,36,36,35,1
5cb863ccebd17d0016e7f4f1,63f3cfca20052e4ae7554ebf,6453c94e4704cf9f366b2ad7,2023-05-04_17h04.06.951,ga_syllabified_check,2022.2.5,Win32,9.992006395,,,,,,,,,,,,,,./stim/p07_syllable_1_lakagiaisto_hit.wav,p07,lakagiaisto,hit,la-ka-gais-to,la-ka-giais-to,la-ka-gi-ais-to,la-ka-gia-is-to,-0.385185185,-0.097222222,1,0,0,6.0932,text_option_1,,0,37,37,148,1
5cb863ccebd17d0016e7f4f1,63f3cfca20052e4ae7554ebf,6453c94e4704cf9f366b2ad7,2023-05-04_17h04.06.951,ga_syllabified_check,2022.2.5,Win32,9.992006395,,,,,,,,,,,,,,./stim/p06_syllable_1_lakabuaisto_hit.wav,p06,lakabuaisto,hit,la-ka-bu-a-is,la-ka-buais-to,la-ka-bu-ais-to,la-ka-bua-is-to,0.453703704,-0.097222222,1,0,0,5.3019,text_option_2,,0,38,38,109,1
5cb863ccebd17d0016e7f4f1,63f3cfca20052e4ae7554ebf,6453c94e4704cf9f366b2ad7,2023-05-04_17h04.06.951,ga_syllabified_check,2022.2.5,Win32,9.992006395,,,,,,,,,,,,,,./stim/p07_syllable_1_lakatiaisto_hit.wav,p07,lakatiaisto,hit,la-ka-tiai-sto,la-ka-tiais-to,la-ka-ti-ais-to,la-ka-tia-is-to,0.011111111,-0.112037037,1,0,0,5.1223,text_option_3,,0,39,39,154,1
5cb863ccebd17d0016e7f4f1,63f3cfca20052e4ae7554ebf,6453c94e4704cf9f366b2ad7,2023-05-04_17h04.06.951,ga_syllabified_check,2022.2.5,Win32,9.992006395,,,,,,,,,,,,,,./stim/p03_syllable_1_payielo_hit.wav,p03,payielo,hit,pa-yie-lo,pa-yie-lo,pa-yi-e-lo, ,-0.437037037,-0.111111111,1,0,0,1.6294,text_option_1,,0,40,40,30,1
5cb863ccebd17d0016e7f4f1,63f3cfca20052e4ae7554ebf,6453c94e4704cf9f366b2ad7,2023-05-04_17h04.06.951,ga_syllabified_check,2022.2.5,Win32,9.992006395,,,,,,,,,,,,,,./stim/p05_syllable_1_ruyiola_hit.wav,p05,ruyiola,hit,ru-yio-la,ru-yio-la,ru-yi-o-la, ,-0.437037037,-0.111111111,1,0,0,2.512,text_option_1,,0,41,41,100,1
5cb863ccebd17d0016e7f4f1,63f3cfca20052e4ae7554ebf,6453c94e4704cf9f366b2ad7,2023-05-04_17h04.06.951,ga_syllabified_check,2022.2.5,Win32,9.992006395,,,,,,,,,,,,,,./stim/p03_syllable_1_lakafiaisto_hit.wav,p03,lakafiaisto,hit,la-ka-fiais-to,la-ka-fiais-to,la-ka-fi-ais-to,la-ka-fia-is-to,-0.411111111,-0.087037037,1,0,0,1.7986,text_option_1,,0,42,42,10,1
5cb863ccebd17d0016e7f4f1,63f3cfca20052e4ae7554ebf,6453c94e4704cf9f366b2ad7,2023-05-04_17h04.06.951,ga_syllabified_check,2022.2.5,Win32,9.992006395,,,,,,,,,,,,,,./stim/p07_syllable_1_lakapiaisto_hit.wav,p07,lakapiaisto,hit,la-ka-pia-sto,la-ka-piais-to,la-ka-pi-ais-to,la-ka-pia-is-to,0.046296296,-0.112037037,1,0,0,3.1996,text_option_3,,0,43,43,152,1
5cb863ccebd17d0016e7f4f1,63f3cfca20052e4ae7554ebf,6453c94e4704cf9f366b2ad7,2023-05-04_17h04.06.951,ga_syllabified_check,2022.2.5,Win32,9.992006395,,,,,,,,,,,,,,./stim/p03_syllable_1_lakafuaisto_hit.wav,p03,lakafuaisto,hit,la-ka-fuais-to,la-ka-fuais-to,la-ka-fu-ais-to,la-ka-fua-is-to,-0.4,-0.112037037,1,0,0,2.2875,text_option_1,,0,44,44,11,1
5cb863ccebd17d0016e7f4f1,63f3cfca20052e4ae7554ebf,6453c94e4704cf9f366b2ad7,2023-05-04_17h04.06.951,ga_syllabified_check,2022.2.5,Win32,9.992006395,,,,,,,,,,,,,,./stim/p05_syllable_1_lakapuaisto_hit.wav,p05,lakapuaisto,hit,la-ka-pais-to,la-ka-puais-to,la-ka-pu-ais-to,la-ka-pua-is-to,-0.385185185,-0.113888889,1,0,0,3.1281,text_option_1,,0,45,45,85,1
5cb863ccebd17d0016e7f4f1,63f3cfca20052e4ae7554ebf,6453c94e4704cf9f366b2ad7,2023-05-04_17h04.06.951,ga_syllabified_check,2022.2.5,Win32,9.992006395,,,,,,,,,,,,,,./stim/p08_syllable_1_rausto_hit.wav,p08,rausto,hit,raus-to,raus-to,ra-us-to, ,-0.385185185,-0.113888889,1,0,0,0.9673,text_option_1,,0,46,46,201,1
5cb863ccebd17d0016e7f4f1,63f3cfca20052e4ae7554ebf,6453c94e4704cf9f366b2ad7,2023-05-04_17h04.06.951,ga_syllabified_check,2022.2.5,Win32,9.992006395,,,,,,,,,,,,,,./stim/p05_syllable_1_palufauto_hit.wav,p05,palufauto,hit,pa-lu-fau-to,pa-lu-fau-to,pa-lu-fa-u-to, ,-0.385185185,-0.113888889,1,0,0,1.1046,text_option_1,,0,47,47,94,1
5cb863ccebd17d0016e7f4f1,63f3cfca20052e4ae7554ebf,6453c94e4704cf9f366b2ad7,2023-05-04_17h04.06.951,ga_syllabified_check,2022.2.5,Win32,9.992006395,,,,,,,,,,,,,,./stim/p06_syllable_1_pachialo_hit.wav,p06,pachialo,hit,pa-shi-a-lo,pa-chia-lo,pa-chi-a-lo, ,-0.385185185,-0.113888889,1,0,0,1.5406,text_option_1,,0,48,48,126,1
5cb863ccebd17d0016e7f4f1,63f3cfca20052e4ae7554ebf,6453c94e4704cf9f366b2ad7,2023-05-04_17h04.06.951,ga_syllabified_check,2022.2.5,Win32,9.992006395,,,,,,,,,,,,,,./stim/p05_syllable_1_pachialo_hit.wav,p05,pachialo,hit,pan-chia-lo,pa-chia-lo,pa-chi-a-lo, ,-0.367592593,-0.099074074,1,0,0,5.5565,text_option_1,,0,49,49,92,1
5cb863ccebd17d0016e7f4f1,63f3cfca20052e4ae7554ebf,6453c94e4704cf9f366b2ad7,2023-05-04_17h04.06.951,ga_syllabified_check,2022.2.5,Win32,9.992006395,,,,,,,,,,,,,,./stim/p08_syllable_1_lakapuaisto_hit.wav,p08,lakapuaisto,hit,la-ka-pu-as-to,la-ka-puais-to,la-ka-pu-ais-to,la-ka-pua-is-to,0.416666667,-0.107407407,1,0,0,4.9097,text_option_2,,0,50,50,187,1
5cb863ccebd17d0016e7f4f1,63f3cfca20052e4ae7554ebf,6453c94e4704cf9f366b2ad7,2023-05-04_17h04.06.951,ga_syllabified_check,2022.2.5,Win32,9.992006395,,,,,,,,,,,,,,./stim/p07_syllable_1_manhiala_hit.wav,p07,mañiala,hit,ma-nhia-la,ma-ñia-la,ma-ñi-a-la, ,-0.347222222,-0.099074074,1,0,0,1.7544,text_option_1,,0,51,51,157,1
5cb863ccebd17d0016e7f4f1,63f3cfca20052e4ae7554ebf,6453c94e4704cf9f366b2ad7,2023-05-04_17h04.06.951,ga_syllabified_check,2022.2.5,Win32,9.992006395,,,,,,,,,,,,,,./stim/p04_syllable_1_tuliafo_hit.wav,p04,tuliafo,hit,tu-lia-fo,tu-lia-fo,tu-li-a-fo, ,-0.39537037,-0.109259259,1,0,0,3.4405,text_option_1,,0,52,52,67,1
5cb863ccebd17d0016e7f4f1,63f3cfca20052e4ae7554ebf,6453c94e4704cf9f366b2ad7,2023-05-04_17h04.06.951,ga_syllabified_check,2022.2.5,Win32,9.992006395,,,,,,,,,,,,,,./stim/p08_syllable_1_lakafiaisto_hit.wav,p08,lakafiaisto,hit,la-ka-fi-as-to,la-ka-fiais-to,la-ka-fi-ais-to,la-ka-fia-is-to,0.002777778,-0.091666667,1,0,0,2.797,text_option_3,,0,53,53,180,1
5cb863ccebd17d0016e7f4f1,63f3cfca20052e4ae7554ebf,6453c94e4704cf9f366b2ad7,2023-05-04_17h04.06.951,ga_syllabified_check,2022.2.5,Win32,9.992006395,,,,,,,,,,,,,,./stim/p07_syllable_1_payielo_hit.wav,p07,payielo,hit,pa-yie-lo,pa-yie-lo,pa-yi-e-lo, ,-0.37962963,-0.1,1,0,0,0.984,text_option_1,,0,54,54,166,1
5cb863ccebd17d0016e7f4f1,63f3cfca20052e4ae7554ebf,6453c94e4704cf9f366b2ad7,2023-05-04_17h04.06.951,ga_syllabified_check,2022.2.5,Win32,9.992006395,,,,,,,,,,,,,,./stim/p05_syllable_1_falutraigo_hit.wav,p05,falutraigo,hit,fa-lu-trai-go,fa-lu-trai-go,fa-lu-tra-i-go, ,-0.372222222,-0.103703704,1,0,0,1.6252,text_option_1,,0,55,55,72,1
5cb863ccebd17d0016e7f4f1,63f3cfca20052e4ae7554ebf,6453c94e4704cf9f366b2ad7,2023-05-04_17h04.06.951,ga_syllabified_check,2022.2.5,Win32,9.992006395,,,,,,,,,,,,,,./stim/p06_syllable_1_lakafuaisto_hit.wav,p06,lakafuaisto,hit,la-ka-fu-a-is,la-ka-fuais-to,la-ka-fu-ais-to,la-ka-fua-is-to,0.073148148,-0.113888889,1,0,0,3.6265,text_option_3,,0,56,56,113,1
5cb863ccebd17d0016e7f4f1,63f3cfca20052e4ae7554ebf,6453c94e4704cf9f366b2ad7,2023-05-04_17h04.06.951,ga_syllabified_check,2022.2.5,Win32,9.992006395,,,,,,,,,,,,,,./stim/p07_syllable_1_lakaduaisto_hit.wav,p07,lakaduaisto,hit,la-ka-duais-to,la-ka-duais-to,la-ka-du-ais-to,la-ka-dua-is-to,-0.44537037,-0.098148148,1,0,0,2.4435,text_option_1,,0,57,57,145,1
5cb863ccebd17d0016e7f4f1,63f3cfca20052e4ae7554ebf,6453c94e4704cf9f366b2ad7,2023-05-04_17h04.06.951,ga_syllabified_check,2022.2.5,Win32,9.992006395,,,,,,,,,,,,,,./stim/p06_syllable_1_nhiape_hit.wav,p06,ñiape,hit,nhi-a-pe,ñia-pe,ñi-a-pe, ,0.416666667,-0.111111111,1,0,0,1.4108,text_option_2,,0,58,58,125,1
5cb863ccebd17d0016e7f4f1,63f3cfca20052e4ae7554ebf,6453c94e4704cf9f366b2ad7,2023-05-04_17h04.06.951,ga_syllabified_check,2022.2.5,Win32,9.992006395,,,,,,,,,,,,,,./stim/p07_syllable_1_lakabuaisto_hit.wav,p07,lakabuaisto,hit,la-ka-buais-to,la-ka-buais-to,la-ka-bu-ais-to,la-ka-bua-is-to,-0.360185185,-0.1,1,0,0,1.0822,text_option_1,,0,59,59,143,1
5cb863ccebd17d0016e7f4f1,63f3cfca20052e4ae7554ebf,6453c94e4704cf9f366b2ad7,2023-05-04_17h04.06.951,ga_syllabified_check,2022.2.5,Win32,9.992006395,,,,,,,,,,,,,,./stim/p05_syllable_1_palumaisto_hit.wav,p05,palumaisto,hit,pa-lu-mais-to,pa-lu-mais-to,pa-lu-ma-is-to, ,-0.338888889,-0.10462963,1,0,0,1.5633,text_option_1,,0,60,60,96,1
5cb863ccebd17d0016e7f4f1,63f3cfca20052e4ae7554ebf,6453c94e4704cf9f366b2ad7,2023-05-04_17h04.06.951,ga_syllabified_check,2022.2.5,Win32,9.992006395,,,,,,,,,,,,,,./stim/p06_syllable_1_palumaisto_hit.wav,p06,palumaisto,hit,pa-lu-ma-is-to,pa-lu-mais-to,pa-lu-ma-is-to, ,0.459259259,-0.114814815,1,0,0,2.5241,text_option_2,,0,61,61,130,1
5cb863ccebd17d0016e7f4f1,63f3cfca20052e4ae7554ebf,6453c94e4704cf9f366b2ad7,2023-05-04_17h04.06.951,ga_syllabified_check,2022.2.5,Win32,9.992006395,,,,,,,,,,,,,,./stim/p04_syllable_1_lakagiaisto_hit.wav,p04,lakagiaisto,hit,la-ka-giais-to,la-ka-giais-to,la-ka-gi-ais-to,la-ka-gia-is-to,-0.353703704,-0.105555556,1,0,0,2.6856,text_option_1,,0,62,62,46,1
5cb863ccebd17d0016e7f4f1,63f3cfca20052e4ae7554ebf,6453c94e4704cf9f366b2ad7,2023-05-04_17h04.06.951,ga_syllabified_check,2022.2.5,Win32,9.992006395,,,,,,,,,,,,,,./stim/p08_syllable_1_palufauro_hit.wav,p08,palufauro,hit,pa-lu-fau-ro,pa-lu-fau-ro,pa-lu-fa-u-ro, ,-0.400925926,-0.094444444,1,0,0,2.6108,text_option_1,,0,63,63,195,1
5cb863ccebd17d0016e7f4f1,63f3cfca20052e4ae7554ebf,6453c94e4704cf9f366b2ad7,2023-05-04_17h04.06.951,ga_syllabified_check,2022.2.5,Win32,9.992006395,,,,,,,,,,,,,,./stim/p05_syllable_1_paluguato_hit.wav,p05,paluguato,hit,pa-lu-gau-to,pa-lu-gua-to,pa-lu-gu-a-to, ,-0.356481481,-0.113888889,1,0,0,2.5421,text_option_1,,0,64,64,95,1
5cb863ccebd17d0016e7f4f1,63f3cfca20052e4ae7554ebf,6453c94e4704cf9f366b2ad7,2023-05-04_17h04.06.951,ga_syllabified_check,2022.2.5,Win32,9.992006395,,,,,,,,,,,,,,./stim/p04_syllable_1_palumaisto_hit.wav,p04,palumaisto,hit,pa-lu-mais-to,pa-lu-mais-to,pa-lu-ma-is-to, ,-0.356481481,-0.113888889,1,0,0,4.7807,text_option_1,,0,65,65,62,1
5cb863ccebd17d0016e7f4f1,63f3cfca20052e4ae7554ebf,6453c94e4704cf9f366b2ad7,2023-05-04_17h04.06.951,ga_syllabified_check,2022.2.5,Win32,9.992006395,,,,,,,,,,,,,,./stim/p06_syllable_1_lliape_hit.wav,p06,lliape,hit,lli-lla-pe,llia-pe,lli-a-pe, ,-0.382407407,-0.112962963,1,0,0,4.5811,text_option_1,,0,66,66,122,1
5cb863ccebd17d0016e7f4f1,63f3cfca20052e4ae7554ebf,6453c94e4704cf9f366b2ad7,2023-05-04_17h04.06.951,ga_syllabified_check,2022.2.5,Win32,9.992006395,,,,,,,,,,,,,,./stim/p06_syllable_1_lakakiaisto_hit.wav,p06,lakakiaisto,hit,la-ka-kia-is-to,la-ka-kiais-to,la-ka-ki-ais-to,la-ka-kia-is-to,0.058333333,-0.111111111,1,0,0,4.7123,text_option_3,,0,67,67,116,1
5cb863ccebd17d0016e7f4f1,63f3cfca20052e4ae7554ebf,6453c94e4704cf9f366b2ad7,2023-05-04_17h04.06.951,ga_syllabified_check,2022.2.5,Win32,9.992006395,,,,,,,,,,,,,,./stim/p03_syllable_1_rausto_hit.wav,p03,rausto,hit,raus-to,raus-to,ra-us-to, ,-0.410185185,-0.108333333,1,0,0,1.1043,text_option_1,,0,68,68,31,1
5cb863ccebd17d0016e7f4f1,63f3cfca20052e4ae7554ebf,6453c94e4704cf9f366b2ad7,2023-05-04_17h04.06.951,ga_syllabified_check,2022.2.5,Win32,9.992006395,,,,,,,,,,,,,,./stim/p07_syllable_1_lakapuaisto_hit.wav,p07,lakapuaisto,hit,la-ka-puais-to,la-ka-puais-to,la-ka-pu-ais-to,la-ka-pua-is-to,0.083333333,-0.111111111,1,0,0,6.884,text_option_3,,0,69,69,153,1
5cb863ccebd17d0016e7f4f1,63f3cfca20052e4ae7554ebf,6453c94e4704cf9f366b2ad7,2023-05-04_17h04.06.951,ga_syllabified_check,2022.2.5,Win32,9.992006395,,,,,,,,,,,,,,./stim/p07_syllable_1_ruyiola_hit.wav,p07,ruyiola,hit,ru-yio-la,ru-yio-la,ru-yi-o-la, ,-0.394444444,-0.1,1,0,0,1.532,text_option_1,,0,70,70,168,1
5cb863ccebd17d0016e7f4f1,63f3cfca20052e4ae7554ebf,6453c94e4704cf9f366b2ad7,2023-05-04_17h04.06.951,ga_syllabified_check,2022.2.5,Win32,9.992006395,,,,,,,,,,,,,,./stim/p08_syllable_1_lakakiaisto_hit.wav,p08,lakakiaisto,hit,la-ka-ki-jas-to,la-ka-kiais-to,la-ka-ki-ais-to,la-ka-kia-is-to,-0.382407407,-0.103703704,1,0,0,1.5449,text_option_1,,0,71,71,184,1
5cb863ccebd17d0016e7f4f1,63f3cfca20052e4ae7554ebf,6453c94e4704cf9f366b2ad7,2023-05-04_17h04.06.951,ga_syllabified_check,2022.2.5,Win32,9.992006395,,,,,,,,,,,,,,./stim/p04_syllable_1_lakafuaisto_hit.wav,p04,lakafuaisto,hit,la-ka-fuais-to,la-ka-fuais-to,la-ka-fu-ais-to,la-ka-fua-is-to,-0.352777778,-0.108333333,1,0,0,0.7716,text_option_1,,0,72,72,45,1
5cb863ccebd17d0016e7f4f1,63f3cfca20052e4ae7554ebf,6453c94e4704cf9f366b2ad7,2023-05-04_17h04.06.951,ga_syllabified_check,2022.2.5,Win32,9.992006395,,,,,,,,,,,,,,./stim/p03_syllable_1_palumaisto_hit.wav,p03,palumaisto,hit,pa-lu-mais-to,pa-lu-mais-to,pa-lu-ma-is-to, ,-0.348148148,-0.108333333,1,0,0,2.0747,text_option_1,,0,73,73,28,1
5cb863ccebd17d0016e7f4f1,63f3cfca20052e4ae7554ebf,6453c94e4704cf9f366b2ad7,2023-05-04_17h04.06.951,ga_syllabified_check,2022.2.5,Win32,9.992006395,,,,,,,,,,,,,,./stim/p07_syllable_1_lakatuaisto_hit.wav,p07,lakatuaisto,hit,la-ka-tuais-to,la-ka-tuais-to,la-ka-tu-ais-to,la-ka-tua-is-to,-0.369444444,-0.099074074,1,0,0,3.2141,text_option_1,,0,74,74,155,1
5cb863ccebd17d0016e7f4f1,63f3cfca20052e4ae7554ebf,6453c94e4704cf9f366b2ad7,2023-05-04_17h04.06.951,ga_syllabified_check,2022.2.5,Win32,9.992006395,,,,,,,,,,,,,,./stim/p08_syllable_1_lakatiaisto_hit.wav,p08,lakatiaisto,hit,la-ka-ti-as-to,la-ka-tiais-to,la-ka-ti-ais-to,la-ka-tia-is-to,-0.373148148,-0.114814815,1,0,0,9.5066,text_option_1,,0,75,75,188,1
5cb863ccebd17d0016e7f4f1,63f3cfca20052e4ae7554ebf,6453c94e4704cf9f366b2ad7,2023-05-04_17h04.06.951,ga_syllabified_check,2022.2.5,Win32,9.992006395,,,,,,,,,,,,,,./stim/p05_syllable_1_payielo_hit.wav,p05,payielo,hit,pai-yu-we-lo,pa-yie-lo,pa-yi-e-lo, ,-0.075,-0.287037037,1,0,0,1.638,text_option_other,payuelo,0,76,76,98,1
5cb863ccebd17d0016e7f4f1,63f3cfca20052e4ae7554ebf,6453c94e4704cf9f366b2ad7,2023-05-04_17h04.06.951,ga_syllabified_check,2022.2.5,Win32,9.992006395,,,,,,,,,,,,,,./stim/p05_syllable_1_costonhialo_hit.wav,p05,costoñialo,hit,cos-to-nhia-lo,cos-to-ñia-lo,cos-to-ñi-a-lo, ,-0.349074074,-0.108333333,1,0,0,2.046,text_option_1,,0,77,77,69,1
5cb863ccebd17d0016e7f4f1,63f3cfca20052e4ae7554ebf,6453c94e4704cf9f366b2ad7,2023-05-04_17h04.06.951,ga_syllabified_check,2022.2.5,Win32,9.992006395,,,,,,,,,,,,,,./stim/p06_syllable_1_falutraigo_hit.wav,p06,falutraigo,hit,fa-lu-tra-i-go,fa-lu-trai-go,fa-lu-tra-i-go, ,-0.372222222,-0.100925926,1,0,0,12.0174,text_option_1,,0,78,78,106,1
5cb863ccebd17d0016e7f4f1,63f3cfca20052e4ae7554ebf,6453c94e4704cf9f366b2ad7,2023-05-04_17h04.06.951,ga_syllabified_check,2022.2.5,Win32,9.992006395,,,,,,,,,,,,,,./stim/p08_syllable_1_payielo_hit.wav,p08,payielo,hit,pa-yie-lo,pa-yie-lo,pa-yi-e-lo, ,0.410185185,-0.103703704,1,0,0,1.962,text_option_2,,0,79,79,200,1
5cb863ccebd17d0016e7f4f1,63f3cfca20052e4ae7554ebf,6453c94e4704cf9f366b2ad7,2023-05-04_17h04.06.951,ga_syllabified_check,2022.2.5,Win32,9.992006395,,,,,,,,,,,,,,./stim/p03_syllable_1_paluguato_hit.wav,p03,paluguato,hit,pa-lu-gua,pa-lu-gua-to,pa-lu-gu-a-to, ,-0.362962963,-0.10462963,1,0,0,1.1884,text_option_1,,0,80,80,27,1
5cb863ccebd17d0016e7f4f1,63f3cfca20052e4ae7554ebf,6453c94e4704cf9f366b2ad7,2023-05-04_17h04.06.951,ga_syllabified_check,2022.2.5,Win32,9.992006395,,,,,,,,,,,,,,./stim/p06_syllable_1_lakaduaisto_hit.wav,p06,lakaduaisto,hit,la-ka-du-a-is,la-ka-duais-to,la-ka-du-ais-to,la-ka-dua-is-to,0.006481481,-0.114814815,1,0,0,3.4072,text_option_3,,0,81,81,111,1
5cb863ccebd17d0016e7f4f1,63f3cfca20052e4ae7554ebf,6453c94e4704cf9f366b2ad7,2023-05-04_17h04.06.951,ga_syllabified_check,2022.2.5,Win32,9.992006395,,,,,,,,,,,,,,./stim/p08_syllable_1_lakapiaisto_hit.wav,p08,lakapiaisto,hit,la-ka-pi-as-to,la-ka-piais-to,la-ka-pi-ais-to,la-ka-pia-is-to,0.455555556,-0.115740741,1,0,0,2.6025,text_option_2,,0,82,82,186,1
5cb863ccebd17d0016e7f4f1,63f3cfca20052e4ae7554ebf,6453c94e4704cf9f366b2ad7,2023-05-04_17h04.06.951,ga_syllabified_check,2022.2.5,Win32,9.992006395,,,,,,,,,,,,,,./stim/p08_syllable_1_lliape_hit.wav,p08,lliape,hit,li-a-pe,llia-pe,lli-a-pe, ,-0.416666667,-0.103703704,1,0,0,0.866,text_option_1,,0,83,83,190,1
5cb863ccebd17d0016e7f4f1,63f3cfca20052e4ae7554ebf,6453c94e4704cf9f366b2ad7,2023-05-04_17h04.06.951,ga_syllabified_check,2022.2.5,Win32,9.992006395,,,,,,,,,,,,,,./stim/p05_syllable_1_palutrauco_hit.wav,p05,palutrauco,hit,pa-lu-trai-co,pa-lu-trau-co,pa-lu-tra-u-co, ,0.044444444,-0.310185185,1,0,0,2.2832,text_option_other,palutraeco,0,84,84,97,1
5cb863ccebd17d0016e7f4f1,63f3cfca20052e4ae7554ebf,6453c94e4704cf9f366b2ad7,2023-05-04_17h04.06.951,ga_syllabified_check,2022.2.5,Win32,9.992006395,,,,,,,,,,,,,,./stim/p07_syllable_1_palufauro_hit.wav,p07,palufauro,hit,pa-lu-fau-ro,pa-lu-fau-ro,pa-lu-fa-u-ro, ,-0.381481481,-0.1,1,0,0,4.2952,text_option_1,,0,85,85,161,1
5cb863ccebd17d0016e7f4f1,63f3cfca20052e4ae7554ebf,6453c94e4704cf9f366b2ad7,2023-05-04_17h04.06.951,ga_syllabified_check,2022.2.5,Win32,9.992006395,,,,,,,,,,,,,,./stim/p06_syllable_1_manhiala_hit.wav,p06,mañiala,hit,ma-nhi-a-la,ma-ñia-la,ma-ñi-a-la, ,0.418518519,-0.110185185,1,0,0,1.6349,text_option_2,,0,86,86,123,1
5cb863ccebd17d0016e7f4f1,63f3cfca20052e4ae7554ebf,6453c94e4704cf9f366b2ad7,2023-05-04_17h04.06.951,ga_syllabified_check,2022.2.5,Win32,9.992006395,,,,,,,,,,,,,,./stim/p04_syllable_1_lakakiaisto_hit.wav,p04,lakakiaisto,hit,la-ka-kiais-to,la-ka-kiais-to,la-ka-ki-ais-to,la-ka-kia-is-to,-0.313888889,-0.106481481,1,0,0,1.1081,text_option_1,,0,87,87,48,1
5cb863ccebd17d0016e7f4f1,63f3cfca20052e4ae7554ebf,6453c94e4704cf9f366b2ad7,2023-05-04_17h04.06.951,ga_syllabified_check,2022.2.5,Win32,9.992006395,,,,,,,,,,,,,,./stim/p04_syllable_1_falutraigo_hit.wav,p04,falutraigo,hit,fa-lu-trai-go,fa-lu-trai-go,fa-lu-tra-i-go, ,-0.352777778,-0.106481481,1,0,0,0.7698,text_option_1,,0,88,88,38,1
5cb863ccebd17d0016e7f4f1,63f3cfca20052e4ae7554ebf,6453c94e4704cf9f366b2ad7,2023-05-04_17h04.06.951,ga_syllabified_check,2022.2.5,Win32,9.992006395,,,,,,,,,,,,,,./stim/p08_syllable_1_nhiape_hit.wav,p08,ñiape,hit,ni-a-pe,ñia-pe,ñi-a-pe, ,-0.383333333,-0.103703704,1,0,0,0.9713,text_option_1,,0,89,89,193,1
5cb863ccebd17d0016e7f4f1,63f3cfca20052e4ae7554ebf,6453c94e4704cf9f366b2ad7,2023-05-04_17h04.06.951,ga_syllabified_check,2022.2.5,Win32,9.992006395,,,,,,,,,,,,,,./stim/p05_syllable_1_nhiape_hit.wav,p05,ñiape,hit,nhia-pe,ñia-pe,ñi-a-pe, ,-0.383333333,-0.103703704,1,0,0,0.5352,text_option_1,,0,90,90,91,1
5cb863ccebd17d0016e7f4f1,63f3cfca20052e4ae7554ebf,6453c94e4704cf9f366b2ad7,2023-05-04_17h04.06.951,ga_syllabified_check,2022.2.5,Win32,9.992006395,,,,,,,,,,,,,,./stim/p06_syllable_1_palufauro_hit.wav,p06,palufauro,hit,pa-lu-fau-ro,pa-lu-fau-ro,pa-lu-fa-u-ro, ,0.456481481,-0.099074074,1,0,0,3.9503,text_option_2,,0,91,91,127,1
5cb863ccebd17d0016e7f4f1,63f3cfca20052e4ae7554ebf,6453c94e4704cf9f366b2ad7,2023-05-04_17h04.06.951,ga_syllabified_check,2022.2.5,Win32,9.992006395,,,,,,,,,,,,,,./stim/p03_syllable_1_lakatuaisto_hit.wav,p03,lakatuaisto,hit,la-ka-tuais-to,la-ka-tuais-to,la-ka-tu-ais-to,la-ka-tua-is-to,-0.316666667,-0.103703704,1,0,0,2.493,text_option_1,,0,92,92,19,1
5cb863ccebd17d0016e7f4f1,63f3cfca20052e4ae7554ebf,6453c94e4704cf9f366b2ad7,2023-05-04_17h04.06.951,ga_syllabified_check,2022.2.5,Win32,9.992006395,,,,,,,,,,,,,,./stim/p04_syllable_1_falufaisto_hit.wav,p04,falufaisto,hit,fa-lu-fais-to,fa-lu-fais-to,fa-lu-fa-is-to, ,-0.393518519,-0.106481481,1,0,0,0.9832,text_option_1,,0,93,93,37,1
5cb863ccebd17d0016e7f4f1,63f3cfca20052e4ae7554ebf,6453c94e4704cf9f366b2ad7,2023-05-04_17h04.06.951,ga_syllabified_check,2022.2.5,Win32,9.992006395,,,,,,,,,,,,,,./stim/p03_syllable_1_lakapiaisto_hit.wav,p03,lakapiaisto,hit,la-ka-piais-to,la-ka-piais-to,la-ka-pi-ais-to,la-ka-pia-is-to,-0.390740741,-0.10462963,1,0,0,4.1231,text_option_1,,0,94,94,16,1
5cb863ccebd17d0016e7f4f1,63f3cfca20052e4ae7554ebf,6453c94e4704cf9f366b2ad7,2023-05-04_17h04.06.951,ga_syllabified_check,2022.2.5,Win32,9.992006395,,,,,,,,,,,,,,./stim/p04_syllable_1_paluguato_hit.wav,p04,paluguato,hit,pa-lu-gua,pa-lu-gua-to,pa-lu-gu-a-to, ,-0.349074074,-0.10462963,1,0,0,0.7754,text_option_1,,0,95,95,61,1
5cb863ccebd17d0016e7f4f1,63f3cfca20052e4ae7554ebf,6453c94e4704cf9f366b2ad7,2023-05-04_17h04.06.951,ga_syllabified_check,2022.2.5,Win32,9.992006395,,,,,,,,,,,,,,./stim/p03_syllable_1_mebochiana_hit.wav,p03,mebochiana,hit,me-bo-chia-na,me-bo-chia-na,me-bo-chi-a-na, ,-0.302777778,-0.101851852,1,0,0,1.5937,text_option_1,,0,96,96,22,1
5cb863ccebd17d0016e7f4f1,63f3cfca20052e4ae7554ebf,6453c94e4704cf9f366b2ad7,2023-05-04_17h04.06.951,ga_syllabified_check,2022.2.5,Win32,9.992006395,,,,,,,,,,,,,,./stim/p06_syllable_1_ruyiola_hit.wav,p06,ruyiola,hit,ru-yi-o-la,ru-yio-la,ru-yi-o-la, ,0.342592593,-0.1,1,0,0,1.7488,text_option_2,,0,97,97,134,1
5cb863ccebd17d0016e7f4f1,63f3cfca20052e4ae7554ebf,6453c94e4704cf9f366b2ad7,2023-05-04_17h04.06.951,ga_syllabified_check,2022.2.5,Win32,9.992006395,,,,,,,,,,,,,,./stim/p06_syllable_1_lakatuaisto_hit.wav,p06,lakatuaisto,hit,la-ka-tu-a-is,la-ka-tuais-to,la-ka-tu-ais-to,la-ka-tua-is-to,-0.432407407,-0.102777778,1,0,0,2.4746,text_option_1,,0,98,98,121,1
5cb863ccebd17d0016e7f4f1,63f3cfca20052e4ae7554ebf,6453c94e4704cf9f366b2ad7,2023-05-04_17h04.06.951,ga_syllabified_check,2022.2.5,Win32,9.992006395,,,,,,,,,,,,,,./stim/p06_syllable_1_paluguato_hit.wav,p06,paluguato,hit,pa-lu-gua-to,pa-lu-gua-to,pa-lu-gu-a-to, ,-0.432407407,-0.102777778,1,0,0,2.6194,text_option_1,,0,99,99,129,1
5cb863ccebd17d0016e7f4f1,63f3cfca20052e4ae7554ebf,6453c94e4704cf9f366b2ad7,2023-05-04_17h04.06.951,ga_syllabified_check,2022.2.5,Win32,9.992006395,,,,,,,,,,,,,,./stim/p04_syllable_1_payielo_hit.wav,p04,payielo,hit,pa-yie-lo,pa-yie-lo,pa-yi-e-lo, ,-0.382407407,-0.101851852,1,0,0,1.4007,text_option_1,,0,100,100,64,1
5cb863ccebd17d0016e7f4f1,63f3cfca20052e4ae7554ebf,6453c94e4704cf9f366b2ad7,2023-05-04_17h04.06.951,ga_syllabified_check,2022.2.5,Win32,9.992006395,,,,,,,,,,,,,,./stim/p05_syllable_1_manhiala_hit.wav,p05,mañiala,hit,ma-nhia-la,ma-ñia-la,ma-ñi-a-la, ,-0.382407407,-0.101851852,1,0,0,0.7712,text_option_1,,0,101,101,89,1
5cb863ccebd17d0016e7f4f1,63f3cfca20052e4ae7554ebf,6453c94e4704cf9f366b2ad7,2023-05-04_17h04.06.951,ga_syllabified_check,2022.2.5,Win32,9.992006395,,,,,,,,,,,,,,./stim/p04_syllable_1_pachialo_hit.wav,p04,pachialo,hit,pa-chia-lo,pa-chia-lo,pa-chi-a-lo, ,-0.382407407,-0.101851852,1,0,0,0.6455,text_option_1,,0,102,102,58,1
5cb863ccebd17d0016e7f4f1,63f3cfca20052e4ae7554ebf,6453c94e4704cf9f366b2ad7,2023-05-04_17h04.06.951,ga_syllabified_check,2022.2.5,Win32,9.992006395,,,,,,,,,,,,,,./stim/p08_syllable_1_lakaguaisto_hit.wav,p08,lakaguaisto,hit,la-ka-gu-ais-to,la-ka-guais-to,la-ka-gu-ais-to,la-ka-gua-is-to,-0.382407407,-0.101851852,1,0,0,2.9973,text_option_1,,0,103,103,183,1
5cb863ccebd17d0016e7f4f1,63f3cfca20052e4ae7554ebf,6453c94e4704cf9f366b2ad7,2023-05-04_17h04.06.951,ga_syllabified_check,2022.2.5,Win32,9.992006395,,,,,,,,,,,,,,./stim/p06_syllable_1_lakaguaisto_hit.wav,p06,lakaguaisto,hit,la-ka-gu-a-is,la-ka-guais-to,la-ka-gu-ais-to,la-ka-gua-is-to,0.396296296,-0.1,1,0,0,5.7452,text_option_2,,0,104,104,115,1
5cb863ccebd17d0016e7f4f1,63f3cfca20052e4ae7554ebf,6453c94e4704cf9f366b2ad7,2023-05-04_17h04.06.951,ga_syllabified_check,2022.2.5,Win32,9.992006395,,,,,,,,,,,,,,./stim/p03_syllable_1_lakaduaisto_hit.wav,p03,lakaduaisto,hit,la-ka-duais-to,la-ka-duais-to,la-ka-du-ais-to,la-ka-dua-is-to,-0.341666667,-0.113888889,1,0,0,2.4023,text_option_1,,0,105,105,9,1
5cb863ccebd17d0016e7f4f1,63f3cfca20052e4ae7554ebf,6453c94e4704cf9f366b2ad7,2023-05-04_17h04.06.951,ga_syllabified_check,2022.2.5,Win32,9.992006395,,,,,,,,,,,,,,./stim/p05_syllable_1_lakabuaisto_hit.wav,p05,lakabuaisto,hit,la-ka-buais-to,la-ka-buais-to,la-ka-bu-ais-to,la-ka-bua-is-to,-0.341666667,-0.113888889,1,0,0,1.9677,text_option_1,,0,106,106,75,1
5cb863ccebd17d0016e7f4f1,63f3cfca20052e4ae7554ebf,6453c94e4704cf9f366b2ad7,2023-05-04_17h04.06.951,ga_syllabified_check,2022.2.5,Win32,9.992006395,,,,,,,,,,,,,,./stim/p05_syllable_1_flauro_hit.wav,p05,flauro,hit,fa-lu-ro,flau-ro,fla-u-ro, ,0.018518519,-0.312962963,1,0,0,2.1793,text_option_other,faluro,0,107,107,73,1
5cb863ccebd17d0016e7f4f1,63f3cfca20052e4ae7554ebf,6453c94e4704cf9f366b2ad7,2023-05-04_17h04.06.951,ga_syllabified_check,2022.2.5,Win32,9.992006395,,,,,,,,,,,,,,./stim/p06_syllable_1_lakabiaisto_hit.wav,p06,lakabiaisto,hit,la-ka-bia-is-to,la-ka-biais-to,la-ka-bi-ais-to,la-ka-bia-is-to,0.087962963,-0.10462963,1,0,0,3.9509,text_option_3,,0,108,108,108,1
5cb863ccebd17d0016e7f4f1,63f3cfca20052e4ae7554ebf,6453c94e4704cf9f366b2ad7,2023-05-04_17h04.06.951,ga_syllabified_check,2022.2.5,Win32,9.992006395,,,,,,,,,,,,,,./stim/p06_syllable_1_lakagiaisto_hit.wav,p06,lakagiaisto,hit,la-ka-gia-is-to,la-ka-giais-to,la-ka-gi-ais-to,la-ka-gia-is-to,0.089814815,-0.106481481,1,0,0,1.9714,text_option_3,,0,109,109,114,1
5cb863ccebd17d0016e7f4f1,63f3cfca20052e4ae7554ebf,6453c94e4704cf9f366b2ad7,2023-05-04_17h04.06.951,ga_syllabified_check,2022.2.5,Win32,9.992006395,,,,,,,,,,,,,,./stim/p04_syllable_1_nhiape_hit.wav,p04,ñiape,hit,nhia-pe,ñia-pe,ñi-a-pe, ,-0.383333333,-0.097222222,1,0,0,1.1329,text_option_1,,0,110,110,57,1
5cb863ccebd17d0016e7f4f1,63f3cfca20052e4ae7554ebf,6453c94e4704cf9f366b2ad7,2023-05-04_17h04.06.951,ga_syllabified_check,2022.2.5,Win32,9.992006395,,,,,,,,,,,,,,./stim/p04_syllable_1_lakaguaisto_hit.wav,p04,lakaguaisto,hit,la-ka-guais-to,la-ka-guais-to,la-ka-gu-ais-to,la-ka-gua-is-to,-0.338888889,-0.108333333,1,0,0,1.6681,text_option_1,,0,111,111,47,1
5cb863ccebd17d0016e7f4f1,63f3cfca20052e4ae7554ebf,6453c94e4704cf9f366b2ad7,2023-05-04_17h04.06.951,ga_syllabified_check,2022.2.5,Win32,9.992006395,,,,,,,,,,,,,,./stim/p07_syllable_1_palufauto_hit.wav,p07,palufauto,hit,pa-lu-fau-to,pa-lu-fau-to,pa-lu-fa-u-to, ,-0.411111111,-0.080555556,1,0,0,9.8752,text_option_1,,0,112,112,162,1
5cb863ccebd17d0016e7f4f1,63f3cfca20052e4ae7554ebf,6453c94e4704cf9f366b2ad7,2023-05-04_17h04.06.951,ga_syllabified_check,2022.2.5,Win32,9.992006395,,,,,,,,,,,,,,./stim/p06_syllable_1_lakafiaisto_hit.wav,p06,lakafiaisto,hit,la-ka-fia-is-to,la-ka-fiais-to,la-ka-fi-ais-to,la-ka-fia-is-to,0.363888889,-0.09537037,1,0,0,0.3265,text_option_2,,0,113,113,112,1
5cb863ccebd17d0016e7f4f1,63f3cfca20052e4ae7554ebf,6453c94e4704cf9f366b2ad7,2023-05-04_17h04.06.951,ga_syllabified_check,2022.2.5,Win32,9.992006395,,,,,,,,,,,,,,./stim/p05_syllable_1_mebochiana_hit.wav,p05,mebochiana,hit,me-cho-chai-na,me-bo-chia-na,me-bo-chi-a-na, ,0.000925926,-0.282407407,1,0,0,1.4525,text_option_other,mechochana,0,114,114,90,1
5cb863ccebd17d0016e7f4f1,63f3cfca20052e4ae7554ebf,6453c94e4704cf9f366b2ad7,2023-05-04_17h04.06.951,ga_syllabified_check,2022.2.5,Win32,9.992006395,,,,,,,,,,,,,,./stim/p07_syllable_1_falutraigo_hit.wav,p07,falutraigo,hit,fa-lu-trai-go,fa-lu-trai-go,fa-lu-tra-i-go, ,-0.374074074,-0.101851852,1,0,0,3.4588,text_option_1,,0,115,115,140,1
5cb863ccebd17d0016e7f4f1,63f3cfca20052e4ae7554ebf,6453c94e4704cf9f366b2ad7,2023-05-04_17h04.06.951,ga_syllabified_check,2022.2.5,Win32,9.992006395,,,,,,,,,,,,,,./stim/p03_syllable_1_palutrauco_hit.wav,p03,palutrauco,hit,pa-lu-trau-co,pa-lu-trau-co,pa-lu-tra-u-co, ,-0.421296296,-0.113888889,1,0,0,1.0478,text_option_1,,0,116,116,29,1
5cb863ccebd17d0016e7f4f1,63f3cfca20052e4ae7554ebf,6453c94e4704cf9f366b2ad7,2023-05-04_17h04.06.951,ga_syllabified_check,2022.2.5,Win32,9.992006395,,,,,,,,,,,,,,./stim/p07_syllable_1_lakakuaisto_hit.wav,p07,lakakuaisto,hit,la-ka-kuais-to,la-ka-kuais-to,la-ka-ku-ais-to,la-ka-kua-is-to,-0.35462963,-0.101851852,1,0,0,2.0976,text_option_1,,0,117,117,151,1
5cb863ccebd17d0016e7f4f1,63f3cfca20052e4ae7554ebf,6453c94e4704cf9f366b2ad7,2023-05-04_17h04.06.951,ga_syllabified_check,2022.2.5,Win32,9.992006395,,,,,,,,,,,,,,./stim/p05_syllable_1_lakagiaisto_hit.wav,p05,lakagiaisto,hit,la-ka-ki-ais-to,la-ka-giais-to,la-ka-gi-ais-to,la-ka-gia-is-to,0.050925926,-0.098148148,1,0,0,2.4626,text_option_3,,0,118,118,80,1
5cb863ccebd17d0016e7f4f1,63f3cfca20052e4ae7554ebf,6453c94e4704cf9f366b2ad7,2023-05-04_17h04.06.951,ga_syllabified_check,2022.2.5,Win32,9.992006395,,,,,,,,,,,,,,./stim/p03_syllable_1_lakatiaisto_hit.wav,p03,lakatiaisto,hit,la-ka-tiais-to,la-ka-tiais-to,la-ka-ti-ais-to,la-ka-tia-is-to,-0.012037037,-0.113888889,1,0,0,1.2049,text_option_3,,0,119,119,18,1
5cb863ccebd17d0016e7f4f1,63f3cfca20052e4ae7554ebf,6453c94e4704cf9f366b2ad7,2023-05-04_17h04.06.951,ga_syllabified_check,2022.2.5,Win32,9.992006395,,,,,,,,,,,,,,./stim/p03_syllable_1_pachialo_hit.wav,p03,pachialo,hit,pa-chia-lo,pa-chia-lo,pa-chi-a-lo, ,-0.415740741,-0.101851852,1,0,0,0.4433,text_option_1,,0,120,120,24,1
5cb863ccebd17d0016e7f4f1,63f3cfca20052e4ae7554ebf,6453c94e4704cf9f366b2ad7,2023-05-04_17h04.06.951,ga_syllabified_check,2022.2.5,Win32,9.992006395,,,,,,,,,,,,,,./stim/p05_syllable_1_lakabiaisto_hit.wav,p05,lakabiaisto,hit,la-ka-bi-ais-to,la-ka-biais-to,la-ka-bi-ais-to,la-ka-bia-is-to,-0.023148148,-0.09537037,1,0,0,2.0981,text_option_3,,0,121,121,74,1
5cb863ccebd17d0016e7f4f1,63f3cfca20052e4ae7554ebf,6453c94e4704cf9f366b2ad7,2023-05-04_17h04.06.951,ga_syllabified_check,2022.2.5,Win32,9.992006395,,,,,,,,,,,,,,./stim/p07_syllable_1_faluduako_hit.wav,p07,faluduako,hit,fa-lu-dua-ko,fa-lu-dua-ko,fa-lu-du-a-ko, ,-0.417592593,-0.094444444,1,0,0,4.972,text_option_1,,0,122,122,138,1
5cb863ccebd17d0016e7f4f1,63f3cfca20052e4ae7554ebf,6453c94e4704cf9f366b2ad7,2023-05-04_17h04.06.951,ga_syllabified_check,2022.2.5,Win32,9.992006395,,,,,,,,,,,,,,./stim/p03_syllable_1_lakakuaisto_hit.wav,p03,lakakuaisto,hit,la-ka-kuais-to,la-ka-kuais-to,la-ka-ku-ais-to,la-ka-kua-is-to,-0.306481481,-0.108333333,1,0,0,1.5458,text_option_1,,0,123,123,15,1
5cb863ccebd17d0016e7f4f1,63f3cfca20052e4ae7554ebf,6453c94e4704cf9f366b2ad7,2023-05-04_17h04.06.951,ga_syllabified_check,2022.2.5,Win32,9.992006395,,,,,,,,,,,,,,./stim/p05_syllable_1_lakafuaisto_hit.wav,p05,lakafuaisto,hit,la-ka-fais-to,la-ka-fuais-to,la-ka-fu-ais-to,la-ka-fua-is-to,-0.356481481,-0.106481481,1,0,0,2.5554,text_option_1,,0,124,124,79,1
5cb863ccebd17d0016e7f4f1,63f3cfca20052e4ae7554ebf,6453c94e4704cf9f366b2ad7,2023-05-04_17h04.06.951,ga_syllabified_check,2022.2.5,Win32,9.992006395,,,,,,,,,,,,,,./stim/p08_syllable_1_lakadiaisto_hit.wav,p08,lakadiaisto,hit,la-ka-di-jas-to,la-ka-diais-to,la-ka-di-ais-to,la-ka-dia-is-to,0.015740741,-0.105555556,1,0,0,4.1933,text_option_3,,0,125,125,178,1
5cb863ccebd17d0016e7f4f1,63f3cfca20052e4ae7554ebf,6453c94e4704cf9f366b2ad7,2023-05-04_17h04.06.951,ga_syllabified_check,2022.2.5,Win32,9.992006395,,,,,,,,,,,,,,./stim/p06_syllable_1_lakapuaisto_hit.wav,p06,lakapuaisto,hit,la-ka-pu-a-is,la-ka-puais-to,la-ka-pu-ais-to,la-ka-pua-is-to,0.00462963,-0.110185185,1,0,0,6.283,text_option_3,,0,126,126,119,1
5cb863ccebd17d0016e7f4f1,63f3cfca20052e4ae7554ebf,6453c94e4704cf9f366b2ad7,2023-05-04_17h04.06.951,ga_syllabified_check,2022.2.5,Win32,9.992006395,,,,,,,,,,,,,,./stim/p08_syllable_1_lakatuaisto_hit.wav,p08,lakatuaisto,hit,la-ka-tu-i-jis,la-ka-tuais-to,la-ka-tu-ais-to,la-ka-tua-is-to,0.457407407,-0.106481481,1,0,0,5.4028,text_option_2,,0,127,127,189,1
5cb863ccebd17d0016e7f4f1,63f3cfca20052e4ae7554ebf,6453c94e4704cf9f366b2ad7,2023-05-04_17h04.06.951,ga_syllabified_check,2022.2.5,Win32,9.992006395,,,,,,,,,,,,,,./stim/p05_syllable_1_lakakiaisto_hit.wav,p05,lakakiaisto,hit,la-ka-ki-ais-to,la-ka-kiais-to,la-ka-ki-ais-to,la-ka-kia-is-to,-0.059259259,-0.109259259,1,0,0,0.2217,text_option_3,,0,128,128,82,1
5cb863ccebd17d0016e7f4f1,63f3cfca20052e4ae7554ebf,6453c94e4704cf9f366b2ad7,2023-05-04_17h04.06.951,ga_syllabified_check,2022.2.5,Win32,9.992006395,,,,,,,,,,,,,,./stim/p05_syllable_1_lakadiaisto_hit.wav,p05,lakadiaisto,hit,la-ka-di-ais-to,la-ka-diais-to,la-ka-di-ais-to,la-ka-dia-is-to,-0.407407407,-0.114814815,1,0,0,1.0801,text_option_1,,0,129,129,76,1
5cb863ccebd17d0016e7f4f1,63f3cfca20052e4ae7554ebf,6453c94e4704cf9f366b2ad7,2023-05-04_17h04.06.951,ga_syllabified_check,2022.2.5,Win32,9.992006395,,,,,,,,,,,,,,./stim/p04_syllable_1_rausto_hit.wav,p04,rausto,hit,raus-to,raus-to,ra-us-to, ,-0.393518519,-0.110185185,1,0,0,0.6558,text_option_1,,0,130,130,65,1
5cb863ccebd17d0016e7f4f1,63f3cfca20052e4ae7554ebf,6453c94e4704cf9f366b2ad7,2023-05-04_17h04.06.951,ga_syllabified_check,2022.2.5,Win32,9.992006395,,,,,,,,,,,,,,./stim/p03_syllable_1_manhiala_hit.wav,p03,mañiala,hit,ma-nhia-la,ma-ñia-la,ma-ñi-a-la, ,-0.368518519,-0.111111111,1,0,0,0.7716,text_option_1,,0,131,131,21,1
5cb863ccebd17d0016e7f4f1,63f3cfca20052e4ae7554ebf,6453c94e4704cf9f366b2ad7,2023-05-04_17h04.06.951,ga_syllabified_check,2022.2.5,Win32,9.992006395,,,,,,,,,,,,,,./stim/p04_syllable_1_manhiala_hit.wav,p04,mañiala,hit,ma-nhia-la,ma-ñia-la,ma-ñi-a-la, ,-0.359259259,-0.109259259,1,0,0,0.8784,text_option_1,,0,132,132,55,1
5cb863ccebd17d0016e7f4f1,63f3cfca20052e4ae7554ebf,6453c94e4704cf9f366b2ad7,2023-05-04_17h04.06.951,ga_syllabified_check,2022.2.5,Win32,9.992006395,,,,,,,,,,,,,,./stim/p07_syllable_1_paluguato_hit.wav,p07,paluguato,hit,pa-lu-gua-to,pa-lu-gua-to,pa-lu-gu-a-to, ,-0.364814815,-0.101851852,1,0,0,3.0398,text_option_1,,0,133,133,163,1
5cb863ccebd17d0016e7f4f1,63f3cfca20052e4ae7554ebf,6453c94e4704cf9f366b2ad7,2023-05-04_17h04.06.951,ga_syllabified_check,2022.2.5,Win32,9.992006395,,,,,,,,,,,,,,./stim/p07_syllable_1_tuliafo_hit.wav,p07,tuliafo,hit,tu-lia-fo,tu-lia-fo,tu-li-a-fo, ,-0.367592593,-0.103703704,1,0,0,1.3055,text_option_1,,0,134,134,169,1
5cb863ccebd17d0016e7f4f1,63f3cfca20052e4ae7554ebf,6453c94e4704cf9f366b2ad7,2023-05-04_17h04.06.951,ga_syllabified_check,2022.2.5,Win32,9.992006395,,,,,,,,,,,,,,./stim/p07_syllable_1_flauro_hit.wav,p07,flauro,hit,flau-ro,flau-ro,fla-u-ro, ,-0.39537037,-0.103703704,1,0,0,1.0823,text_option_1,,0,135,135,141,1
5cb863ccebd17d0016e7f4f1,63f3cfca20052e4ae7554ebf,6453c94e4704cf9f366b2ad7,2023-05-04_17h04.06.951,ga_syllabified_check,2022.2.5,Win32,9.992006395,,,,,,,,,,,,,,./stim/p03_syllable_1_palufauro_hit.wav,p03,palufauro,hit,pa-lu-fau-ro,pa-lu-fau-ro,pa-lu-fa-u-ro, ,-0.340740741,-0.099074074,1,0,0,1.8859,text_option_1,,0,136,136,25,1
5cb863ccebd17d0016e7f4f1,63f3cfca20052e4ae7554ebf,6453c94e4704cf9f366b2ad7,2023-05-04_17h04.06.951,ga_syllabified_check,2022.2.5,Win32,9.992006395,,,,,,,,,,,,,,./stim/p05_syllable_1_falufaisto_hit.wav,p05,falufaisto,hit,fa-lu-fais-to,fa-lu-fais-to,fa-lu-fa-is-to, ,-0.339814815,-0.099074074,1,0,0,0.3294,text_option_1,,0,137,137,71,1
5cb863ccebd17d0016e7f4f1,63f3cfca20052e4ae7554ebf,6453c94e4704cf9f366b2ad7,2023-05-04_17h04.06.951,ga_syllabified_check,2022.2.5,Win32,9.992006395,,,,,,,,,,,,,,./stim/p06_syllable_1_lakadiaisto_hit.wav,p06,lakadiaisto,hit,la-ka-dia-is-to,la-ka-diais-to,la-ka-di-ais-to,la-ka-dia-is-to,0.076851852,-0.102777778,1,0,0,2.5156,text_option_3,,0,138,138,110,1
5cb863ccebd17d0016e7f4f1,63f3cfca20052e4ae7554ebf,6453c94e4704cf9f366b2ad7,2023-05-04_17h04.06.951,ga_syllabified_check,2022.2.5,Win32,9.992006395,,,,,,,,,,,,,,./stim/p08_syllable_1_faluduako_hit.wav,p08,faluduako,hit,fa-lu-duai-ko,fa-lu-dua-ko,fa-lu-du-a-ko, ,0.392592593,-0.106481481,1,0,0,1.9693,text_option_2,,0,139,139,172,1
5cb863ccebd17d0016e7f4f1,63f3cfca20052e4ae7554ebf,6453c94e4704cf9f366b2ad7,2023-05-04_17h04.06.951,ga_syllabified_check,2022.2.5,Win32,9.992006395,,,,,,,,,,,,,,./stim/p08_syllable_1_lakabuaisto_hit.wav,p08,lakabuaisto,hit,la-ka-bu-ais-to,la-ka-buais-to,la-ka-bu-ais-to,la-ka-bua-is-to,0.389814815,-0.108333333,1,0,0,2.0854,text_option_2,,0,140,140,177,1
5cb863ccebd17d0016e7f4f1,63f3cfca20052e4ae7554ebf,6453c94e4704cf9f366b2ad7,2023-05-04_17h04.06.951,ga_syllabified_check,2022.2.5,Win32,9.992006395,,,,,,,,,,,,,,./stim/p07_syllable_1_mebochiana_hit.wav,p07,mebochiana,hit,me-bo-chia-na,me-bo-chia-na,me-bo-chi-a-na, ,0.389814815,-0.108333333,1,0,0,2.3003,text_option_2,,0,141,141,158,1
5cb863ccebd17d0016e7f4f1,63f3cfca20052e4ae7554ebf,6453c94e4704cf9f366b2ad7,2023-05-04_17h04.06.951,ga_syllabified_check,2022.2.5,Win32,9.992006395,,,,,,,,,,,,,,./stim/p08_syllable_1_lakakuaisto_hit.wav,p08,lakakuaisto,hit,la-ka-ku-ais-to,la-ka-kuais-to,la-ka-ku-ais-to,la-ka-kua-is-to,0.387962963,-0.111111111,1,0,0,3.3338,text_option_2,,0,142,142,185,1
5cb863ccebd17d0016e7f4f1,63f3cfca20052e4ae7554ebf,6453c94e4704cf9f366b2ad7,2023-05-04_17h04.06.951,ga_syllabified_check,2022.2.5,Win32,9.992006395,,,,,,,,,,,,,,./stim/p05_syllable_1_lakafiaisto_hit.wav,p05,lakafiaisto,hit,la-ka-fi-ais-to,la-ka-fiais-to,la-ka-fi-ais-to,la-ka-fia-is-to,0.378703704,-0.097222222,1,0,0,1.2456,text_option_2,,0,143,143,78,1
5cb863ccebd17d0016e7f4f1,63f3cfca20052e4ae7554ebf,6453c94e4704cf9f366b2ad7,2023-05-04_17h04.06.951,ga_syllabified_check,2022.2.5,Win32,9.992006395,,,,,,,,,,,,,,./stim/p04_syllable_1_faluduako_hit.wav,p04,faluduako,hit,fa-lu-dua-ko,fa-lu-dua-ko,fa-lu-du-a-ko, ,0.410185185,-0.1,1,0,0,1.0874,text_option_2,,0,144,144,36,1
5cb863ccebd17d0016e7f4f1,63f3cfca20052e4ae7554ebf,6453c94e4704cf9f366b2ad7,2023-05-04_17h04.06.951,ga_syllabified_check,2022.2.5,Win32,9.992006395,,,,,,,,,,,,,,./stim/p05_syllable_1_rausto_hit.wav,p05,rausto,hit,raus-to,raus-to,ra-us-to, ,-0.415740741,-0.10462963,1,0,0,0.3318,text_option_1,,0,145,145,99,1
5cb863ccebd17d0016e7f4f1,63f3cfca20052e4ae7554ebf,6453c94e4704cf9f366b2ad7,2023-05-04_17h04.06.951,ga_syllabified_check,2022.2.5,Win32,9.992006395,,,,,,,,,,,,,,./stim/p03_syllable_1_costonhialo_hit.wav,p03,costoñialo,hit,cos-to-nhia-lo,cos-to-ñia-lo,cos-to-ñi-a-lo, ,-0.386111111,-0.108333333,1,0,0,1.5322,text_option_1,,0,146,146,1,1
5cb863ccebd17d0016e7f4f1,63f3cfca20052e4ae7554ebf,6453c94e4704cf9f366b2ad7,2023-05-04_17h04.06.951,ga_syllabified_check,2022.2.5,Win32,9.992006395,,,,,,,,,,,,,,./stim/p08_syllable_1_tuliafo_hit.wav,p08,tuliafo,hit,tu-li-a-fo,tu-lia-fo,tu-li-a-fo, ,0.458333333,-0.113888889,1,0,0,2.2865,text_option_2,,0,147,147,203,1
5cb863ccebd17d0016e7f4f1,63f3cfca20052e4ae7554ebf,6453c94e4704cf9f366b2ad7,2023-05-04_17h04.06.951,ga_syllabified_check,2022.2.5,Win32,9.992006395,,,,,,,,,,,,,,./stim/p06_syllable_1_chiaba_hit.wav,p06,chiaba,hit,chi-a-ba,chia-ba,chi-a-ba, ,-0.402777778,-0.093518519,1,0,0,1.7766,text_option_1,,0,148,148,102,1
5cb863ccebd17d0016e7f4f1,63f3cfca20052e4ae7554ebf,6453c94e4704cf9f366b2ad7,2023-05-04_17h04.06.951,ga_syllabified_check,2022.2.5,Win32,9.992006395,,,,,,,,,,,,,,./stim/p06_syllable_1_payielo_hit.wav,p06,payielo,hit,pa-yi-e-lo,pa-yie-lo,pa-yi-e-lo, ,0.374074074,-0.101851852,1,0,0,1.4216,text_option_2,,0,149,149,132,1
5cb863ccebd17d0016e7f4f1,63f3cfca20052e4ae7554ebf,6453c94e4704cf9f366b2ad7,2023-05-04_17h04.06.951,ga_syllabified_check,2022.2.5,Win32,9.992006395,,,,,,,,,,,,,,./stim/p04_syllable_1_lakatuaisto_hit.wav,p04,lakatuaisto,hit,la-ka-kuais-to,la-ka-tuais-to,la-ka-tu-ais-to,la-ka-tua-is-to,-0.351851852,-0.102777778,1,0,0,1.3456,text_option_1,,0,150,150,53,1
5cb863ccebd17d0016e7f4f1,63f3cfca20052e4ae7554ebf,6453c94e4704cf9f366b2ad7,2023-05-04_17h04.06.951,ga_syllabified_check,2022.2.5,Win32,9.992006395,,,,,,,,,,,,,,./stim/p05_syllable_1_chiaba_hit.wav,p05,chiaba,hit,chia-ba,chia-ba,chi-a-ba, ,0.025,-0.319444444,1,0,0,2.0928,text_option_other,chaiba,0,151,151,68,1
5cb863ccebd17d0016e7f4f1,63f3cfca20052e4ae7554ebf,6453c94e4704cf9f366b2ad7,2023-05-04_17h04.06.951,ga_syllabified_check,2022.2.5,Win32,9.992006395,,,,,,,,,,,,,,./stim/p08_syllable_1_lakaduaisto_hit.wav,p08,lakaduaisto,hit,la-ka-du-ais-to,la-ka-duais-to,la-ka-du-ais-to,la-ka-dua-is-to,-0.408333333,-0.118518519,1,0,0,1.4337,text_option_1,,0,152,152,179,1
5cb863ccebd17d0016e7f4f1,63f3cfca20052e4ae7554ebf,6453c94e4704cf9f366b2ad7,2023-05-04_17h04.06.951,ga_syllabified_check,2022.2.5,Win32,9.992006395,,,,,,,,,,,,,,./stim/p04_syllable_1_lliape_hit.wav,p04,lliape,hit,lia-pe,llia-pe,lli-a-pe, ,-0.4,-0.107407407,1,0,0,0.6678,text_option_1,,0,153,153,54,1
5cb863ccebd17d0016e7f4f1,63f3cfca20052e4ae7554ebf,6453c94e4704cf9f366b2ad7,2023-05-04_17h04.06.951,ga_syllabified_check,2022.2.5,Win32,9.992006395,,,,,,,,,,,,,,./stim/p06_syllable_1_tuliafo_hit.wav,p06,tuliafo,hit,tu-li-a-fo,tu-lia-fo,tu-li-a-fo, ,0.418518519,-0.112037037,1,0,0,2.6701,text_option_2,,0,154,154,135,1
5cb863ccebd17d0016e7f4f1,63f3cfca20052e4ae7554ebf,6453c94e4704cf9f366b2ad7,2023-05-04_17h04.06.951,ga_syllabified_check,2022.2.5,Win32,9.992006395,,,,,,,,,,,,,,./stim/p07_syllable_1_rausto_hit.wav,p07,rausto,hit,raus-to,raus-to,ra-us-to, ,-0.402777778,-0.093518519,1,0,0,0.2159,text_option_1,,0,155,155,167,1
5cb863ccebd17d0016e7f4f1,63f3cfca20052e4ae7554ebf,6453c94e4704cf9f366b2ad7,2023-05-04_17h04.06.951,ga_syllabified_check,2022.2.5,Win32,9.992006395,,,,,,,,,,,,,,./stim/p03_syllable_1_lakabuaisto_hit.wav,p03,lakabuaisto,hit,la-ka-buais-to,la-ka-buais-to,la-ka-bu-ais-to,la-ka-bua-is-to,-0.344444444,-0.106481481,1,0,0,1.032,text_option_1,,0,156,156,7,1
5cb863ccebd17d0016e7f4f1,63f3cfca20052e4ae7554ebf,6453c94e4704cf9f366b2ad7,2023-05-04_17h04.06.951,ga_syllabified_check,2022.2.5,Win32,9.992006395,,,,,,,,,,,,,,./stim/p07_syllable_1_nhiape_hit.wav,p07,ñiape,hit,nhia-pe,ñia-pe,ñi-a-pe, ,-0.437962963,-0.105555556,1,0,0,0.5515,text_option_1,,0,157,157,159,1
5cb863ccebd17d0016e7f4f1,63f3cfca20052e4ae7554ebf,6453c94e4704cf9f366b2ad7,2023-05-04_17h04.06.951,ga_syllabified_check,2022.2.5,Win32,9.992006395,,,,,,,,,,,,,,./stim/p04_syllable_1_lakadiaisto_hit.wav,p04,lakadiaisto,hit,la-ka-dias-to,la-ka-diais-to,la-ka-di-ais-to,la-ka-dia-is-to,-0.373148148,-0.111111111,1,0,0,1.1003,text_option_1,,0,158,158,42,1
5cb863ccebd17d0016e7f4f1,63f3cfca20052e4ae7554ebf,6453c94e4704cf9f366b2ad7,2023-05-04_17h04.06.951,ga_syllabified_check,2022.2.5,Win32,9.992006395,,,,,,,,,,,,,,./stim/p08_syllable_1_mebochiana_hit.wav,p08,mebochiana,hit,me-bo-chi-a-na,me-bo-chia-na,me-bo-chi-a-na, ,0.437037037,-0.114814815,1,0,0,2.8475,text_option_2,,0,159,159,192,1
5cb863ccebd17d0016e7f4f1,63f3cfca20052e4ae7554ebf,6453c94e4704cf9f366b2ad7,2023-05-04_17h04.06.951,ga_syllabified_check,2022.2.5,Win32,9.992006395,,,,,,,,,,,,,,./stim/p07_syllable_1_lakaguaisto_hit.wav,p07,lakaguaisto,hit,la-ka-guais-to,la-ka-guais-to,la-ka-gu-ais-to,la-ka-gua-is-to,0.02037037,-0.121296296,1,0,0,0.6666,text_option_3,,0,160,160,149,1
5cb863ccebd17d0016e7f4f1,63f3cfca20052e4ae7554ebf,6453c94e4704cf9f366b2ad7,2023-05-04_17h04.06.951,ga_syllabified_check,2022.2.5,Win32,9.992006395,,,,,,,,,,,,,,./stim/p07_syllable_1_lakabiaisto_hit.wav,p07,lakabiaisto,hit,la-ka-bais-to,la-ka-biais-to,la-ka-bi-ais-to,la-ka-bia-is-to,-0.353703704,-0.108333333,1,0,0,2.0288,text_option_1,,0,161,161,142,1
5cb863ccebd17d0016e7f4f1,63f3cfca20052e4ae7554ebf,6453c94e4704cf9f366b2ad7,2023-05-04_17h04.06.951,ga_syllabified_check,2022.2.5,Win32,9.992006395,,,,,,,,,,,,,,./stim/p08_syllable_1_pachialo_hit.wav,p08,pachialo,hit,pa-chi-ja-lo,pa-chia-lo,pa-chi-a-lo, ,0.405555556,-0.105555556,1,0,0,1.6666,text_option_2,,0,162,162,194,1
5cb863ccebd17d0016e7f4f1,63f3cfca20052e4ae7554ebf,6453c94e4704cf9f366b2ad7,2023-05-04_17h04.06.951,ga_syllabified_check,2022.2.5,Win32,9.992006395,,,,,,,,,,,,,,./stim/p04_syllable_1_palutrauco_hit.wav,p04,palutrauco,hit,pa-lu-trau-co,pa-lu-trau-co,pa-lu-tra-u-co, ,0.382407407,-0.1,1,0,0,1.0881,text_option_2,,0,163,163,63,1
5cb863ccebd17d0016e7f4f1,63f3cfca20052e4ae7554ebf,6453c94e4704cf9f366b2ad7,2023-05-04_17h04.06.951,ga_syllabified_check,2022.2.5,Win32,9.992006395,,,,,,,,,,,,,,./stim/p08_syllable_1_palufauto_hit.wav,p08,palufauto,hit,pa-lu-fau-to,pa-lu-fau-to,pa-lu-fa-u-to, ,-0.340740741,-0.105555556,1,0,0,2.4699,text_option_1,,0,164,164,196,1
5cb863ccebd17d0016e7f4f1,63f3cfca20052e4ae7554ebf,6453c94e4704cf9f366b2ad7,2023-05-04_17h04.06.951,ga_syllabified_check,2022.2.5,Win32,9.992006395,,,,,,,,,,,,,,./stim/p03_syllable_1_lakakiaisto_hit.wav,p03,lakakiaisto,hit,la-ka-kiais-to,la-ka-kiais-to,la-ka-ki-ais-to,la-ka-kia-is-to,-0.340740741,-0.105555556,1,0,0,1.5531,text_option_1,,0,165,165,14,1
5cb863ccebd17d0016e7f4f1,63f3cfca20052e4ae7554ebf,6453c94e4704cf9f366b2ad7,2023-05-04_17h04.06.951,ga_syllabified_check,2022.2.5,Win32,9.992006395,,,,,,,,,,,,,,./stim/p05_syllable_1_lakaduaisto_hit.wav,p05,lakaduaisto,hit,la-ka-dais-to,la-ka-duais-to,la-ka-du-ais-to,la-ka-dua-is-to,-0.338888889,-0.107407407,1,0,0,1.3354,text_option_1,,0,166,166,77,1
5cb863ccebd17d0016e7f4f1,63f3cfca20052e4ae7554ebf,6453c94e4704cf9f366b2ad7,2023-05-04_17h04.06.951,ga_syllabified_check,2022.2.5,Win32,9.992006395,,,,,,,,,,,,,,./stim/p05_syllable_1_lliape_hit.wav,p05,lliape,hit,liai-pe,llia-pe,lli-a-pe, ,-0.416666667,-0.093518519,1,0,0,0.108,text_option_1,,0,167,167,88,1
5cb863ccebd17d0016e7f4f1,63f3cfca20052e4ae7554ebf,6453c94e4704cf9f366b2ad7,2023-05-04_17h04.06.951,ga_syllabified_check,2022.2.5,Win32,9.992006395,,,,,,,,,,,,,,./stim/p04_syllable_1_palufauto_hit.wav,p04,palufauto,hit,pa-lu-fau-to,pa-lu-fau-to,pa-lu-fa-u-to, ,-0.361111111,-0.102777778,1,0,0,0.6433,text_option_1,,0,168,168,60,1
5cb863ccebd17d0016e7f4f1,63f3cfca20052e4ae7554ebf,6453c94e4704cf9f366b2ad7,2023-05-04_17h04.06.951,ga_syllabified_check,2022.2.5,Win32,9.992006395,,,,,,,,,,,,,,./stim/p03_syllable_1_chiaba_hit.wav,p03,chiaba,hit,chia-ba,chia-ba,chi-a-ba, ,-0.361111111,-0.102777778,1,0,0,0.6689,text_option_1,,0,169,169,0,1
5cb863ccebd17d0016e7f4f1,63f3cfca20052e4ae7554ebf,6453c94e4704cf9f366b2ad7,2023-05-04_17h04.06.951,ga_syllabified_check,2022.2.5,Win32,9.992006395,,,,,,,,,,,,,,./stim/p06_syllable_1_lakapiaisto_hit.wav,p06,lakapiaisto,hit,la-ka-pia-is-to,la-ka-piais-to,la-ka-pi-ais-to,la-ka-pia-is-to,0.048148148,-0.102777778,1,0,0,4.6075,text_option_3,,0,170,170,118,1
5cb863ccebd17d0016e7f4f1,63f3cfca20052e4ae7554ebf,6453c94e4704cf9f366b2ad7,2023-05-04_17h04.06.951,ga_syllabified_check,2022.2.5,Win32,9.992006395,,,,,,,,,,,,,,./stim/p08_syllable_1_ruyiola_hit.wav,p08,ruyiola,hit,ru-yio-la,ru-yio-la,ru-yi-o-la, ,-0.360185185,-0.101851852,1,0,0,1.678,text_option_1,,0,171,171,202,1
5cb863ccebd17d0016e7f4f1,63f3cfca20052e4ae7554ebf,6453c94e4704cf9f366b2ad7,2023-05-04_17h04.06.951,ga_syllabified_check,2022.2.5,Win32,9.992006395,,,,,,,,,,,,,,./stim/p08_syllable_1_lakagiaisto_hit.wav,p08,lakagiaisto,hit,la-ka-gi-jas-to,la-ka-giais-to,la-ka-gi-ais-to,la-ka-gia-is-to,0.380555556,-0.101851852,1,0,0,8.4161,text_option_2,,0,172,172,182,1
5cb863ccebd17d0016e7f4f1,63f3cfca20052e4ae7554ebf,6453c94e4704cf9f366b2ad7,2023-05-04_17h04.06.951,ga_syllabified_check,2022.2.5,Win32,9.992006395,,,,,,,,,,,,,,./stim/p07_syllable_1_chiaba_hit.wav,p07,chiaba,hit,chia-ba,chia-ba,chi-a-ba, ,-0.407407407,-0.081481481,1,0,0,14.1747,text_option_1,,0,173,173,136,1
5cb863ccebd17d0016e7f4f1,63f3cfca20052e4ae7554ebf,6453c94e4704cf9f366b2ad7,2023-05-04_17h04.06.951,ga_syllabified_check,2022.2.5,Win32,9.992006395,,,,,,,,,,,,,,./stim/p07_syllable_1_palumaisto_hit.wav,p07,palumaisto,hit,pa-lu-mais-to,pa-lu-mais-to,pa-lu-ma-is-to, ,-0.359259259,-0.108333333,1,0,0,2.6807,text_option_1,,0,174,174,164,1
5cb863ccebd17d0016e7f4f1,63f3cfca20052e4ae7554ebf,6453c94e4704cf9f366b2ad7,2023-05-04_17h04.06.951,ga_syllabified_check,2022.2.5,Win32,9.992006395,,,,,,,,,,,,,,./stim/p04_syllable_1_mebochiana_hit.wav,p04,mebochiana,hit,me-bo-chia-na,me-bo-chia-na,me-bo-chi-a-na, ,-0.359259259,-0.108333333,1,0,0,0.8675,text_option_1,,0,175,175,56,1
5cb863ccebd17d0016e7f4f1,63f3cfca20052e4ae7554ebf,6453c94e4704cf9f366b2ad7,2023-05-04_17h04.06.951,ga_syllabified_check,2022.2.5,Win32,9.992006395,,,,,,,,,,,,,,./stim/p05_syllable_1_lakapiaisto_hit.wav,p05,lakapiaisto,hit,la-ka-pais-to,la-ka-piais-to,la-ka-pi-ais-to,la-ka-pia-is-to,-0.359259259,-0.108333333,1,0,0,3.1194,text_option_1,,0,176,176,84,1
5cb863ccebd17d0016e7f4f1,63f3cfca20052e4ae7554ebf,6453c94e4704cf9f366b2ad7,2023-05-04_17h04.06.951,ga_syllabified_check,2022.2.5,Win32,9.992006395,,,,,,,,,,,,,,./stim/p08_syllable_1_lakabiaisto_hit.wav,p08,lakabiaisto,hit,la-ka-bi-as-to,la-ka-biais-to,la-ka-bi-ais-to,la-ka-bia-is-to,-0.39537037,-0.096296296,1,0,0,6.5382,text_option_1,,0,177,177,176,1
5cb863ccebd17d0016e7f4f1,63f3cfca20052e4ae7554ebf,6453c94e4704cf9f366b2ad7,2023-05-04_17h04.06.951,ga_syllabified_check,2022.2.5,Win32,9.992006395,,,,,,,,,,,,,,./stim/p03_syllable_1_lliape_hit.wav,p03,lliape,hit,llia,llia-pe,lli-a-pe, ,-0.398148148,-0.108333333,1,0,0,2.656,text_option_1,,0,178,178,20,1
5cb863ccebd17d0016e7f4f1,63f3cfca20052e4ae7554ebf,6453c94e4704cf9f366b2ad7,2023-05-04_17h04.06.951,ga_syllabified_check,2022.2.5,Win32,9.992006395,,,,,,,,,,,,,,./stim/p04_syllable_1_lakapiaisto_hit.wav,p04,lakapiaisto,hit,la-ka-piais-to,la-ka-piais-to,la-ka-pi-ais-to,la-ka-pia-is-to,-0.398148148,-0.108333333,1,0,0,0.6561,text_option_1,,0,179,179,50,1
5cb863ccebd17d0016e7f4f1,63f3cfca20052e4ae7554ebf,6453c94e4704cf9f366b2ad7,2023-05-04_17h04.06.951,ga_syllabified_check,2022.2.5,Win32,9.992006395,,,,,,,,,,,,,,./stim/p03_syllable_1_flauro_hit.wav,p03,flauro,hit,flau-ro,flau-ro,fla-u-ro, ,-0.398148148,-0.108333333,1,0,0,1.3228,text_option_1,,0,180,180,5,1
5cb863ccebd17d0016e7f4f1,63f3cfca20052e4ae7554ebf,6453c94e4704cf9f366b2ad7,2023-05-04_17h04.06.951,ga_syllabified_check,2022.2.5,Win32,9.992006395,,,,,,,,,,,,,,./stim/p04_syllable_1_lakafiaisto_hit.wav,p04,lakafiaisto,hit,la-ka-fiais-to,la-ka-fiais-to,la-ka-fi-ais-to,la-ka-fia-is-to,-0.414814815,-0.103703704,1,0,0,2.9585,text_option_1,,0,181,181,44,1
5cb863ccebd17d0016e7f4f1,63f3cfca20052e4ae7554ebf,6453c94e4704cf9f366b2ad7,2023-05-04_17h04.06.951,ga_syllabified_check,2022.2.5,Win32,9.992006395,,,,,,,,,,,,,,./stim/p05_syllable_1_lakakuaisto_hit.wav,p05,lakakuaisto,hit,la-ka-kais-to,la-ka-kuais-to,la-ka-ku-ais-to,la-ka-kua-is-to,-0.414814815,-0.103703704,1,0,0,1.9597,text_option_1,,0,182,182,83,1
5cb863ccebd17d0016e7f4f1,63f3cfca20052e4ae7554ebf,6453c94e4704cf9f366b2ad7,2023-05-04_17h04.06.951,ga_syllabified_check,2022.2.5,Win32,9.992006395,,,,,,,,,,,,,,./stim/p06_syllable_1_faluduako_hit.wav,p06,faluduako,hit,fa-lu-dua-ko,fa-lu-dua-ko,fa-lu-du-a-ko, ,-0.414814815,-0.103703704,1,0,0,4.2625,text_option_1,,0,183,183,104,1
5cb863ccebd17d0016e7f4f1,63f3cfca20052e4ae7554ebf,6453c94e4704cf9f366b2ad7,2023-05-04_17h04.06.951,ga_syllabified_check,2022.2.5,Win32,9.992006395,,,,,,,,,,,,,,./stim/p03_syllable_1_faluduako_hit.wav,p03,faluduako,hit,fa-lu-dua-ko,fa-lu-dua-ko,fa-lu-du-a-ko, ,-0.460185185,-0.107407407,1,0,0,2.3964,text_option_1,,0,184,184,2,1
5cb863ccebd17d0016e7f4f1,63f3cfca20052e4ae7554ebf,6453c94e4704cf9f366b2ad7,2023-05-04_17h04.06.951,ga_syllabified_check,2022.2.5,Win32,9.992006395,,,,,,,,,,,,,,./stim/p06_syllable_1_palutrauco_hit.wav,p06,palutrauco,hit,pa-lu-tra-u-co,pa-lu-trau-co,pa-lu-tra-u-co, ,0.439814815,-0.106481481,1,0,0,2.9913,text_option_2,,0,185,185,131,1
5cb863ccebd17d0016e7f4f1,63f3cfca20052e4ae7554ebf,6453c94e4704cf9f366b2ad7,2023-05-04_17h04.06.951,ga_syllabified_check,2022.2.5,Win32,9.992006395,,,,,,,,,,,,,,./stim/p08_syllable_1_palutrauco_hit.wav,p08,palutrauco,hit,pa-lu-trau-ko,pa-lu-trau-co,pa-lu-tra-u-co, ,-0.438888889,-0.10462963,1,0,0,1.2064,text_option_1,,0,186,186,199,1
5cb863ccebd17d0016e7f4f1,63f3cfca20052e4ae7554ebf,6453c94e4704cf9f366b2ad7,2023-05-04_17h04.06.951,ga_syllabified_check,2022.2.5,Win32,9.992006395,,,,,,,,,,,,,,./stim/p08_syllable_1_falufaisto_hit.wav,p08,falufaisto,hit,fa-lu-fais-to,fa-lu-fais-to,fa-lu-fa-is-to, ,-0.396296296,-0.088888889,1,0,0,2.6018,text_option_1,,0,187,187,173,1
5cb863ccebd17d0016e7f4f1,63f3cfca20052e4ae7554ebf,6453c94e4704cf9f366b2ad7,2023-05-04_17h04.06.951,ga_syllabified_check,2022.2.5,Win32,9.992006395,,,,,,,,,,,,,,./stim/p05_syllable_1_lakatiaisto_hit.wav,p05,lakatiaisto,hit,la-ka-ti-ais-to,la-ka-tiais-to,la-ka-ti-ais-to,la-ka-tia-is-to,0.023148148,-0.105555556,1,0,0,2.0839,text_option_3,,0,188,188,86,1
5cb863ccebd17d0016e7f4f1,63f3cfca20052e4ae7554ebf,6453c94e4704cf9f366b2ad7,2023-05-04_17h04.06.951,ga_syllabified_check,2022.2.5,Win32,9.992006395,,,,,,,,,,,,,,./stim/p08_syllable_1_falutraigo_hit.wav,p08,falutraigo,hit,fa-lu-trai-go,fa-lu-trai-go,fa-lu-tra-i-go, ,-0.398148148,-0.110185185,1,0,0,0.8582,text_option_1,,0,189,189,174,1
5cb863ccebd17d0016e7f4f1,63f3cfca20052e4ae7554ebf,6453c94e4704cf9f366b2ad7,2023-05-04_17h04.06.951,ga_syllabified_check,2022.2.5,Win32,9.992006395,,,,,,,,,,,,,,./stim/p05_syllable_1_tuliafo_hit.wav,p05,tuliafo,hit,tu-lai-fo,tu-lia-fo,tu-li-a-fo, ,-0.369444444,-0.097222222,1,0,0,6.6174,text_option_1,,0,190,190,101,1
5cb863ccebd17d0016e7f4f1,63f3cfca20052e4ae7554ebf,6453c94e4704cf9f366b2ad7,2023-05-04_17h04.06.951,ga_syllabified_check,2022.2.5,Win32,9.992006395,,,,,,,,,,,,,,./stim/p03_syllable_1_lakapuaisto_hit.wav,p03,lakapuaisto,hit,la-ka-puais-to,la-ka-puais-to,la-ka-pu-ais-to,la-ka-pua-is-to,-0.325,-0.094444444,1,0,0,1.1104,text_option_1,,0,191,191,17,1
5cb863ccebd17d0016e7f4f1,63f3cfca20052e4ae7554ebf,6453c94e4704cf9f366b2ad7,2023-05-04_17h04.06.951,ga_syllabified_check,2022.2.5,Win32,9.992006395,,,,,,,,,,,,,,./stim/p04_syllable_1_lakabuaisto_hit.wav,p04,lakabuaisto,hit,la-ka-buais-to,la-ka-buais-to,la-ka-bu-ais-to,la-ka-bua-is-to,0.071296296,-0.107407407,1,0,0,0.6587,text_option_3,,0,192,192,41,1
5cb863ccebd17d0016e7f4f1,63f3cfca20052e4ae7554ebf,6453c94e4704cf9f366b2ad7,2023-05-04_17h04.06.951,ga_syllabified_check,2022.2.5,Win32,9.992006395,,,,,,,,,,,,,,./stim/p08_syllable_1_flauro_hit.wav,p08,flauro,hit,flau-ro,flau-ro,fla-u-ro, ,-0.403703704,-0.110185185,1,0,0,0.867,text_option_1,,0,193,193,175,1
5cb863ccebd17d0016e7f4f1,63f3cfca20052e4ae7554ebf,6453c94e4704cf9f366b2ad7,2023-05-04_17h04.06.951,ga_syllabified_check,2022.2.5,Win32,9.992006395,,,,,,,,,,,,,,./stim/p06_syllable_1_lakakuaisto_hit.wav,p06,lakakuaisto,hit,la-ka-ku-a-is,la-ka-kuais-to,la-ka-ku-ais-to,la-ka-kua-is-to,-0.417592593,-0.101851852,1,0,0,10.098,text_option_1,,0,194,194,117,1
5cb863ccebd17d0016e7f4f1,63f3cfca20052e4ae7554ebf,6453c94e4704cf9f366b2ad7,2023-05-04_17h04.06.951,ga_syllabified_check,2022.2.5,Win32,9.992006395,,,,,,,,,,,,,,./stim/p04_syllable_1_lakatiaisto_hit.wav,p04,lakatiaisto,hit,la-ka-kiais-to,la-ka-tiais-to,la-ka-ti-ais-to,la-ka-tia-is-to,-0.417592593,-0.101851852,1,0,0,8.4896,text_option_1,,0,195,195,52,1
5cb863ccebd17d0016e7f4f1,63f3cfca20052e4ae7554ebf,6453c94e4704cf9f366b2ad7,2023-05-04_17h04.06.951,ga_syllabified_check,2022.2.5,Win32,9.992006395,,,,,,,,,,,,,,./stim/p07_syllable_1_lakakiaisto_hit.wav,p07,lakakiaisto,hit,la-ka-kais-to,la-ka-kiais-to,la-ka-ki-ais-to,la-ka-kia-is-to,-0.035185185,-0.107407407,1,0,0,0.2141,text_option_3,,0,196,196,150,1
5cb863ccebd17d0016e7f4f1,63f3cfca20052e4ae7554ebf,6453c94e4704cf9f366b2ad7,2023-05-04_17h04.06.951,ga_syllabified_check,2022.2.5,Win32,9.992006395,,,,,,,,,,,,,,./stim/p03_syllable_1_tuliafo_hit.wav,p03,tuliafo,hit,tu-lia-fo,tu-lia-fo,tu-li-a-fo, ,-0.409259259,-0.112037037,1,0,0,0.8772,text_option_1,,0,197,197,33,1
5cb863ccebd17d0016e7f4f1,63f3cfca20052e4ae7554ebf,6453c94e4704cf9f366b2ad7,2023-05-04_17h04.06.951,ga_syllabified_check,2022.2.5,Win32,9.992006395,,,,,,,,,,,,,,./stim/p07_syllable_1_falufaisto_hit.wav,p07,falufaisto,hit,fa-lu-fais-to,fa-lu-fais-to,fa-lu-fa-is-to, ,-0.400925926,-0.094444444,1,0,0,0.5677,text_option_1,,0,198,198,139,1
5cb863ccebd17d0016e7f4f1,63f3cfca20052e4ae7554ebf,6453c94e4704cf9f366b2ad7,2023-05-04_17h04.06.951,ga_syllabified_check,2022.2.5,Win32,9.992006395,,,,,,,,,,,,,,./stim/p03_syllable_1_falutraigo_hit.wav,p03,falutraigo,hit,fa-lu-trai-go,fa-lu-trai-go,fa-lu-tra-i-go, ,-0.400925926,-0.094444444,1,0,0,1.7658,text_option_1,,0,199,199,4,1
5cb863ccebd17d0016e7f4f1,63f3cfca20052e4ae7554ebf,6453c94e4704cf9f366b2ad7,2023-05-04_17h04.06.951,ga_syllabified_check,2022.2.5,Win32,9.992006395,,,,,,,,,,,,,,./stim/p08_syllable_1_palumaisto_hit.wav,p08,palumaisto,hit,pa-lu-mais-to,pa-lu-mais-to,pa-lu-ma-is-to, ,-0.400925926,-0.094444444,1,0,0,2.0662,text_option_1,,0,200,200,198,1
5cb863ccebd17d0016e7f4f1,63f3cfca20052e4ae7554ebf,6453c94e4704cf9f366b2ad7,2023-05-04_17h04.06.951,ga_syllabified_check,2022.2.5,Win32,9.992006395,,,,,,,,,,,,,,./stim/p05_syllable_1_lakatuaisto_hit.wav,p05,lakatuaisto,hit,la-ka-tais-to,la-ka-tuais-to,la-ka-tu-ais-to,la-ka-tua-is-to,-0.030555556,-0.094444444,1,0,0,0.7966,text_option_3,,0,201,201,87,1
5cb863ccebd17d0016e7f4f1,63f3cfca20052e4ae7554ebf,6453c94e4704cf9f366b2ad7,2023-05-04_17h04.06.951,ga_syllabified_check,2022.2.5,Win32,9.992006395,,,,,,,,,,,,,,./stim/p07_syllable_1_lakafiaisto_hit.wav,p07,lakafiaisto,hit,la-ka-fiais-to,la-ka-fiais-to,la-ka-fi-ais-to,la-ka-fia-is-to,0.469444444,-0.103703704,1,0,0,0.5451,text_option_2,,0,202,202,146,1
5cb863ccebd17d0016e7f4f1,63f3cfca20052e4ae7554ebf,6453c94e4704cf9f366b2ad7,2023-05-04_17h04.06.951,ga_syllabified_check,2022.2.5,Win32,9.992006395,,,,,,,,,,,,,,./stim/p06_syllable_1_falufaisto_hit.wav,p06,falufaisto,hit,fa-lu-fa-is-to,fa-lu-fais-to,fa-lu-fa-is-to, ,-0.397222222,-0.101851852,1,0,0,0.3287,text_option_1,,0,203,203,105,1
5cb863ccebd17d0016e7f4f1,63f3cfca20052e4ae7554ebf,6453c94e4704cf9f366b2ad7,2023-05-04_17h04.06.951,ga_syllabified_check,2022.2.5,Win32,9.992006395,,,,,,,,,,,,,,,,,,,,,,,,,,,,,,,,,,
