participant,study,session,date,expName,psychopyVersion,OS,frameRate,mouse_practice.x,mouse_practice.y,mouse_practice.leftButton,mouse_practice.midButton,mouse_practice.rightButton,mouse_practice.time,mouse_practice.clicked_name,textbox_followup_practice.text,trials_practice.thisRepN,trials_practice.thisTrialN,trials_practice.thisN,trials_practice.thisIndex,trials_practice.ran,file_path,id,item,status,response,op1,op2,op3,mouse.x,mouse.y,mouse.leftButton,mouse.midButton,mouse.rightButton,mouse.time,mouse.clicked_name,textbox_followup.text,trials.thisRepN,trials.thisTrialN,trials.thisN,trials.thisIndex,trials.ran
5ce7bd64a6f1d500164b6da6,63f3cfca20052e4ae7554ebf,6453cb8a04a75604074135f6,2023-05-04_17h15.00.324,ga_syllabified_check,2022.2.5,Win32,60.0240096,,,,,,,,,,,,,,,,,,,,,,,,,,,,,,,,,,
5ce7bd64a6f1d500164b6da6,63f3cfca20052e4ae7554ebf,6453cb8a04a75604074135f6,2023-05-04_17h15.00.324,ga_syllabified_check,2022.2.5,Win32,60.0240096,-0.362037037,-0.085185185,1,0,0,4.533,text_option_1_practice,,0,0,0,0,1,./stim/p03_syllable_1_liamo_hit.wav,p03,liamo,hit,lia-mo,lia-mo,li-a-mo, ,,,,,,,,,,,,,
5ce7bd64a6f1d500164b6da6,63f3cfca20052e4ae7554ebf,6453cb8a04a75604074135f6,2023-05-04_17h15.00.324,ga_syllabified_check,2022.2.5,Win32,60.0240096,-0.386111111,-0.110185185,1,0,0,1.933,text_option_1_practice,,0,1,1,1,1,./stim/p05_syllable_1_matio_hit.wav,p05,matio,hit,ma-tio,ma-tio,ma-ti-o, ,,,,,,,,,,,,,
5ce7bd64a6f1d500164b6da6,63f3cfca20052e4ae7554ebf,6453cb8a04a75604074135f6,2023-05-04_17h15.00.324,ga_syllabified_check,2022.2.5,Win32,60.0240096,-0.361111111,-0.111111111,1,0,0,3.217,text_option_1_practice,,0,2,2,2,1,./stim/p08_syllable_1_liamo_hit.wav,p08,liamo,hit,ja-mo,lia-mo,li-a-mo, ,,,,,,,,,,,,,
5ce7bd64a6f1d500164b6da6,63f3cfca20052e4ae7554ebf,6453cb8a04a75604074135f6,2023-05-04_17h15.00.324,ga_syllabified_check,2022.2.5,Win32,60.0240096,,,,,,,,,,,,,,,,,,,,,,,,,,,,,,,,,,
5ce7bd64a6f1d500164b6da6,63f3cfca20052e4ae7554ebf,6453cb8a04a75604074135f6,2023-05-04_17h15.00.324,ga_syllabified_check,2022.2.5,Win32,60.0240096,,,,,,,,,,,,,,./stim/p08_syllable_1_nhiape_hit.wav,p08,ñiape,hit,ni-a-pe,ñia-pe,ñi-a-pe, ,0.397222222,-0.112962963,1,0,0,3.517,text_option_2,,0,0,0,193,1
5ce7bd64a6f1d500164b6da6,63f3cfca20052e4ae7554ebf,6453cb8a04a75604074135f6,2023-05-04_17h15.00.324,ga_syllabified_check,2022.2.5,Win32,60.0240096,,,,,,,,,,,,,,./stim/p08_syllable_1_lliape_hit.wav,p08,lliape,hit,li-a-pe,llia-pe,lli-a-pe, ,0.426851852,-0.112037037,1,0,0,1.866,text_option_2,,0,1,1,190,1
5ce7bd64a6f1d500164b6da6,63f3cfca20052e4ae7554ebf,6453cb8a04a75604074135f6,2023-05-04_17h15.00.324,ga_syllabified_check,2022.2.5,Win32,60.0240096,,,,,,,,,,,,,,./stim/p04_syllable_1_falufaisto_hit.wav,p04,falufaisto,hit,fa-lu-fais-to,fa-lu-fais-to,fa-lu-fa-is-to, ,-0.37037037,-0.118518519,1,0,0,2.868,text_option_1,,0,2,2,37,1
5ce7bd64a6f1d500164b6da6,63f3cfca20052e4ae7554ebf,6453cb8a04a75604074135f6,2023-05-04_17h15.00.324,ga_syllabified_check,2022.2.5,Win32,60.0240096,,,,,,,,,,,,,,./stim/p03_syllable_1_lakadiaisto_hit.wav,p03,lakadiaisto,hit,la-ka-diais-to,la-ka-diais-to,la-ka-di-ais-to,la-ka-dia-is-to,-0.368518519,-0.093518519,1,0,0,3.517,text_option_1,,0,3,3,8,1
5ce7bd64a6f1d500164b6da6,63f3cfca20052e4ae7554ebf,6453cb8a04a75604074135f6,2023-05-04_17h15.00.324,ga_syllabified_check,2022.2.5,Win32,60.0240096,,,,,,,,,,,,,,./stim/p06_syllable_1_tuliafo_hit.wav,p06,tuliafo,hit,tu-li-a-fo,tu-lia-fo,tu-li-a-fo, ,0.431481481,-0.110185185,1,0,0,2.467,text_option_2,,0,4,4,135,1
5ce7bd64a6f1d500164b6da6,63f3cfca20052e4ae7554ebf,6453cb8a04a75604074135f6,2023-05-04_17h15.00.324,ga_syllabified_check,2022.2.5,Win32,60.0240096,,,,,,,,,,,,,,./stim/p04_syllable_1_palumaisto_hit.wav,p04,palumaisto,hit,pa-lu-mais-to,pa-lu-mais-to,pa-lu-ma-is-to, ,-0.410185185,-0.112962963,1,0,0,1.55,text_option_1,,0,5,5,62,1
5ce7bd64a6f1d500164b6da6,63f3cfca20052e4ae7554ebf,6453cb8a04a75604074135f6,2023-05-04_17h15.00.324,ga_syllabified_check,2022.2.5,Win32,60.0240096,,,,,,,,,,,,,,./stim/p05_syllable_1_lakabuaisto_hit.wav,p05,lakabuaisto,hit,la-ka-buais-to,la-ka-buais-to,la-ka-bu-ais-to,la-ka-bua-is-to,-0.394444444,-0.112962963,1,0,0,3.3,text_option_1,,0,6,6,75,1
5ce7bd64a6f1d500164b6da6,63f3cfca20052e4ae7554ebf,6453cb8a04a75604074135f6,2023-05-04_17h15.00.324,ga_syllabified_check,2022.2.5,Win32,60.0240096,,,,,,,,,,,,,,./stim/p08_syllable_1_falufaisto_hit.wav,p08,falufaisto,hit,fa-lu-fais-to,fa-lu-fais-to,fa-lu-fa-is-to, ,-0.372222222,-0.116666667,1,0,0,2.034,text_option_1,,0,7,7,173,1
5ce7bd64a6f1d500164b6da6,63f3cfca20052e4ae7554ebf,6453cb8a04a75604074135f6,2023-05-04_17h15.00.324,ga_syllabified_check,2022.2.5,Win32,60.0240096,,,,,,,,,,,,,,./stim/p03_syllable_1_pachialo_hit.wav,p03,pachialo,hit,pa-chia-lo,pa-chia-lo,pa-chi-a-lo, ,-0.361111111,-0.117592593,1,0,0,1.483,text_option_1,,0,8,8,24,1
5ce7bd64a6f1d500164b6da6,63f3cfca20052e4ae7554ebf,6453cb8a04a75604074135f6,2023-05-04_17h15.00.324,ga_syllabified_check,2022.2.5,Win32,60.0240096,,,,,,,,,,,,,,./stim/p03_syllable_1_nhiape_hit.wav,p03,ñiape,hit,nhia-pe,ñia-pe,ñi-a-pe, ,-0.378703704,-0.110185185,1,0,0,0.617,text_option_1,,0,9,9,23,1
5ce7bd64a6f1d500164b6da6,63f3cfca20052e4ae7554ebf,6453cb8a04a75604074135f6,2023-05-04_17h15.00.324,ga_syllabified_check,2022.2.5,Win32,60.0240096,,,,,,,,,,,,,,./stim/p04_syllable_1_palutrauco_hit.wav,p04,palutrauco,hit,pa-lu-trau-co,pa-lu-trau-co,pa-lu-tra-u-co, ,-0.371296296,-0.107407407,1,0,0,2.734,text_option_1,,0,10,10,63,1
5ce7bd64a6f1d500164b6da6,63f3cfca20052e4ae7554ebf,6453cb8a04a75604074135f6,2023-05-04_17h15.00.324,ga_syllabified_check,2022.2.5,Win32,60.0240096,,,,,,,,,,,,,,./stim/p04_syllable_1_lakapiaisto_hit.wav,p04,lakapiaisto,hit,la-ka-piais-to,la-ka-piais-to,la-ka-pi-ais-to,la-ka-pia-is-to,-0.022222222,-0.308333333,1,0,0,7.568,text_option_other,lakapriaisto,0,11,11,50,1
5ce7bd64a6f1d500164b6da6,63f3cfca20052e4ae7554ebf,6453cb8a04a75604074135f6,2023-05-04_17h15.00.324,ga_syllabified_check,2022.2.5,Win32,60.0240096,,,,,,,,,,,,,,./stim/p08_syllable_1_mebochiana_hit.wav,p08,mebochiana,hit,me-bo-chi-a-na,me-bo-chia-na,me-bo-chi-a-na, ,0.422222222,-0.112037037,1,0,0,3.067,text_option_2,,0,12,12,192,1
5ce7bd64a6f1d500164b6da6,63f3cfca20052e4ae7554ebf,6453cb8a04a75604074135f6,2023-05-04_17h15.00.324,ga_syllabified_check,2022.2.5,Win32,60.0240096,,,,,,,,,,,,,,./stim/p04_syllable_1_faluduako_hit.wav,p04,faluduako,hit,fa-lu-dua-ko,fa-lu-dua-ko,fa-lu-du-a-ko, ,-0.388888889,-0.092592593,1,0,0,1.7,text_option_1,,0,13,13,36,1
5ce7bd64a6f1d500164b6da6,63f3cfca20052e4ae7554ebf,6453cb8a04a75604074135f6,2023-05-04_17h15.00.324,ga_syllabified_check,2022.2.5,Win32,60.0240096,,,,,,,,,,,,,,./stim/p06_syllable_1_costonhialo_hit.wav,p06,costoñialo,hit,cos-to-nhia-lo,cos-to-ñia-lo,cos-to-ñi-a-lo, ,-0.360185185,-0.110185185,1,0,0,2.583,text_option_1,,0,14,14,103,1
5ce7bd64a6f1d500164b6da6,63f3cfca20052e4ae7554ebf,6453cb8a04a75604074135f6,2023-05-04_17h15.00.324,ga_syllabified_check,2022.2.5,Win32,60.0240096,,,,,,,,,,,,,,./stim/p03_syllable_1_lakafiaisto_hit.wav,p03,lakafiaisto,hit,la-ka-fiais-to,la-ka-fiais-to,la-ka-fi-ais-to,la-ka-fia-is-to,-0.353703704,-0.114814815,1,0,0,1.734,text_option_1,,0,15,15,10,1
5ce7bd64a6f1d500164b6da6,63f3cfca20052e4ae7554ebf,6453cb8a04a75604074135f6,2023-05-04_17h15.00.324,ga_syllabified_check,2022.2.5,Win32,60.0240096,,,,,,,,,,,,,,./stim/p06_syllable_1_lakakiaisto_hit.wav,p06,lakakiaisto,hit,la-ka-kia-is-to,la-ka-kiais-to,la-ka-ki-ais-to,la-ka-kia-is-to,0.013888889,-0.12037037,1,0,0,5.866,text_option_3,,0,16,16,116,1
5ce7bd64a6f1d500164b6da6,63f3cfca20052e4ae7554ebf,6453cb8a04a75604074135f6,2023-05-04_17h15.00.324,ga_syllabified_check,2022.2.5,Win32,60.0240096,,,,,,,,,,,,,,./stim/p03_syllable_1_manhiala_hit.wav,p03,mañiala,hit,ma-nhia-la,ma-ñia-la,ma-ñi-a-la, ,-0.374074074,-0.111111111,1,0,0,1.683,text_option_1,,0,17,17,21,1
5ce7bd64a6f1d500164b6da6,63f3cfca20052e4ae7554ebf,6453cb8a04a75604074135f6,2023-05-04_17h15.00.324,ga_syllabified_check,2022.2.5,Win32,60.0240096,,,,,,,,,,,,,,./stim/p07_syllable_1_palutrauco_hit.wav,p07,palutrauco,hit,pa-lu-trau-co,pa-lu-trau-co,pa-lu-tra-u-co, ,-0.336111111,-0.116666667,1,0,0,1.433,text_option_1,,0,18,18,165,1
5ce7bd64a6f1d500164b6da6,63f3cfca20052e4ae7554ebf,6453cb8a04a75604074135f6,2023-05-04_17h15.00.324,ga_syllabified_check,2022.2.5,Win32,60.0240096,,,,,,,,,,,,,,./stim/p03_syllable_1_lakatuaisto_hit.wav,p03,lakatuaisto,hit,la-ka-tuais-to,la-ka-tuais-to,la-ka-tu-ais-to,la-ka-tua-is-to,-0.35,-0.117592593,1,0,0,1.401,text_option_1,,0,19,19,19,1
5ce7bd64a6f1d500164b6da6,63f3cfca20052e4ae7554ebf,6453cb8a04a75604074135f6,2023-05-04_17h15.00.324,ga_syllabified_check,2022.2.5,Win32,60.0240096,,,,,,,,,,,,,,./stim/p04_syllable_1_paluguato_hit.wav,p04,paluguato,hit,pa-lu-gua,pa-lu-gua-to,pa-lu-gu-a-to, ,0.030555556,-0.305555556,1,0,0,3.151,text_option_other,palugua,0,20,20,61,1
5ce7bd64a6f1d500164b6da6,63f3cfca20052e4ae7554ebf,6453cb8a04a75604074135f6,2023-05-04_17h15.00.324,ga_syllabified_check,2022.2.5,Win32,60.0240096,,,,,,,,,,,,,,./stim/p07_syllable_1_lakapiaisto_hit.wav,p07,lakapiaisto,hit,la-ka-pia-sto,la-ka-piais-to,la-ka-pi-ais-to,la-ka-pia-is-to,0.02037037,-0.309259259,1,0,0,10.734,text_option_other,la-ka-pias-to,0,21,21,152,1
5ce7bd64a6f1d500164b6da6,63f3cfca20052e4ae7554ebf,6453cb8a04a75604074135f6,2023-05-04_17h15.00.324,ga_syllabified_check,2022.2.5,Win32,60.0240096,,,,,,,,,,,,,,./stim/p07_syllable_1_lakafiaisto_hit.wav,p07,lakafiaisto,hit,la-ka-fiais-to,la-ka-fiais-to,la-ka-fi-ais-to,la-ka-fia-is-to,-0.37037037,-0.108333333,1,0,0,4.317,text_option_1,,0,22,22,146,1
5ce7bd64a6f1d500164b6da6,63f3cfca20052e4ae7554ebf,6453cb8a04a75604074135f6,2023-05-04_17h15.00.324,ga_syllabified_check,2022.2.5,Win32,60.0240096,,,,,,,,,,,,,,./stim/p05_syllable_1_lakakiaisto_hit.wav,p05,lakakiaisto,hit,la-ka-ki-ais-to,la-ka-kiais-to,la-ka-ki-ais-to,la-ka-kia-is-to,-0.366666667,-0.121296296,1,0,0,1.884,text_option_1,,0,23,23,82,1
5ce7bd64a6f1d500164b6da6,63f3cfca20052e4ae7554ebf,6453cb8a04a75604074135f6,2023-05-04_17h15.00.324,ga_syllabified_check,2022.2.5,Win32,60.0240096,,,,,,,,,,,,,,./stim/p03_syllable_1_flauro_hit.wav,p03,flauro,hit,flau-ro,flau-ro,fla-u-ro, ,-0.366666667,-0.121296296,1,0,0,0.567,text_option_1,,0,24,24,5,1
5ce7bd64a6f1d500164b6da6,63f3cfca20052e4ae7554ebf,6453cb8a04a75604074135f6,2023-05-04_17h15.00.324,ga_syllabified_check,2022.2.5,Win32,60.0240096,,,,,,,,,,,,,,./stim/p04_syllable_1_lakafiaisto_hit.wav,p04,lakafiaisto,hit,la-ka-fiais-to,la-ka-fiais-to,la-ka-fi-ais-to,la-ka-fia-is-to,-0.366666667,-0.121296296,1,0,0,1.517,text_option_1,,0,25,25,44,1
5ce7bd64a6f1d500164b6da6,63f3cfca20052e4ae7554ebf,6453cb8a04a75604074135f6,2023-05-04_17h15.00.324,ga_syllabified_check,2022.2.5,Win32,60.0240096,,,,,,,,,,,,,,./stim/p03_syllable_1_lakaguaisto_hit.wav,p03,lakaguaisto,hit,la-ka-guais-to,la-ka-guais-to,la-ka-gu-ais-to,la-ka-gua-is-to,-0.366666667,-0.121296296,1,0,0,1.25,text_option_1,,0,26,26,13,1
5ce7bd64a6f1d500164b6da6,63f3cfca20052e4ae7554ebf,6453cb8a04a75604074135f6,2023-05-04_17h15.00.324,ga_syllabified_check,2022.2.5,Win32,60.0240096,,,,,,,,,,,,,,./stim/p06_syllable_1_paluguato_hit.wav,p06,paluguato,hit,pa-lu-gua-to,pa-lu-gua-to,pa-lu-gu-a-to, ,-0.366666667,-0.121296296,1,0,0,2.533,text_option_1,,0,27,27,129,1
5ce7bd64a6f1d500164b6da6,63f3cfca20052e4ae7554ebf,6453cb8a04a75604074135f6,2023-05-04_17h15.00.324,ga_syllabified_check,2022.2.5,Win32,60.0240096,,,,,,,,,,,,,,./stim/p08_syllable_1_lakafuaisto_hit.wav,p08,lakafuaisto,hit,la-ka-fju-ais-to,la-ka-fuais-to,la-ka-fu-ais-to,la-ka-fua-is-to,-0.366666667,-0.121296296,1,0,0,2.584,text_option_1,,0,28,28,181,1
5ce7bd64a6f1d500164b6da6,63f3cfca20052e4ae7554ebf,6453cb8a04a75604074135f6,2023-05-04_17h15.00.324,ga_syllabified_check,2022.2.5,Win32,60.0240096,,,,,,,,,,,,,,./stim/p06_syllable_1_lakapuaisto_hit.wav,p06,lakapuaisto,hit,la-ka-pu-a-is,la-ka-puais-to,la-ka-pu-ais-to,la-ka-pua-is-to,0.048148148,-0.288888889,1,0,0,6.251,text_option_other,la-ka-pu-a-is-to,0,29,29,119,1
5ce7bd64a6f1d500164b6da6,63f3cfca20052e4ae7554ebf,6453cb8a04a75604074135f6,2023-05-04_17h15.00.324,ga_syllabified_check,2022.2.5,Win32,60.0240096,,,,,,,,,,,,,,./stim/p03_syllable_1_lakapuaisto_hit.wav,p03,lakapuaisto,hit,la-ka-puais-to,la-ka-puais-to,la-ka-pu-ais-to,la-ka-pua-is-to,-0.35,-0.099074074,1,0,0,1.483,text_option_1,,0,30,30,17,1
5ce7bd64a6f1d500164b6da6,63f3cfca20052e4ae7554ebf,6453cb8a04a75604074135f6,2023-05-04_17h15.00.324,ga_syllabified_check,2022.2.5,Win32,60.0240096,,,,,,,,,,,,,,./stim/p07_syllable_1_lliape_hit.wav,p07,lliape,hit,lliai-pe,llia-pe,lli-a-pe, ,-0.022222222,-0.29537037,1,0,0,3.001,text_option_other,lliai-pe,0,31,31,156,1
5ce7bd64a6f1d500164b6da6,63f3cfca20052e4ae7554ebf,6453cb8a04a75604074135f6,2023-05-04_17h15.00.324,ga_syllabified_check,2022.2.5,Win32,60.0240096,,,,,,,,,,,,,,./stim/p08_syllable_1_palumaisto_hit.wav,p08,palumaisto,hit,pa-lu-mais-to,pa-lu-mais-to,pa-lu-ma-is-to, ,-0.356481481,-0.109259259,1,0,0,2.716,text_option_1,,0,32,32,198,1
5ce7bd64a6f1d500164b6da6,63f3cfca20052e4ae7554ebf,6453cb8a04a75604074135f6,2023-05-04_17h15.00.324,ga_syllabified_check,2022.2.5,Win32,60.0240096,,,,,,,,,,,,,,./stim/p03_syllable_1_mebochiana_hit.wav,p03,mebochiana,hit,me-bo-chia-na,me-bo-chia-na,me-bo-chi-a-na, ,-0.343518519,-0.115740741,1,0,0,1.834,text_option_1,,0,33,33,22,1
5ce7bd64a6f1d500164b6da6,63f3cfca20052e4ae7554ebf,6453cb8a04a75604074135f6,2023-05-04_17h15.00.324,ga_syllabified_check,2022.2.5,Win32,60.0240096,,,,,,,,,,,,,,./stim/p04_syllable_1_costonhialo_hit.wav,p04,costoñialo,hit,cos-to-nhia-lo,cos-to-ñia-lo,cos-to-ñi-a-lo, ,-0.344444444,-0.106481481,1,0,0,1.667,text_option_1,,0,34,34,35,1
5ce7bd64a6f1d500164b6da6,63f3cfca20052e4ae7554ebf,6453cb8a04a75604074135f6,2023-05-04_17h15.00.324,ga_syllabified_check,2022.2.5,Win32,60.0240096,,,,,,,,,,,,,,./stim/p06_syllable_1_rausto_hit.wav,p06,rausto,hit,ra-us-to,raus-to,ra-us-to, ,0.406481481,-0.10462963,1,0,0,1.8,text_option_2,,0,35,35,133,1
5ce7bd64a6f1d500164b6da6,63f3cfca20052e4ae7554ebf,6453cb8a04a75604074135f6,2023-05-04_17h15.00.324,ga_syllabified_check,2022.2.5,Win32,60.0240096,,,,,,,,,,,,,,./stim/p04_syllable_1_payielo_hit.wav,p04,payielo,hit,pa-yie-lo,pa-yie-lo,pa-yi-e-lo, ,-0.396296296,-0.091666667,1,0,0,2.617,text_option_1,,0,36,36,64,1
5ce7bd64a6f1d500164b6da6,63f3cfca20052e4ae7554ebf,6453cb8a04a75604074135f6,2023-05-04_17h15.00.324,ga_syllabified_check,2022.2.5,Win32,60.0240096,,,,,,,,,,,,,,./stim/p08_syllable_1_manhiala_hit.wav,p08,mañiala,hit,ma-nhia-la,ma-ñia-la,ma-ñi-a-la, ,-0.435185185,-0.086111111,1,0,0,2.199,text_option_1,,0,37,37,191,1
5ce7bd64a6f1d500164b6da6,63f3cfca20052e4ae7554ebf,6453cb8a04a75604074135f6,2023-05-04_17h15.00.324,ga_syllabified_check,2022.2.5,Win32,60.0240096,,,,,,,,,,,,,,./stim/p04_syllable_1_mebochiana_hit.wav,p04,mebochiana,hit,me-bo-chia-na,me-bo-chia-na,me-bo-chi-a-na, ,-0.384259259,-0.10462963,1,0,0,1.851,text_option_1,,0,38,38,56,1
5ce7bd64a6f1d500164b6da6,63f3cfca20052e4ae7554ebf,6453cb8a04a75604074135f6,2023-05-04_17h15.00.324,ga_syllabified_check,2022.2.5,Win32,60.0240096,,,,,,,,,,,,,,./stim/p08_syllable_1_lakaduaisto_hit.wav,p08,lakaduaisto,hit,la-ka-du-ais-to,la-ka-duais-to,la-ka-du-ais-to,la-ka-dua-is-to,-0.384259259,-0.10462963,1,0,0,4.7,text_option_1,,0,39,39,179,1
5ce7bd64a6f1d500164b6da6,63f3cfca20052e4ae7554ebf,6453cb8a04a75604074135f6,2023-05-04_17h15.00.324,ga_syllabified_check,2022.2.5,Win32,60.0240096,,,,,,,,,,,,,,./stim/p07_syllable_1_lakaguaisto_hit.wav,p07,lakaguaisto,hit,la-ka-guais-to,la-ka-guais-to,la-ka-gu-ais-to,la-ka-gua-is-to,-0.375925926,-0.112962963,1,0,0,1.983,text_option_1,,0,40,40,149,1
5ce7bd64a6f1d500164b6da6,63f3cfca20052e4ae7554ebf,6453cb8a04a75604074135f6,2023-05-04_17h15.00.324,ga_syllabified_check,2022.2.5,Win32,60.0240096,,,,,,,,,,,,,,./stim/p05_syllable_1_lakaguaisto_hit.wav,p05,lakaguaisto,hit,la-ka-gais,la-ka-guais-to,la-ka-gu-ais-to,la-ka-gua-is-to,0.012962963,-0.310185185,1,0,0,5.234,text_option_other,la-ka-gais-to,0,41,41,81,1
5ce7bd64a6f1d500164b6da6,63f3cfca20052e4ae7554ebf,6453cb8a04a75604074135f6,2023-05-04_17h15.00.324,ga_syllabified_check,2022.2.5,Win32,60.0240096,,,,,,,,,,,,,,./stim/p06_syllable_1_lliape_hit.wav,p06,lliape,hit,lli-lla-pe,llia-pe,lli-a-pe, ,0.434259259,-0.093518519,1,0,0,1.25,text_option_2,,0,42,42,122,1
5ce7bd64a6f1d500164b6da6,63f3cfca20052e4ae7554ebf,6453cb8a04a75604074135f6,2023-05-04_17h15.00.324,ga_syllabified_check,2022.2.5,Win32,60.0240096,,,,,,,,,,,,,,./stim/p03_syllable_1_lakatiaisto_hit.wav,p03,lakatiaisto,hit,la-ka-tiais-to,la-ka-tiais-to,la-ka-ti-ais-to,la-ka-tia-is-to,-0.365740741,-0.092592593,1,0,0,1.55,text_option_1,,0,43,43,18,1
5ce7bd64a6f1d500164b6da6,63f3cfca20052e4ae7554ebf,6453cb8a04a75604074135f6,2023-05-04_17h15.00.324,ga_syllabified_check,2022.2.5,Win32,60.0240096,,,,,,,,,,,,,,./stim/p07_syllable_1_rausto_hit.wav,p07,rausto,hit,raus-to,raus-to,ra-us-to, ,-0.362037037,-0.107407407,1,0,0,1.117,text_option_1,,0,44,44,167,1
5ce7bd64a6f1d500164b6da6,63f3cfca20052e4ae7554ebf,6453cb8a04a75604074135f6,2023-05-04_17h15.00.324,ga_syllabified_check,2022.2.5,Win32,60.0240096,,,,,,,,,,,,,,./stim/p04_syllable_1_nhiape_hit.wav,p04,ñiape,hit,nhia-pe,ñia-pe,ñi-a-pe, ,-0.362037037,-0.107407407,1,0,0,0.483,text_option_1,,0,45,45,57,1
5ce7bd64a6f1d500164b6da6,63f3cfca20052e4ae7554ebf,6453cb8a04a75604074135f6,2023-05-04_17h15.00.324,ga_syllabified_check,2022.2.5,Win32,60.0240096,,,,,,,,,,,,,,./stim/p06_syllable_1_lakabuaisto_hit.wav,p06,lakabuaisto,hit,la-ka-bu-a-is,la-ka-buais-to,la-ka-bu-ais-to,la-ka-bua-is-to,0.059259259,-0.29537037,1,0,0,7.718,text_option_other,la-ka-bu-a-is-to,0,46,46,109,1
5ce7bd64a6f1d500164b6da6,63f3cfca20052e4ae7554ebf,6453cb8a04a75604074135f6,2023-05-04_17h15.00.324,ga_syllabified_check,2022.2.5,Win32,60.0240096,,,,,,,,,,,,,,./stim/p06_syllable_1_falutraigo_hit.wav,p06,falutraigo,hit,fa-lu-tra-i-go,fa-lu-trai-go,fa-lu-tra-i-go, ,0.418518519,-0.097222222,1,0,0,5.916,text_option_2,,0,47,47,106,1
5ce7bd64a6f1d500164b6da6,63f3cfca20052e4ae7554ebf,6453cb8a04a75604074135f6,2023-05-04_17h15.00.324,ga_syllabified_check,2022.2.5,Win32,60.0240096,,,,,,,,,,,,,,./stim/p05_syllable_1_paluguato_hit.wav,p05,paluguato,hit,pa-lu-gau-to,pa-lu-gua-to,pa-lu-gu-a-to, ,-0.431481481,-0.093518519,1,0,0,1.45,text_option_1,,0,48,48,95,1
5ce7bd64a6f1d500164b6da6,63f3cfca20052e4ae7554ebf,6453cb8a04a75604074135f6,2023-05-04_17h15.00.324,ga_syllabified_check,2022.2.5,Win32,60.0240096,,,,,,,,,,,,,,./stim/p05_syllable_1_lakapiaisto_hit.wav,p05,lakapiaisto,hit,la-ka-pais-to,la-ka-piais-to,la-ka-pi-ais-to,la-ka-pia-is-to,-0.077777778,-0.293518519,1,0,0,4.776,text_option_other,la-ka-pais-to,0,49,49,84,1
5ce7bd64a6f1d500164b6da6,63f3cfca20052e4ae7554ebf,6453cb8a04a75604074135f6,2023-05-04_17h15.00.324,ga_syllabified_check,2022.2.5,Win32,60.0240096,,,,,,,,,,,,,,./stim/p05_syllable_1_lakafiaisto_hit.wav,p05,lakafiaisto,hit,la-ka-fi-ais-to,la-ka-fiais-to,la-ka-fi-ais-to,la-ka-fia-is-to,-0.373148148,-0.116666667,1,0,0,2.916,text_option_1,,0,50,50,78,1
5ce7bd64a6f1d500164b6da6,63f3cfca20052e4ae7554ebf,6453cb8a04a75604074135f6,2023-05-04_17h15.00.324,ga_syllabified_check,2022.2.5,Win32,60.0240096,,,,,,,,,,,,,,./stim/p03_syllable_1_costonhialo_hit.wav,p03,costoñialo,hit,cos-to-nhia-lo,cos-to-ñia-lo,cos-to-ñi-a-lo, ,-0.373148148,-0.116666667,1,0,0,1.234,text_option_1,,0,51,51,1,1
5ce7bd64a6f1d500164b6da6,63f3cfca20052e4ae7554ebf,6453cb8a04a75604074135f6,2023-05-04_17h15.00.324,ga_syllabified_check,2022.2.5,Win32,60.0240096,,,,,,,,,,,,,,./stim/p04_syllable_1_lakabiaisto_hit.wav,p04,lakabiaisto,hit,la-ka-biais-to,la-ka-biais-to,la-ka-bi-ais-to,la-ka-bia-is-to,-0.373148148,-0.116666667,1,0,0,0.966,text_option_1,,0,52,52,40,1
5ce7bd64a6f1d500164b6da6,63f3cfca20052e4ae7554ebf,6453cb8a04a75604074135f6,2023-05-04_17h15.00.324,ga_syllabified_check,2022.2.5,Win32,60.0240096,,,,,,,,,,,,,,./stim/p03_syllable_1_faluduako_hit.wav,p03,faluduako,hit,fa-lu-dua-ko,fa-lu-dua-ko,fa-lu-du-a-ko, ,-0.373148148,-0.116666667,1,0,0,1.201,text_option_1,,0,53,53,2,1
5ce7bd64a6f1d500164b6da6,63f3cfca20052e4ae7554ebf,6453cb8a04a75604074135f6,2023-05-04_17h15.00.324,ga_syllabified_check,2022.2.5,Win32,60.0240096,,,,,,,,,,,,,,./stim/p05_syllable_1_lakadiaisto_hit.wav,p05,lakadiaisto,hit,la-ka-di-ais-to,la-ka-diais-to,la-ka-di-ais-to,la-ka-dia-is-to,-0.373148148,-0.116666667,1,0,0,1.117,text_option_1,,0,54,54,76,1
5ce7bd64a6f1d500164b6da6,63f3cfca20052e4ae7554ebf,6453cb8a04a75604074135f6,2023-05-04_17h15.00.324,ga_syllabified_check,2022.2.5,Win32,60.0240096,,,,,,,,,,,,,,./stim/p08_syllable_1_lakakiaisto_hit.wav,p08,lakakiaisto,hit,la-ka-ki-jas-to,la-ka-kiais-to,la-ka-ki-ais-to,la-ka-kia-is-to,-0.011111111,-0.291666667,1,0,0,3.117,text_option_other,la-ka-kias-to,0,55,55,184,1
5ce7bd64a6f1d500164b6da6,63f3cfca20052e4ae7554ebf,6453cb8a04a75604074135f6,2023-05-04_17h15.00.324,ga_syllabified_check,2022.2.5,Win32,60.0240096,,,,,,,,,,,,,,./stim/p05_syllable_1_flauro_hit.wav,p05,flauro,hit,fa-lu-ro,flau-ro,fla-u-ro, ,-0.04537037,-0.287037037,1,0,0,1.4,text_option_other,fa-lu-ro,0,56,56,73,1
5ce7bd64a6f1d500164b6da6,63f3cfca20052e4ae7554ebf,6453cb8a04a75604074135f6,2023-05-04_17h15.00.324,ga_syllabified_check,2022.2.5,Win32,60.0240096,,,,,,,,,,,,,,./stim/p07_syllable_1_lakakiaisto_hit.wav,p07,lakakiaisto,hit,la-ka-kais-to,la-ka-kiais-to,la-ka-ki-ais-to,la-ka-kia-is-to,0.033333333,-0.308333333,1,0,0,4.517,text_option_other,la-ka-kais-to,0,57,57,150,1
5ce7bd64a6f1d500164b6da6,63f3cfca20052e4ae7554ebf,6453cb8a04a75604074135f6,2023-05-04_17h15.00.324,ga_syllabified_check,2022.2.5,Win32,60.0240096,,,,,,,,,,,,,,./stim/p05_syllable_1_lakaduaisto_hit.wav,p05,lakaduaisto,hit,la-ka-dais-to,la-ka-duais-to,la-ka-du-ais-to,la-ka-dua-is-to,-0.026851852,-0.300925926,1,0,0,1,text_option_other,la-ka-dais-to,0,58,58,77,1
5ce7bd64a6f1d500164b6da6,63f3cfca20052e4ae7554ebf,6453cb8a04a75604074135f6,2023-05-04_17h15.00.324,ga_syllabified_check,2022.2.5,Win32,60.0240096,,,,,,,,,,,,,,./stim/p07_syllable_1_lakadiaisto_hit.wav,p07,lakadiaisto,hit,la-ka-dia-is-to,la-ka-diais-to,la-ka-di-ais-to,la-ka-dia-is-to,-0.006481481,-0.103703704,1,0,0,2.3,text_option_3,,0,59,59,144,1
5ce7bd64a6f1d500164b6da6,63f3cfca20052e4ae7554ebf,6453cb8a04a75604074135f6,2023-05-04_17h15.00.324,ga_syllabified_check,2022.2.5,Win32,60.0240096,,,,,,,,,,,,,,./stim/p07_syllable_1_palufauro_hit.wav,p07,palufauro,hit,pa-lu-fau-ro,pa-lu-fau-ro,pa-lu-fa-u-ro, ,-0.40462963,-0.098148148,1,0,0,1.367,text_option_1,,0,60,60,161,1
5ce7bd64a6f1d500164b6da6,63f3cfca20052e4ae7554ebf,6453cb8a04a75604074135f6,2023-05-04_17h15.00.324,ga_syllabified_check,2022.2.5,Win32,60.0240096,,,,,,,,,,,,,,./stim/p08_syllable_1_palutrauco_hit.wav,p08,palutrauco,hit,pa-lu-trau-ko,pa-lu-trau-co,pa-lu-tra-u-co, ,-0.39537037,-0.110185185,1,0,0,2.168,text_option_1,,0,61,61,199,1
5ce7bd64a6f1d500164b6da6,63f3cfca20052e4ae7554ebf,6453cb8a04a75604074135f6,2023-05-04_17h15.00.324,ga_syllabified_check,2022.2.5,Win32,60.0240096,,,,,,,,,,,,,,./stim/p05_syllable_1_ruyiola_hit.wav,p05,ruyiola,hit,ru-yio-la,ru-yio-la,ru-yi-o-la, ,-0.378703704,-0.115740741,1,0,0,0.5,text_option_1,,0,62,62,100,1
5ce7bd64a6f1d500164b6da6,63f3cfca20052e4ae7554ebf,6453cb8a04a75604074135f6,2023-05-04_17h15.00.324,ga_syllabified_check,2022.2.5,Win32,60.0240096,,,,,,,,,,,,,,./stim/p03_syllable_1_chiaba_hit.wav,p03,chiaba,hit,chia-ba,chia-ba,chi-a-ba, ,-0.40462963,-0.1,1,0,0,0.883,text_option_1,,0,63,63,0,1
5ce7bd64a6f1d500164b6da6,63f3cfca20052e4ae7554ebf,6453cb8a04a75604074135f6,2023-05-04_17h15.00.324,ga_syllabified_check,2022.2.5,Win32,60.0240096,,,,,,,,,,,,,,./stim/p05_syllable_1_lakapuaisto_hit.wav,p05,lakapuaisto,hit,la-ka-pais-to,la-ka-puais-to,la-ka-pu-ais-to,la-ka-pua-is-to,0.012962963,-0.287962963,1,0,0,1.751,text_option_other,la-ka-pais-to,0,64,64,85,1
5ce7bd64a6f1d500164b6da6,63f3cfca20052e4ae7554ebf,6453cb8a04a75604074135f6,2023-05-04_17h15.00.324,ga_syllabified_check,2022.2.5,Win32,60.0240096,,,,,,,,,,,,,,./stim/p08_syllable_1_lakaguaisto_hit.wav,p08,lakaguaisto,hit,la-ka-gu-ais-to,la-ka-guais-to,la-ka-gu-ais-to,la-ka-gua-is-to,-0.353703704,-0.112962963,1,0,0,4.817,text_option_1,,0,65,65,183,1
5ce7bd64a6f1d500164b6da6,63f3cfca20052e4ae7554ebf,6453cb8a04a75604074135f6,2023-05-04_17h15.00.324,ga_syllabified_check,2022.2.5,Win32,60.0240096,,,,,,,,,,,,,,./stim/p03_syllable_1_palufauto_hit.wav,p03,palufauto,hit,pa-lu-fau,pa-lu-fau-to,pa-lu-fa-u-to, ,-0.346296296,-0.112037037,1,0,0,1.067,text_option_1,,0,66,66,26,1
5ce7bd64a6f1d500164b6da6,63f3cfca20052e4ae7554ebf,6453cb8a04a75604074135f6,2023-05-04_17h15.00.324,ga_syllabified_check,2022.2.5,Win32,60.0240096,,,,,,,,,,,,,,./stim/p03_syllable_1_tuliafo_hit.wav,p03,tuliafo,hit,tu-lia-fo,tu-lia-fo,tu-li-a-fo, ,-0.346296296,-0.112037037,1,0,0,1.767,text_option_1,,0,67,67,33,1
5ce7bd64a6f1d500164b6da6,63f3cfca20052e4ae7554ebf,6453cb8a04a75604074135f6,2023-05-04_17h15.00.324,ga_syllabified_check,2022.2.5,Win32,60.0240096,,,,,,,,,,,,,,./stim/p08_syllable_1_lakabiaisto_hit.wav,p08,lakabiaisto,hit,la-ka-bi-as-to,la-ka-biais-to,la-ka-bi-ais-to,la-ka-bia-is-to,0.043518519,-0.303703704,1,0,0,6.7,text_option_other,la-ka-bi-as-to,0,68,68,176,1
5ce7bd64a6f1d500164b6da6,63f3cfca20052e4ae7554ebf,6453cb8a04a75604074135f6,2023-05-04_17h15.00.324,ga_syllabified_check,2022.2.5,Win32,60.0240096,,,,,,,,,,,,,,./stim/p08_syllable_1_palufauto_hit.wav,p08,palufauto,hit,pa-lu-fau-to,pa-lu-fau-to,pa-lu-fa-u-to, ,-0.388888889,-0.115740741,1,0,0,2.401,text_option_1,,0,69,69,196,1
5ce7bd64a6f1d500164b6da6,63f3cfca20052e4ae7554ebf,6453cb8a04a75604074135f6,2023-05-04_17h15.00.324,ga_syllabified_check,2022.2.5,Win32,60.0240096,,,,,,,,,,,,,,./stim/p05_syllable_1_falutraigo_hit.wav,p05,falutraigo,hit,fa-lu-trai-go,fa-lu-trai-go,fa-lu-tra-i-go, ,-0.333333333,-0.113888889,1,0,0,0.935,text_option_1,,0,70,70,72,1
5ce7bd64a6f1d500164b6da6,63f3cfca20052e4ae7554ebf,6453cb8a04a75604074135f6,2023-05-04_17h15.00.324,ga_syllabified_check,2022.2.5,Win32,60.0240096,,,,,,,,,,,,,,./stim/p07_syllable_1_paluguato_hit.wav,p07,paluguato,hit,pa-lu-gua-to,pa-lu-gua-to,pa-lu-gu-a-to, ,-0.333333333,-0.113888889,1,0,0,1.883,text_option_1,,0,71,71,163,1
5ce7bd64a6f1d500164b6da6,63f3cfca20052e4ae7554ebf,6453cb8a04a75604074135f6,2023-05-04_17h15.00.324,ga_syllabified_check,2022.2.5,Win32,60.0240096,,,,,,,,,,,,,,./stim/p06_syllable_1_palumaisto_hit.wav,p06,palumaisto,hit,pa-lu-ma-is-to,pa-lu-mais-to,pa-lu-ma-is-to, ,-0.336111111,-0.091666667,1,0,0,4.183,text_option_1,,0,72,72,130,1
5ce7bd64a6f1d500164b6da6,63f3cfca20052e4ae7554ebf,6453cb8a04a75604074135f6,2023-05-04_17h15.00.324,ga_syllabified_check,2022.2.5,Win32,60.0240096,,,,,,,,,,,,,,./stim/p06_syllable_1_lakakuaisto_hit.wav,p06,lakakuaisto,hit,la-ka-ku-a-is,la-ka-kuais-to,la-ka-ku-ais-to,la-ka-kua-is-to,-0.013888889,-0.312037037,1,0,0,5.884,text_option_other,la-ka-ku-a-is-to,0,73,73,117,1
5ce7bd64a6f1d500164b6da6,63f3cfca20052e4ae7554ebf,6453cb8a04a75604074135f6,2023-05-04_17h15.00.324,ga_syllabified_check,2022.2.5,Win32,60.0240096,,,,,,,,,,,,,,./stim/p06_syllable_1_lakaguaisto_hit.wav,p06,lakaguaisto,hit,la-ka-gu-a-is,la-ka-guais-to,la-ka-gu-ais-to,la-ka-gua-is-to,0.059259259,-0.292592593,1,0,0,6.884,text_option_other,la-ka-gu-a-is-to,0,74,74,115,1
5ce7bd64a6f1d500164b6da6,63f3cfca20052e4ae7554ebf,6453cb8a04a75604074135f6,2023-05-04_17h15.00.324,ga_syllabified_check,2022.2.5,Win32,60.0240096,,,,,,,,,,,,,,./stim/p08_syllable_1_lakadiaisto_hit.wav,p08,lakadiaisto,hit,la-ka-di-jas-to,la-ka-diais-to,la-ka-di-ais-to,la-ka-dia-is-to,0.023148148,-0.297222222,1,0,0,3.833,text_option_other,la-da-dias-to,0,75,75,178,1
5ce7bd64a6f1d500164b6da6,63f3cfca20052e4ae7554ebf,6453cb8a04a75604074135f6,2023-05-04_17h15.00.324,ga_syllabified_check,2022.2.5,Win32,60.0240096,,,,,,,,,,,,,,./stim/p06_syllable_1_flauro_hit.wav,p06,flauro,hit,fla-u-ro,flau-ro,fla-u-ro, ,0.426851852,-0.112962963,1,0,0,1.133,text_option_2,,0,76,76,107,1
5ce7bd64a6f1d500164b6da6,63f3cfca20052e4ae7554ebf,6453cb8a04a75604074135f6,2023-05-04_17h15.00.324,ga_syllabified_check,2022.2.5,Win32,60.0240096,,,,,,,,,,,,,,./stim/p07_syllable_1_pachialo_hit.wav,p07,pachialo,hit,pa-cha-lo,pa-chia-lo,pa-chi-a-lo, ,0.026851852,-0.285185185,1,0,0,1.95,text_option_other,pa-cha-lo,0,77,77,160,1
5ce7bd64a6f1d500164b6da6,63f3cfca20052e4ae7554ebf,6453cb8a04a75604074135f6,2023-05-04_17h15.00.324,ga_syllabified_check,2022.2.5,Win32,60.0240096,,,,,,,,,,,,,,./stim/p06_syllable_1_lakabiaisto_hit.wav,p06,lakabiaisto,hit,la-ka-bia-is-to,la-ka-biais-to,la-ka-bi-ais-to,la-ka-bia-is-to,-0.015740741,-0.1,1,0,0,4.117,text_option_3,,0,78,78,108,1
5ce7bd64a6f1d500164b6da6,63f3cfca20052e4ae7554ebf,6453cb8a04a75604074135f6,2023-05-04_17h15.00.324,ga_syllabified_check,2022.2.5,Win32,60.0240096,,,,,,,,,,,,,,./stim/p04_syllable_1_lakakuaisto_hit.wav,p04,lakakuaisto,hit,la-ka-kuais-to,la-ka-kuais-to,la-ka-ku-ais-to,la-ka-kua-is-to,-0.34537037,-0.097222222,1,0,0,1.066,text_option_1,,0,79,79,49,1
5ce7bd64a6f1d500164b6da6,63f3cfca20052e4ae7554ebf,6453cb8a04a75604074135f6,2023-05-04_17h15.00.324,ga_syllabified_check,2022.2.5,Win32,60.0240096,,,,,,,,,,,,,,./stim/p06_syllable_1_lakafiaisto_hit.wav,p06,lakafiaisto,hit,la-ka-fia-is-to,la-ka-fiais-to,la-ka-fi-ais-to,la-ka-fia-is-to,-0.008333333,-0.094444444,1,0,0,3.118,text_option_3,,0,80,80,112,1
5ce7bd64a6f1d500164b6da6,63f3cfca20052e4ae7554ebf,6453cb8a04a75604074135f6,2023-05-04_17h15.00.324,ga_syllabified_check,2022.2.5,Win32,60.0240096,,,,,,,,,,,,,,./stim/p06_syllable_1_manhiala_hit.wav,p06,mañiala,hit,ma-nhi-a-la,ma-ñia-la,ma-ñi-a-la, ,0.35462963,-0.111111111,1,0,0,1.95,text_option_2,,0,81,81,123,1
5ce7bd64a6f1d500164b6da6,63f3cfca20052e4ae7554ebf,6453cb8a04a75604074135f6,2023-05-04_17h15.00.324,ga_syllabified_check,2022.2.5,Win32,60.0240096,,,,,,,,,,,,,,./stim/p07_syllable_1_manhiala_hit.wav,p07,mañiala,hit,ma-nhia-la,ma-ñia-la,ma-ñi-a-la, ,-0.412037037,-0.100925926,1,0,0,1.733,text_option_1,,0,82,82,157,1
5ce7bd64a6f1d500164b6da6,63f3cfca20052e4ae7554ebf,6453cb8a04a75604074135f6,2023-05-04_17h15.00.324,ga_syllabified_check,2022.2.5,Win32,60.0240096,,,,,,,,,,,,,,./stim/p05_syllable_1_manhiala_hit.wav,p05,mañiala,hit,ma-nhia-la,ma-ñia-la,ma-ñi-a-la, ,-0.412962963,-0.112037037,1,0,0,1.467,text_option_1,,0,83,83,89,1
5ce7bd64a6f1d500164b6da6,63f3cfca20052e4ae7554ebf,6453cb8a04a75604074135f6,2023-05-04_17h15.00.324,ga_syllabified_check,2022.2.5,Win32,60.0240096,,,,,,,,,,,,,,./stim/p08_syllable_1_costonhialo_hit.wav,p08,costoñialo,hit,cos-to-nhia-lo,cos-to-ñia-lo,cos-to-ñi-a-lo, ,-0.384259259,-0.113888889,1,0,0,2.116,text_option_1,,0,84,84,171,1
5ce7bd64a6f1d500164b6da6,63f3cfca20052e4ae7554ebf,6453cb8a04a75604074135f6,2023-05-04_17h15.00.324,ga_syllabified_check,2022.2.5,Win32,60.0240096,,,,,,,,,,,,,,./stim/p08_syllable_1_payielo_hit.wav,p08,payielo,hit,pa-yie-lo,pa-yie-lo,pa-yi-e-lo, ,-0.383333333,-0.105555556,1,0,0,1.183,text_option_1,,0,85,85,200,1
5ce7bd64a6f1d500164b6da6,63f3cfca20052e4ae7554ebf,6453cb8a04a75604074135f6,2023-05-04_17h15.00.324,ga_syllabified_check,2022.2.5,Win32,60.0240096,,,,,,,,,,,,,,./stim/p05_syllable_1_lakafuaisto_hit.wav,p05,lakafuaisto,hit,la-ka-fais-to,la-ka-fuais-to,la-ka-fu-ais-to,la-ka-fua-is-to,-0.382407407,-0.121296296,1,0,0,4.034,text_option_1,,0,86,86,79,1
5ce7bd64a6f1d500164b6da6,63f3cfca20052e4ae7554ebf,6453cb8a04a75604074135f6,2023-05-04_17h15.00.324,ga_syllabified_check,2022.2.5,Win32,60.0240096,,,,,,,,,,,,,,./stim/p05_syllable_1_tuliafo_hit.wav,p05,tuliafo,hit,tu-lai-fo,tu-lia-fo,tu-li-a-fo, ,-0.382407407,-0.121296296,1,0,0,1.518,text_option_1,,0,87,87,101,1
5ce7bd64a6f1d500164b6da6,63f3cfca20052e4ae7554ebf,6453cb8a04a75604074135f6,2023-05-04_17h15.00.324,ga_syllabified_check,2022.2.5,Win32,60.0240096,,,,,,,,,,,,,,./stim/p03_syllable_1_lakagiaisto_hit.wav,p03,lakagiaisto,hit,la-ka-giais-to,la-ka-giais-to,la-ka-gi-ais-to,la-ka-gia-is-to,-0.369444444,-0.102777778,1,0,0,1.567,text_option_1,,0,88,88,12,1
5ce7bd64a6f1d500164b6da6,63f3cfca20052e4ae7554ebf,6453cb8a04a75604074135f6,2023-05-04_17h15.00.324,ga_syllabified_check,2022.2.5,Win32,60.0240096,,,,,,,,,,,,,,./stim/p06_syllable_1_pachialo_hit.wav,p06,pachialo,hit,pa-shi-a-lo,pa-chia-lo,pa-chi-a-lo, ,0.435185185,-0.100925926,1,0,0,1.301,text_option_2,,0,89,89,126,1
5ce7bd64a6f1d500164b6da6,63f3cfca20052e4ae7554ebf,6453cb8a04a75604074135f6,2023-05-04_17h15.00.324,ga_syllabified_check,2022.2.5,Win32,60.0240096,,,,,,,,,,,,,,./stim/p08_syllable_1_lakatiaisto_hit.wav,p08,lakatiaisto,hit,la-ka-ti-as-to,la-ka-tiais-to,la-ka-ti-ais-to,la-ka-tia-is-to,-0.036111111,-0.285185185,1,0,0,6.101,text_option_other,la-ka-tias-to,0,90,90,188,1
5ce7bd64a6f1d500164b6da6,63f3cfca20052e4ae7554ebf,6453cb8a04a75604074135f6,2023-05-04_17h15.00.324,ga_syllabified_check,2022.2.5,Win32,60.0240096,,,,,,,,,,,,,,./stim/p07_syllable_1_palufauto_hit.wav,p07,palufauto,hit,pa-lu-fau-to,pa-lu-fau-to,pa-lu-fa-u-to, ,-0.337962963,-0.109259259,1,0,0,2.925,text_option_1,,0,91,91,162,1
5ce7bd64a6f1d500164b6da6,63f3cfca20052e4ae7554ebf,6453cb8a04a75604074135f6,2023-05-04_17h15.00.324,ga_syllabified_check,2022.2.5,Win32,60.0240096,,,,,,,,,,,,,,./stim/p08_syllable_1_falutraigo_hit.wav,p08,falutraigo,hit,fa-lu-trai-go,fa-lu-trai-go,fa-lu-tra-i-go, ,-0.337962963,-0.109259259,1,0,0,1.616,text_option_1,,0,92,92,174,1
5ce7bd64a6f1d500164b6da6,63f3cfca20052e4ae7554ebf,6453cb8a04a75604074135f6,2023-05-04_17h15.00.324,ga_syllabified_check,2022.2.5,Win32,60.0240096,,,,,,,,,,,,,,./stim/p08_syllable_1_ruyiola_hit.wav,p08,ruyiola,hit,ru-yio-la,ru-yio-la,ru-yi-o-la, ,-0.434259259,-0.087962963,1,0,0,1.734,text_option_1,,0,93,93,202,1
5ce7bd64a6f1d500164b6da6,63f3cfca20052e4ae7554ebf,6453cb8a04a75604074135f6,2023-05-04_17h15.00.324,ga_syllabified_check,2022.2.5,Win32,60.0240096,,,,,,,,,,,,,,./stim/p04_syllable_1_ruyiola_hit.wav,p04,ruyiola,hit,ru-yio-la,ru-yio-la,ru-yi-o-la, ,-0.428703704,-0.101851852,1,0,0,0.25,text_option_1,,0,94,94,66,1
5ce7bd64a6f1d500164b6da6,63f3cfca20052e4ae7554ebf,6453cb8a04a75604074135f6,2023-05-04_17h15.00.324,ga_syllabified_check,2022.2.5,Win32,60.0240096,,,,,,,,,,,,,,./stim/p07_syllable_1_lakaduaisto_hit.wav,p07,lakaduaisto,hit,la-ka-duais-to,la-ka-duais-to,la-ka-du-ais-to,la-ka-dua-is-to,-0.423148148,-0.114814815,1,0,0,2.051,text_option_1,,0,95,95,145,1
5ce7bd64a6f1d500164b6da6,63f3cfca20052e4ae7554ebf,6453cb8a04a75604074135f6,2023-05-04_17h15.00.324,ga_syllabified_check,2022.2.5,Win32,60.0240096,,,,,,,,,,,,,,./stim/p07_syllable_1_lakabiaisto_hit.wav,p07,lakabiaisto,hit,la-ka-bais-to,la-ka-biais-to,la-ka-bi-ais-to,la-ka-bia-is-to,0.038888889,-0.302777778,1,0,0,3.434,text_option_other,la-ka-bais-to,0,96,96,142,1
5ce7bd64a6f1d500164b6da6,63f3cfca20052e4ae7554ebf,6453cb8a04a75604074135f6,2023-05-04_17h15.00.324,ga_syllabified_check,2022.2.5,Win32,60.0240096,,,,,,,,,,,,,,./stim/p08_syllable_1_lakagiaisto_hit.wav,p08,lakagiaisto,hit,la-ka-gi-jas-to,la-ka-giais-to,la-ka-gi-ais-to,la-ka-gia-is-to,-0.025,-0.281481481,1,0,0,3.618,text_option_other,la-ka-gias-to,0,97,97,182,1
5ce7bd64a6f1d500164b6da6,63f3cfca20052e4ae7554ebf,6453cb8a04a75604074135f6,2023-05-04_17h15.00.324,ga_syllabified_check,2022.2.5,Win32,60.0240096,,,,,,,,,,,,,,./stim/p06_syllable_1_payielo_hit.wav,p06,payielo,hit,pa-yi-e-lo,pa-yie-lo,pa-yi-e-lo, ,0.365740741,-0.108333333,1,0,0,1.916,text_option_2,,0,98,98,132,1
5ce7bd64a6f1d500164b6da6,63f3cfca20052e4ae7554ebf,6453cb8a04a75604074135f6,2023-05-04_17h15.00.324,ga_syllabified_check,2022.2.5,Win32,60.0240096,,,,,,,,,,,,,,./stim/p06_syllable_1_mebochiana_hit.wav,p06,mebochiana,hit,me-bo-shi-a-na,me-bo-chia-na,me-bo-chi-a-na, ,0.362037037,-0.108333333,1,0,0,3.201,text_option_2,,0,99,99,124,1
5ce7bd64a6f1d500164b6da6,63f3cfca20052e4ae7554ebf,6453cb8a04a75604074135f6,2023-05-04_17h15.00.324,ga_syllabified_check,2022.2.5,Win32,60.0240096,,,,,,,,,,,,,,./stim/p06_syllable_1_palufauto_hit.wav,p06,palufauto,hit,pa-lu-fau-to,pa-lu-fau-to,pa-lu-fa-u-to, ,-0.389814815,-0.099074074,1,0,0,3.251,text_option_1,,0,100,100,128,1
5ce7bd64a6f1d500164b6da6,63f3cfca20052e4ae7554ebf,6453cb8a04a75604074135f6,2023-05-04_17h15.00.324,ga_syllabified_check,2022.2.5,Win32,60.0240096,,,,,,,,,,,,,,./stim/p05_syllable_1_lakatiaisto_hit.wav,p05,lakatiaisto,hit,la-ka-ti-ais-to,la-ka-tiais-to,la-ka-ti-ais-to,la-ka-tia-is-to,-0.362962963,-0.108333333,1,0,0,2.684,text_option_1,,0,101,101,86,1
5ce7bd64a6f1d500164b6da6,63f3cfca20052e4ae7554ebf,6453cb8a04a75604074135f6,2023-05-04_17h15.00.324,ga_syllabified_check,2022.2.5,Win32,60.0240096,,,,,,,,,,,,,,./stim/p04_syllable_1_pachialo_hit.wav,p04,pachialo,hit,pa-chia-lo,pa-chia-lo,pa-chi-a-lo, ,-0.363888889,-0.101851852,1,0,0,0.666,text_option_1,,0,102,102,58,1
5ce7bd64a6f1d500164b6da6,63f3cfca20052e4ae7554ebf,6453cb8a04a75604074135f6,2023-05-04_17h15.00.324,ga_syllabified_check,2022.2.5,Win32,60.0240096,,,,,,,,,,,,,,./stim/p07_syllable_1_faluduako_hit.wav,p07,faluduako,hit,fa-lu-dua-ko,fa-lu-dua-ko,fa-lu-du-a-ko, ,-0.360185185,-0.113888889,1,0,0,2.3,text_option_1,,0,103,103,138,1
5ce7bd64a6f1d500164b6da6,63f3cfca20052e4ae7554ebf,6453cb8a04a75604074135f6,2023-05-04_17h15.00.324,ga_syllabified_check,2022.2.5,Win32,60.0240096,,,,,,,,,,,,,,./stim/p08_syllable_1_palufauro_hit.wav,p08,palufauro,hit,pa-lu-fau-ro,pa-lu-fau-ro,pa-lu-fa-u-ro, ,-0.360185185,-0.113888889,1,0,0,2.501,text_option_1,,0,104,104,195,1
5ce7bd64a6f1d500164b6da6,63f3cfca20052e4ae7554ebf,6453cb8a04a75604074135f6,2023-05-04_17h15.00.324,ga_syllabified_check,2022.2.5,Win32,60.0240096,,,,,,,,,,,,,,./stim/p08_syllable_1_lakakuaisto_hit.wav,p08,lakakuaisto,hit,la-ka-ku-ais-to,la-ka-kuais-to,la-ka-ku-ais-to,la-ka-kua-is-to,-0.360185185,-0.113888889,1,0,0,3.402,text_option_1,,0,105,105,185,1
5ce7bd64a6f1d500164b6da6,63f3cfca20052e4ae7554ebf,6453cb8a04a75604074135f6,2023-05-04_17h15.00.324,ga_syllabified_check,2022.2.5,Win32,60.0240096,,,,,,,,,,,,,,./stim/p04_syllable_1_falutraigo_hit.wav,p04,falutraigo,hit,fa-lu-trai-go,fa-lu-trai-go,fa-lu-tra-i-go, ,-0.348148148,-0.113888889,1,0,0,0.883,text_option_1,,0,106,106,38,1
5ce7bd64a6f1d500164b6da6,63f3cfca20052e4ae7554ebf,6453cb8a04a75604074135f6,2023-05-04_17h15.00.324,ga_syllabified_check,2022.2.5,Win32,60.0240096,,,,,,,,,,,,,,./stim/p07_syllable_1_mebochiana_hit.wav,p07,mebochiana,hit,me-bo-chia-na,me-bo-chia-na,me-bo-chi-a-na, ,-0.348148148,-0.113888889,1,0,0,2.266,text_option_1,,0,107,107,158,1
5ce7bd64a6f1d500164b6da6,63f3cfca20052e4ae7554ebf,6453cb8a04a75604074135f6,2023-05-04_17h15.00.324,ga_syllabified_check,2022.2.5,Win32,60.0240096,,,,,,,,,,,,,,./stim/p06_syllable_1_nhiape_hit.wav,p06,ñiape,hit,nhi-a-pe,ñia-pe,ñi-a-pe, ,0.425925926,-0.12037037,1,0,0,1.35,text_option_2,,0,108,108,125,1
5ce7bd64a6f1d500164b6da6,63f3cfca20052e4ae7554ebf,6453cb8a04a75604074135f6,2023-05-04_17h15.00.324,ga_syllabified_check,2022.2.5,Win32,60.0240096,,,,,,,,,,,,,,./stim/p07_syllable_1_lakagiaisto_hit.wav,p07,lakagiaisto,hit,la-ka-gais-to,la-ka-giais-to,la-ka-gi-ais-to,la-ka-gia-is-to,0.000925926,-0.293518519,1,0,0,3.701,text_option_other,la-ka-gais-to,0,109,109,148,1
5ce7bd64a6f1d500164b6da6,63f3cfca20052e4ae7554ebf,6453cb8a04a75604074135f6,2023-05-04_17h15.00.324,ga_syllabified_check,2022.2.5,Win32,60.0240096,,,,,,,,,,,,,,./stim/p06_syllable_1_lakafuaisto_hit.wav,p06,lakafuaisto,hit,la-ka-fu-a-is,la-ka-fuais-to,la-ka-fu-ais-to,la-ka-fua-is-to,-0.025925926,-0.30462963,1,0,0,4.484,text_option_other,la-ka-fu-a-is-to,0,110,110,113,1
5ce7bd64a6f1d500164b6da6,63f3cfca20052e4ae7554ebf,6453cb8a04a75604074135f6,2023-05-04_17h15.00.324,ga_syllabified_check,2022.2.5,Win32,60.0240096,,,,,,,,,,,,,,./stim/p08_syllable_1_lakapuaisto_hit.wav,p08,lakapuaisto,hit,la-ka-pu-as-to,la-ka-puais-to,la-ka-pu-ais-to,la-ka-pua-is-to,0.023148148,-0.296296296,1,0,0,3.517,text_option_other,la-ka-puas-to,0,111,111,187,1
5ce7bd64a6f1d500164b6da6,63f3cfca20052e4ae7554ebf,6453cb8a04a75604074135f6,2023-05-04_17h15.00.324,ga_syllabified_check,2022.2.5,Win32,60.0240096,,,,,,,,,,,,,,./stim/p08_syllable_1_pachialo_hit.wav,p08,pachialo,hit,pa-chi-ja-lo,pa-chia-lo,pa-chi-a-lo, ,0.40462963,-0.114814815,1,0,0,3.767,text_option_2,,0,112,112,194,1
5ce7bd64a6f1d500164b6da6,63f3cfca20052e4ae7554ebf,6453cb8a04a75604074135f6,2023-05-04_17h15.00.324,ga_syllabified_check,2022.2.5,Win32,60.0240096,,,,,,,,,,,,,,./stim/p03_syllable_1_lakabiaisto_hit.wav,p03,lakabiaisto,hit,la-ka-biais-to,la-ka-biais-to,la-ka-bi-ais-to,la-ka-bia-is-to,-0.312962963,-0.098148148,1,0,0,1.434,text_option_1,,0,113,113,6,1
5ce7bd64a6f1d500164b6da6,63f3cfca20052e4ae7554ebf,6453cb8a04a75604074135f6,2023-05-04_17h15.00.324,ga_syllabified_check,2022.2.5,Win32,60.0240096,,,,,,,,,,,,,,./stim/p06_syllable_1_lakaduaisto_hit.wav,p06,lakaduaisto,hit,la-ka-du-a-is,la-ka-duais-to,la-ka-du-ais-to,la-ka-dua-is-to,-0.064814815,-0.114814815,1,0,0,5.301,text_option_3,,0,114,114,111,1
5ce7bd64a6f1d500164b6da6,63f3cfca20052e4ae7554ebf,6453cb8a04a75604074135f6,2023-05-04_17h15.00.324,ga_syllabified_check,2022.2.5,Win32,60.0240096,,,,,,,,,,,,,,./stim/p08_syllable_1_tuliafo_hit.wav,p08,tuliafo,hit,tu-li-a-fo,tu-lia-fo,tu-li-a-fo, ,0.389814815,-0.113888889,1,0,0,2.3,text_option_2,,0,115,115,203,1
5ce7bd64a6f1d500164b6da6,63f3cfca20052e4ae7554ebf,6453cb8a04a75604074135f6,2023-05-04_17h15.00.324,ga_syllabified_check,2022.2.5,Win32,60.0240096,,,,,,,,,,,,,,./stim/p07_syllable_1_costonhialo_hit.wav,p07,costoñialo,hit,cos-to-nhia-lo,cos-to-ñia-lo,cos-to-ñi-a-lo, ,-0.360185185,-0.089814815,1,0,0,1.817,text_option_1,,0,116,116,137,1
5ce7bd64a6f1d500164b6da6,63f3cfca20052e4ae7554ebf,6453cb8a04a75604074135f6,2023-05-04_17h15.00.324,ga_syllabified_check,2022.2.5,Win32,60.0240096,,,,,,,,,,,,,,./stim/p04_syllable_1_lakaguaisto_hit.wav,p04,lakaguaisto,hit,la-ka-guais-to,la-ka-guais-to,la-ka-gu-ais-to,la-ka-gua-is-to,-0.336111111,-0.105555556,1,0,0,1.304,text_option_1,,0,117,117,47,1
5ce7bd64a6f1d500164b6da6,63f3cfca20052e4ae7554ebf,6453cb8a04a75604074135f6,2023-05-04_17h15.00.324,ga_syllabified_check,2022.2.5,Win32,60.0240096,,,,,,,,,,,,,,./stim/p05_syllable_1_mebochiana_hit.wav,p05,mebochiana,hit,me-cho-chai-na,me-bo-chia-na,me-bo-chi-a-na, ,0.001851852,-0.298148148,1,0,0,5.8,text_option_other,me-cho-chi-na,0,118,118,90,1
5ce7bd64a6f1d500164b6da6,63f3cfca20052e4ae7554ebf,6453cb8a04a75604074135f6,2023-05-04_17h15.00.324,ga_syllabified_check,2022.2.5,Win32,60.0240096,,,,,,,,,,,,,,./stim/p07_syllable_1_nhiape_hit.wav,p07,ñiape,hit,nhia-pe,ñia-pe,ñi-a-pe, ,-0.398148148,-0.10462963,1,0,0,0.617,text_option_1,,0,119,119,159,1
5ce7bd64a6f1d500164b6da6,63f3cfca20052e4ae7554ebf,6453cb8a04a75604074135f6,2023-05-04_17h15.00.324,ga_syllabified_check,2022.2.5,Win32,60.0240096,,,,,,,,,,,,,,./stim/p03_syllable_1_falufaisto_hit.wav,p03,falufaisto,hit,fa-lu-fais-to,fa-lu-fais-to,fa-lu-fa-is-to, ,-0.331481481,-0.098148148,1,0,0,1.284,text_option_1,,0,120,120,3,1
5ce7bd64a6f1d500164b6da6,63f3cfca20052e4ae7554ebf,6453cb8a04a75604074135f6,2023-05-04_17h15.00.324,ga_syllabified_check,2022.2.5,Win32,60.0240096,,,,,,,,,,,,,,./stim/p08_syllable_1_lakabuaisto_hit.wav,p08,lakabuaisto,hit,la-ka-bu-ais-to,la-ka-buais-to,la-ka-bu-ais-to,la-ka-bua-is-to,0.44537037,-0.094444444,1,0,0,4.568,text_option_2,,0,121,121,177,1
5ce7bd64a6f1d500164b6da6,63f3cfca20052e4ae7554ebf,6453cb8a04a75604074135f6,2023-05-04_17h15.00.324,ga_syllabified_check,2022.2.5,Win32,60.0240096,,,,,,,,,,,,,,./stim/p03_syllable_1_lakakiaisto_hit.wav,p03,lakakiaisto,hit,la-ka-kiais-to,la-ka-kiais-to,la-ka-ki-ais-to,la-ka-kia-is-to,-0.34537037,-0.106481481,1,0,0,1.517,text_option_1,,0,122,122,14,1
5ce7bd64a6f1d500164b6da6,63f3cfca20052e4ae7554ebf,6453cb8a04a75604074135f6,2023-05-04_17h15.00.324,ga_syllabified_check,2022.2.5,Win32,60.0240096,,,,,,,,,,,,,,./stim/p03_syllable_1_falutraigo_hit.wav,p03,falutraigo,hit,fa-lu-trai-go,fa-lu-trai-go,fa-lu-tra-i-go, ,-0.339814815,-0.101851852,1,0,0,1.251,text_option_1,,0,123,123,4,1
5ce7bd64a6f1d500164b6da6,63f3cfca20052e4ae7554ebf,6453cb8a04a75604074135f6,2023-05-04_17h15.00.324,ga_syllabified_check,2022.2.5,Win32,60.0240096,,,,,,,,,,,,,,./stim/p08_syllable_1_faluduako_hit.wav,p08,faluduako,hit,fa-lu-duai-ko,fa-lu-dua-ko,fa-lu-du-a-ko, ,0.057407407,-0.312037037,1,0,0,3.584,text_option_other,fa-lu-duai-ko,0,124,124,172,1
5ce7bd64a6f1d500164b6da6,63f3cfca20052e4ae7554ebf,6453cb8a04a75604074135f6,2023-05-04_17h15.00.324,ga_syllabified_check,2022.2.5,Win32,60.0240096,,,,,,,,,,,,,,./stim/p06_syllable_1_faluduako_hit.wav,p06,faluduako,hit,fa-lu-dua-ko,fa-lu-dua-ko,fa-lu-du-a-ko, ,-0.353703704,-0.106481481,1,0,0,4.3,text_option_1,,0,125,125,104,1
5ce7bd64a6f1d500164b6da6,63f3cfca20052e4ae7554ebf,6453cb8a04a75604074135f6,2023-05-04_17h15.00.324,ga_syllabified_check,2022.2.5,Win32,60.0240096,,,,,,,,,,,,,,./stim/p05_syllable_1_palumaisto_hit.wav,p05,palumaisto,hit,pa-lu-mais-to,pa-lu-mais-to,pa-lu-ma-is-to, ,-0.328703704,-0.114814815,1,0,0,2.317,text_option_1,,0,126,126,96,1
5ce7bd64a6f1d500164b6da6,63f3cfca20052e4ae7554ebf,6453cb8a04a75604074135f6,2023-05-04_17h15.00.324,ga_syllabified_check,2022.2.5,Win32,60.0240096,,,,,,,,,,,,,,./stim/p05_syllable_1_chiaba_hit.wav,p05,chiaba,hit,chia-ba,chia-ba,chi-a-ba, ,0.003703704,-0.289814815,1,0,0,3.483,text_option_other,chai-ba,0,127,127,68,1
5ce7bd64a6f1d500164b6da6,63f3cfca20052e4ae7554ebf,6453cb8a04a75604074135f6,2023-05-04_17h15.00.324,ga_syllabified_check,2022.2.5,Win32,60.0240096,,,,,,,,,,,,,,./stim/p05_syllable_1_lakagiaisto_hit.wav,p05,lakagiaisto,hit,la-ka-ki-ais-to,la-ka-giais-to,la-ka-gi-ais-to,la-ka-gia-is-to,-0.349074074,-0.108333333,1,0,0,1.968,text_option_1,,0,128,128,80,1
5ce7bd64a6f1d500164b6da6,63f3cfca20052e4ae7554ebf,6453cb8a04a75604074135f6,2023-05-04_17h15.00.324,ga_syllabified_check,2022.2.5,Win32,60.0240096,,,,,,,,,,,,,,./stim/p03_syllable_1_lakaduaisto_hit.wav,p03,lakaduaisto,hit,la-ka-duais-to,la-ka-duais-to,la-ka-du-ais-to,la-ka-dua-is-to,-0.338888889,-0.106481481,1,0,0,1.27,text_option_1,,0,129,129,9,1
5ce7bd64a6f1d500164b6da6,63f3cfca20052e4ae7554ebf,6453cb8a04a75604074135f6,2023-05-04_17h15.00.324,ga_syllabified_check,2022.2.5,Win32,60.0240096,,,,,,,,,,,,,,./stim/p03_syllable_1_palufauro_hit.wav,p03,palufauro,hit,pa-lu-fau-ro,pa-lu-fau-ro,pa-lu-fa-u-ro, ,-0.335185185,-0.107407407,1,0,0,1.048,text_option_1,,0,130,130,25,1
5ce7bd64a6f1d500164b6da6,63f3cfca20052e4ae7554ebf,6453cb8a04a75604074135f6,2023-05-04_17h15.00.324,ga_syllabified_check,2022.2.5,Win32,60.0240096,,,,,,,,,,,,,,./stim/p08_syllable_1_lakafiaisto_hit.wav,p08,lakafiaisto,hit,la-ka-fi-as-to,la-ka-fiais-to,la-ka-fi-ais-to,la-ka-fia-is-to,0.008333333,-0.287037037,1,0,0,4.2,text_option_other,la-ka-fias-to,0,131,131,180,1
5ce7bd64a6f1d500164b6da6,63f3cfca20052e4ae7554ebf,6453cb8a04a75604074135f6,2023-05-04_17h15.00.324,ga_syllabified_check,2022.2.5,Win32,60.0240096,,,,,,,,,,,,,,./stim/p05_syllable_1_pachialo_hit.wav,p05,pachialo,hit,pan-chia-lo,pa-chia-lo,pa-chi-a-lo, ,0.02037037,-0.307407407,1,0,0,0.866,text_option_other,pan-chia-lo,0,132,132,92,1
5ce7bd64a6f1d500164b6da6,63f3cfca20052e4ae7554ebf,6453cb8a04a75604074135f6,2023-05-04_17h15.00.324,ga_syllabified_check,2022.2.5,Win32,60.0240096,,,,,,,,,,,,,,./stim/p08_syllable_1_rausto_hit.wav,p08,rausto,hit,raus-to,raus-to,ra-us-to, ,-0.372222222,-0.111111111,1,0,0,1.385,text_option_1,,0,133,133,201,1
5ce7bd64a6f1d500164b6da6,63f3cfca20052e4ae7554ebf,6453cb8a04a75604074135f6,2023-05-04_17h15.00.324,ga_syllabified_check,2022.2.5,Win32,60.0240096,,,,,,,,,,,,,,./stim/p08_syllable_1_paluguato_hit.wav,p08,paluguato,hit,pa-lu-gua-to,pa-lu-gua-to,pa-lu-gu-a-to, ,-0.366666667,-0.121296296,1,0,0,1.567,text_option_1,,0,134,134,197,1
5ce7bd64a6f1d500164b6da6,63f3cfca20052e4ae7554ebf,6453cb8a04a75604074135f6,2023-05-04_17h15.00.324,ga_syllabified_check,2022.2.5,Win32,60.0240096,,,,,,,,,,,,,,./stim/p03_syllable_1_paluguato_hit.wav,p03,paluguato,hit,pa-lu-gua,pa-lu-gua-to,pa-lu-gu-a-to, ,-0.362037037,-0.10462963,1,0,0,1.484,text_option_1,,0,135,135,27,1
5ce7bd64a6f1d500164b6da6,63f3cfca20052e4ae7554ebf,6453cb8a04a75604074135f6,2023-05-04_17h15.00.324,ga_syllabified_check,2022.2.5,Win32,60.0240096,,,,,,,,,,,,,,./stim/p05_syllable_1_faluduako_hit.wav,p05,faluduako,hit,fa-lu-ba-ko,fa-lu-dua-ko,fa-lu-du-a-ko, ,0.049074074,-0.307407407,1,0,0,1.883,text_option_other,fa-lu-ba-ko,0,136,136,70,1
5ce7bd64a6f1d500164b6da6,63f3cfca20052e4ae7554ebf,6453cb8a04a75604074135f6,2023-05-04_17h15.00.324,ga_syllabified_check,2022.2.5,Win32,60.0240096,,,,,,,,,,,,,,./stim/p05_syllable_1_lakakuaisto_hit.wav,p05,lakakuaisto,hit,la-ka-kais-to,la-ka-kuais-to,la-ka-ku-ais-to,la-ka-kua-is-to,0.016666667,-0.30462963,1,0,0,6.235,text_option_other,la-ka-kais-to,0,137,137,83,1
5ce7bd64a6f1d500164b6da6,63f3cfca20052e4ae7554ebf,6453cb8a04a75604074135f6,2023-05-04_17h15.00.324,ga_syllabified_check,2022.2.5,Win32,60.0240096,,,,,,,,,,,,,,./stim/p06_syllable_1_chiaba_hit.wav,p06,chiaba,hit,chi-a-ba,chia-ba,chi-a-ba, ,-0.378703704,-0.107407407,1,0,0,1.766,text_option_1,,0,138,138,102,1
5ce7bd64a6f1d500164b6da6,63f3cfca20052e4ae7554ebf,6453cb8a04a75604074135f6,2023-05-04_17h15.00.324,ga_syllabified_check,2022.2.5,Win32,60.0240096,,,,,,,,,,,,,,./stim/p04_syllable_1_lakaduaisto_hit.wav,p04,lakaduaisto,hit,la-ka-duais-to,la-ka-duais-to,la-ka-du-ais-to,la-ka-dua-is-to,-0.365740741,-0.110185185,1,0,0,0.701,text_option_1,,0,139,139,43,1
5ce7bd64a6f1d500164b6da6,63f3cfca20052e4ae7554ebf,6453cb8a04a75604074135f6,2023-05-04_17h15.00.324,ga_syllabified_check,2022.2.5,Win32,60.0240096,,,,,,,,,,,,,,./stim/p04_syllable_1_chiaba_hit.wav,p04,chiaba,hit,chia-ba,chia-ba,chi-a-ba, ,-0.376851852,-0.103703704,1,0,0,0.234,text_option_1,,0,140,140,34,1
5ce7bd64a6f1d500164b6da6,63f3cfca20052e4ae7554ebf,6453cb8a04a75604074135f6,2023-05-04_17h15.00.324,ga_syllabified_check,2022.2.5,Win32,60.0240096,,,,,,,,,,,,,,./stim/p04_syllable_1_rausto_hit.wav,p04,rausto,hit,raus-to,raus-to,ra-us-to, ,-0.377777778,-0.107407407,1,0,0,0.549,text_option_1,,0,141,141,65,1
5ce7bd64a6f1d500164b6da6,63f3cfca20052e4ae7554ebf,6453cb8a04a75604074135f6,2023-05-04_17h15.00.324,ga_syllabified_check,2022.2.5,Win32,60.0240096,,,,,,,,,,,,,,./stim/p07_syllable_1_falufaisto_hit.wav,p07,falufaisto,hit,fa-lu-fais-to,fa-lu-fais-to,fa-lu-fa-is-to, ,-0.372222222,-0.107407407,1,0,0,2.183,text_option_1,,0,142,142,139,1
5ce7bd64a6f1d500164b6da6,63f3cfca20052e4ae7554ebf,6453cb8a04a75604074135f6,2023-05-04_17h15.00.324,ga_syllabified_check,2022.2.5,Win32,60.0240096,,,,,,,,,,,,,,./stim/p03_syllable_1_lakapiaisto_hit.wav,p03,lakapiaisto,hit,la-ka-piais-to,la-ka-piais-to,la-ka-pi-ais-to,la-ka-pia-is-to,-0.355555556,-0.116666667,1,0,0,1.351,text_option_1,,0,143,143,16,1
5ce7bd64a6f1d500164b6da6,63f3cfca20052e4ae7554ebf,6453cb8a04a75604074135f6,2023-05-04_17h15.00.324,ga_syllabified_check,2022.2.5,Win32,60.0240096,,,,,,,,,,,,,,./stim/p08_syllable_1_lakatuaisto_hit.wav,p08,lakatuaisto,hit,la-ka-tu-i-jis,la-ka-tuais-to,la-ka-tu-ais-to,la-ka-tua-is-to,0.043518519,-0.289814815,1,0,0,3.3,text_option_other,la-ka-tui-yis-to,0,144,144,189,1
5ce7bd64a6f1d500164b6da6,63f3cfca20052e4ae7554ebf,6453cb8a04a75604074135f6,2023-05-04_17h15.00.324,ga_syllabified_check,2022.2.5,Win32,60.0240096,,,,,,,,,,,,,,./stim/p03_syllable_1_lliape_hit.wav,p03,lliape,hit,llia,llia-pe,lli-a-pe, ,-0.369444444,-0.102777778,1,0,0,0.751,text_option_1,,0,145,145,20,1
5ce7bd64a6f1d500164b6da6,63f3cfca20052e4ae7554ebf,6453cb8a04a75604074135f6,2023-05-04_17h15.00.324,ga_syllabified_check,2022.2.5,Win32,60.0240096,,,,,,,,,,,,,,./stim/p03_syllable_1_lakakuaisto_hit.wav,p03,lakakuaisto,hit,la-ka-kuais-to,la-ka-kuais-to,la-ka-ku-ais-to,la-ka-kua-is-to,-0.342592593,-0.100925926,1,0,0,1.249,text_option_1,,0,146,146,15,1
5ce7bd64a6f1d500164b6da6,63f3cfca20052e4ae7554ebf,6453cb8a04a75604074135f6,2023-05-04_17h15.00.324,ga_syllabified_check,2022.2.5,Win32,60.0240096,,,,,,,,,,,,,,./stim/p04_syllable_1_lakadiaisto_hit.wav,p04,lakadiaisto,hit,la-ka-dias-to,la-ka-diais-to,la-ka-di-ais-to,la-ka-dia-is-to,-0.382407407,-0.110185185,1,0,0,1.018,text_option_1,,0,147,147,42,1
5ce7bd64a6f1d500164b6da6,63f3cfca20052e4ae7554ebf,6453cb8a04a75604074135f6,2023-05-04_17h15.00.324,ga_syllabified_check,2022.2.5,Win32,60.0240096,,,,,,,,,,,,,,./stim/p04_syllable_1_lakakiaisto_hit.wav,p04,lakakiaisto,hit,la-ka-kiais-to,la-ka-kiais-to,la-ka-ki-ais-to,la-ka-kia-is-to,-0.37037037,-0.107407407,1,0,0,1.367,text_option_1,,0,148,148,48,1
5ce7bd64a6f1d500164b6da6,63f3cfca20052e4ae7554ebf,6453cb8a04a75604074135f6,2023-05-04_17h15.00.324,ga_syllabified_check,2022.2.5,Win32,60.0240096,,,,,,,,,,,,,,./stim/p04_syllable_1_lakatiaisto_hit.wav,p04,lakatiaisto,hit,la-ka-kiais-to,la-ka-tiais-to,la-ka-ti-ais-to,la-ka-tia-is-to,-0.375,-0.116666667,1,0,0,0.783,text_option_1,,0,149,149,52,1
5ce7bd64a6f1d500164b6da6,63f3cfca20052e4ae7554ebf,6453cb8a04a75604074135f6,2023-05-04_17h15.00.324,ga_syllabified_check,2022.2.5,Win32,60.0240096,,,,,,,,,,,,,,./stim/p06_syllable_1_falufaisto_hit.wav,p06,falufaisto,hit,fa-lu-fa-is-to,fa-lu-fais-to,fa-lu-fa-is-to, ,0.421296296,-0.108333333,1,0,0,2.467,text_option_2,,0,150,150,105,1
5ce7bd64a6f1d500164b6da6,63f3cfca20052e4ae7554ebf,6453cb8a04a75604074135f6,2023-05-04_17h15.00.324,ga_syllabified_check,2022.2.5,Win32,60.0240096,,,,,,,,,,,,,,./stim/p05_syllable_1_nhiape_hit.wav,p05,ñiape,hit,nhia-pe,ñia-pe,ñi-a-pe, ,-0.402777778,-0.115740741,1,0,0,0.3,text_option_1,,0,151,151,91,1
5ce7bd64a6f1d500164b6da6,63f3cfca20052e4ae7554ebf,6453cb8a04a75604074135f6,2023-05-04_17h15.00.324,ga_syllabified_check,2022.2.5,Win32,60.0240096,,,,,,,,,,,,,,./stim/p04_syllable_1_tuliafo_hit.wav,p04,tuliafo,hit,tu-lia-fo,tu-lia-fo,tu-li-a-fo, ,-0.371296296,-0.112037037,1,0,0,1.338,text_option_1,,0,152,152,67,1
5ce7bd64a6f1d500164b6da6,63f3cfca20052e4ae7554ebf,6453cb8a04a75604074135f6,2023-05-04_17h15.00.324,ga_syllabified_check,2022.2.5,Win32,60.0240096,,,,,,,,,,,,,,./stim/p07_syllable_1_lakatuaisto_hit.wav,p07,lakatuaisto,hit,la-ka-tuais-to,la-ka-tuais-to,la-ka-tu-ais-to,la-ka-tua-is-to,-0.349074074,-0.113888889,1,0,0,2.601,text_option_1,,0,153,153,155,1
5ce7bd64a6f1d500164b6da6,63f3cfca20052e4ae7554ebf,6453cb8a04a75604074135f6,2023-05-04_17h15.00.324,ga_syllabified_check,2022.2.5,Win32,60.0240096,,,,,,,,,,,,,,./stim/p05_syllable_1_lliape_hit.wav,p05,lliape,hit,liai-pe,llia-pe,lli-a-pe, ,0.000925926,-0.30462963,1,0,0,1.901,text_option_other,lliai-pe,0,154,154,88,1
5ce7bd64a6f1d500164b6da6,63f3cfca20052e4ae7554ebf,6453cb8a04a75604074135f6,2023-05-04_17h15.00.324,ga_syllabified_check,2022.2.5,Win32,60.0240096,,,,,,,,,,,,,,./stim/p03_syllable_1_lakabuaisto_hit.wav,p03,lakabuaisto,hit,la-ka-buais-to,la-ka-buais-to,la-ka-bu-ais-to,la-ka-bua-is-to,-0.346296296,-0.10462963,1,0,0,1.551,text_option_1,,0,155,155,7,1
5ce7bd64a6f1d500164b6da6,63f3cfca20052e4ae7554ebf,6453cb8a04a75604074135f6,2023-05-04_17h15.00.324,ga_syllabified_check,2022.2.5,Win32,60.0240096,,,,,,,,,,,,,,./stim/p04_syllable_1_palufauto_hit.wav,p04,palufauto,hit,pa-lu-fau-to,pa-lu-fau-to,pa-lu-fa-u-to, ,-0.357407407,-0.102777778,1,0,0,4.307,text_option_1,,0,156,156,60,1
5ce7bd64a6f1d500164b6da6,63f3cfca20052e4ae7554ebf,6453cb8a04a75604074135f6,2023-05-04_17h15.00.324,ga_syllabified_check,2022.2.5,Win32,60.0240096,,,,,,,,,,,,,,./stim/p06_syllable_1_lakatuaisto_hit.wav,p06,lakatuaisto,hit,la-ka-tu-a-is,la-ka-tuais-to,la-ka-tu-ais-to,la-ka-tua-is-to,-0.040740741,-0.108333333,1,0,0,8.836,text_option_3,,0,157,157,121,1
5ce7bd64a6f1d500164b6da6,63f3cfca20052e4ae7554ebf,6453cb8a04a75604074135f6,2023-05-04_17h15.00.324,ga_syllabified_check,2022.2.5,Win32,60.0240096,,,,,,,,,,,,,,./stim/p08_syllable_1_chiaba_hit.wav,p08,chiaba,hit,chi-a-ba,chia-ba,chi-a-ba, ,-0.377777778,-0.112037037,1,0,0,8.276,text_option_1,,0,158,158,170,1
5ce7bd64a6f1d500164b6da6,63f3cfca20052e4ae7554ebf,6453cb8a04a75604074135f6,2023-05-04_17h15.00.324,ga_syllabified_check,2022.2.5,Win32,60.0240096,,,,,,,,,,,,,,./stim/p03_syllable_1_payielo_hit.wav,p03,payielo,hit,pa-yie-lo,pa-yie-lo,pa-yi-e-lo, ,-0.377777778,-0.112037037,1,0,0,0.684,text_option_1,,0,159,159,30,1
5ce7bd64a6f1d500164b6da6,63f3cfca20052e4ae7554ebf,6453cb8a04a75604074135f6,2023-05-04_17h15.00.324,ga_syllabified_check,2022.2.5,Win32,60.0240096,,,,,,,,,,,,,,./stim/p05_syllable_1_lakabiaisto_hit.wav,p05,lakabiaisto,hit,la-ka-bi-ais-to,la-ka-biais-to,la-ka-bi-ais-to,la-ka-bia-is-to,-0.377777778,-0.112037037,1,0,0,1.467,text_option_1,,0,160,160,74,1
5ce7bd64a6f1d500164b6da6,63f3cfca20052e4ae7554ebf,6453cb8a04a75604074135f6,2023-05-04_17h15.00.324,ga_syllabified_check,2022.2.5,Win32,60.0240096,,,,,,,,,,,,,,./stim/p05_syllable_1_lakatuaisto_hit.wav,p05,lakatuaisto,hit,la-ka-tais-to,la-ka-tuais-to,la-ka-tu-ais-to,la-ka-tua-is-to,0.025925926,-0.297222222,1,0,0,1.384,text_option_other,la-ka-tais-to,0,161,161,87,1
5ce7bd64a6f1d500164b6da6,63f3cfca20052e4ae7554ebf,6453cb8a04a75604074135f6,2023-05-04_17h15.00.324,ga_syllabified_check,2022.2.5,Win32,60.0240096,,,,,,,,,,,,,,./stim/p05_syllable_1_palufauto_hit.wav,p05,palufauto,hit,pa-lu-fau-to,pa-lu-fau-to,pa-lu-fa-u-to, ,-0.39537037,-0.092592593,1,0,0,3.282,text_option_1,,0,162,162,94,1
5ce7bd64a6f1d500164b6da6,63f3cfca20052e4ae7554ebf,6453cb8a04a75604074135f6,2023-05-04_17h15.00.324,ga_syllabified_check,2022.2.5,Win32,60.0240096,,,,,,,,,,,,,,./stim/p06_syllable_1_lakapiaisto_hit.wav,p06,lakapiaisto,hit,la-ka-pia-is-to,la-ka-piais-to,la-ka-pi-ais-to,la-ka-pia-is-to,0.015740741,-0.107407407,1,0,0,4.634,text_option_3,,0,163,163,118,1
5ce7bd64a6f1d500164b6da6,63f3cfca20052e4ae7554ebf,6453cb8a04a75604074135f6,2023-05-04_17h15.00.324,ga_syllabified_check,2022.2.5,Win32,60.0240096,,,,,,,,,,,,,,./stim/p07_syllable_1_tuliafo_hit.wav,p07,tuliafo,hit,tu-lia-fo,tu-lia-fo,tu-li-a-fo, ,-0.353703704,-0.10462963,1,0,0,0.85,text_option_1,,0,164,164,169,1
5ce7bd64a6f1d500164b6da6,63f3cfca20052e4ae7554ebf,6453cb8a04a75604074135f6,2023-05-04_17h15.00.324,ga_syllabified_check,2022.2.5,Win32,60.0240096,,,,,,,,,,,,,,./stim/p05_syllable_1_palutrauco_hit.wav,p05,palutrauco,hit,pa-lu-trai-co,pa-lu-trau-co,pa-lu-tra-u-co, ,0.003703704,-0.291666667,1,0,0,1.633,text_option_other,pa-lu-trai-co,0,165,165,97,1
5ce7bd64a6f1d500164b6da6,63f3cfca20052e4ae7554ebf,6453cb8a04a75604074135f6,2023-05-04_17h15.00.324,ga_syllabified_check,2022.2.5,Win32,60.0240096,,,,,,,,,,,,,,./stim/p06_syllable_1_lakagiaisto_hit.wav,p06,lakagiaisto,hit,la-ka-gia-is-to,la-ka-giais-to,la-ka-gi-ais-to,la-ka-gia-is-to,0,-0.103703704,1,0,0,13.218,text_option_3,,0,166,166,114,1
5ce7bd64a6f1d500164b6da6,63f3cfca20052e4ae7554ebf,6453cb8a04a75604074135f6,2023-05-04_17h15.00.324,ga_syllabified_check,2022.2.5,Win32,60.0240096,,,,,,,,,,,,,,./stim/p04_syllable_1_lakapuaisto_hit.wav,p04,lakapuaisto,hit,la-ka-puais-to,la-ka-puais-to,la-ka-pu-ais-to,la-ka-pua-is-to,-0.317592593,-0.112037037,1,0,0,0.401,text_option_1,,0,167,167,51,1
5ce7bd64a6f1d500164b6da6,63f3cfca20052e4ae7554ebf,6453cb8a04a75604074135f6,2023-05-04_17h15.00.324,ga_syllabified_check,2022.2.5,Win32,60.0240096,,,,,,,,,,,,,,./stim/p05_syllable_1_rausto_hit.wav,p05,rausto,hit,raus-to,raus-to,ra-us-to, ,-0.388888889,-0.09537037,1,0,0,0.367,text_option_1,,0,168,168,99,1
5ce7bd64a6f1d500164b6da6,63f3cfca20052e4ae7554ebf,6453cb8a04a75604074135f6,2023-05-04_17h15.00.324,ga_syllabified_check,2022.2.5,Win32,60.0240096,,,,,,,,,,,,,,./stim/p06_syllable_1_lakadiaisto_hit.wav,p06,lakadiaisto,hit,la-ka-dia-is-to,la-ka-diais-to,la-ka-di-ais-to,la-ka-dia-is-to,-0.019444444,-0.107407407,1,0,0,2.319,text_option_3,,0,169,169,110,1
5ce7bd64a6f1d500164b6da6,63f3cfca20052e4ae7554ebf,6453cb8a04a75604074135f6,2023-05-04_17h15.00.324,ga_syllabified_check,2022.2.5,Win32,60.0240096,,,,,,,,,,,,,,./stim/p08_syllable_1_lakapiaisto_hit.wav,p08,lakapiaisto,hit,la-ka-pi-as-to,la-ka-piais-to,la-ka-pi-ais-to,la-ka-pia-is-to,0.02962963,-0.300925926,1,0,0,4.383,text_option_other,la-ka-pi-as-to,0,170,170,186,1
5ce7bd64a6f1d500164b6da6,63f3cfca20052e4ae7554ebf,6453cb8a04a75604074135f6,2023-05-04_17h15.00.324,ga_syllabified_check,2022.2.5,Win32,60.0240096,,,,,,,,,,,,,,./stim/p07_syllable_1_lakakuaisto_hit.wav,p07,lakakuaisto,hit,la-ka-kuais-to,la-ka-kuais-to,la-ka-ku-ais-to,la-ka-kua-is-to,-0.371296296,-0.116666667,1,0,0,2.666,text_option_1,,0,171,171,151,1
5ce7bd64a6f1d500164b6da6,63f3cfca20052e4ae7554ebf,6453cb8a04a75604074135f6,2023-05-04_17h15.00.324,ga_syllabified_check,2022.2.5,Win32,60.0240096,,,,,,,,,,,,,,./stim/p07_syllable_1_palumaisto_hit.wav,p07,palumaisto,hit,pa-lu-mais-to,pa-lu-mais-to,pa-lu-ma-is-to, ,-0.350925926,-0.110185185,1,0,0,2.65,text_option_1,,0,172,172,164,1
5ce7bd64a6f1d500164b6da6,63f3cfca20052e4ae7554ebf,6453cb8a04a75604074135f6,2023-05-04_17h15.00.324,ga_syllabified_check,2022.2.5,Win32,60.0240096,,,,,,,,,,,,,,./stim/p07_syllable_1_lakabuaisto_hit.wav,p07,lakabuaisto,hit,la-ka-buais-to,la-ka-buais-to,la-ka-bu-ais-to,la-ka-bua-is-to,-0.348148148,-0.105555556,1,0,0,2.084,text_option_1,,0,173,173,143,1
5ce7bd64a6f1d500164b6da6,63f3cfca20052e4ae7554ebf,6453cb8a04a75604074135f6,2023-05-04_17h15.00.324,ga_syllabified_check,2022.2.5,Win32,60.0240096,,,,,,,,,,,,,,./stim/p07_syllable_1_lakafuaisto_hit.wav,p07,lakafuaisto,hit,la-ka-fuais-to,la-ka-fuais-to,la-ka-fu-ais-to,la-ka-fua-is-to,-0.367592593,-0.112962963,1,0,0,1.083,text_option_1,,0,174,174,147,1
5ce7bd64a6f1d500164b6da6,63f3cfca20052e4ae7554ebf,6453cb8a04a75604074135f6,2023-05-04_17h15.00.324,ga_syllabified_check,2022.2.5,Win32,60.0240096,,,,,,,,,,,,,,./stim/p04_syllable_1_lliape_hit.wav,p04,lliape,hit,lia-pe,llia-pe,lli-a-pe, ,-0.4,-0.109259259,1,0,0,0.25,text_option_1,,0,175,175,54,1
5ce7bd64a6f1d500164b6da6,63f3cfca20052e4ae7554ebf,6453cb8a04a75604074135f6,2023-05-04_17h15.00.324,ga_syllabified_check,2022.2.5,Win32,60.0240096,,,,,,,,,,,,,,./stim/p04_syllable_1_lakatuaisto_hit.wav,p04,lakatuaisto,hit,la-ka-kuais-to,la-ka-tuais-to,la-ka-tu-ais-to,la-ka-tua-is-to,-0.387037037,-0.111111111,1,0,0,0.8,text_option_1,,0,176,176,53,1
5ce7bd64a6f1d500164b6da6,63f3cfca20052e4ae7554ebf,6453cb8a04a75604074135f6,2023-05-04_17h15.00.324,ga_syllabified_check,2022.2.5,Win32,60.0240096,,,,,,,,,,,,,,./stim/p03_syllable_1_lakafuaisto_hit.wav,p03,lakafuaisto,hit,la-ka-fuais-to,la-ka-fuais-to,la-ka-fu-ais-to,la-ka-fua-is-to,-0.387037037,-0.115740741,1,0,0,0.867,text_option_1,,0,177,177,11,1
5ce7bd64a6f1d500164b6da6,63f3cfca20052e4ae7554ebf,6453cb8a04a75604074135f6,2023-05-04_17h15.00.324,ga_syllabified_check,2022.2.5,Win32,60.0240096,,,,,,,,,,,,,,./stim/p05_syllable_1_palufauro_hit.wav,p05,palufauro,hit,pa-lu-fau-ro,pa-lu-fau-ro,pa-lu-fa-u-ro, ,-0.376851852,-0.117592593,1,0,0,0.684,text_option_1,,0,178,178,93,1
5ce7bd64a6f1d500164b6da6,63f3cfca20052e4ae7554ebf,6453cb8a04a75604074135f6,2023-05-04_17h15.00.324,ga_syllabified_check,2022.2.5,Win32,60.0240096,,,,,,,,,,,,,,./stim/p05_syllable_1_costonhialo_hit.wav,p05,costoñialo,hit,cos-to-nhia-lo,cos-to-ñia-lo,cos-to-ñi-a-lo, ,-0.359259259,-0.115740741,1,0,0,1.334,text_option_1,,0,179,179,69,1
5ce7bd64a6f1d500164b6da6,63f3cfca20052e4ae7554ebf,6453cb8a04a75604074135f6,2023-05-04_17h15.00.324,ga_syllabified_check,2022.2.5,Win32,60.0240096,,,,,,,,,,,,,,./stim/p07_syllable_1_flauro_hit.wav,p07,flauro,hit,flau-ro,flau-ro,fla-u-ro, ,-0.369444444,-0.106481481,1,0,0,0.916,text_option_1,,0,180,180,141,1
5ce7bd64a6f1d500164b6da6,63f3cfca20052e4ae7554ebf,6453cb8a04a75604074135f6,2023-05-04_17h15.00.324,ga_syllabified_check,2022.2.5,Win32,60.0240096,,,,,,,,,,,,,,./stim/p07_syllable_1_payielo_hit.wav,p07,payielo,hit,pa-yie-lo,pa-yie-lo,pa-yi-e-lo, ,-0.362037037,-0.113888889,1,0,0,0.566,text_option_1,,0,181,181,166,1
5ce7bd64a6f1d500164b6da6,63f3cfca20052e4ae7554ebf,6453cb8a04a75604074135f6,2023-05-04_17h15.00.324,ga_syllabified_check,2022.2.5,Win32,60.0240096,,,,,,,,,,,,,,./stim/p08_syllable_1_flauro_hit.wav,p08,flauro,hit,flau-ro,flau-ro,fla-u-ro, ,-0.366666667,-0.108333333,1,0,0,0.833,text_option_1,,0,182,182,175,1
5ce7bd64a6f1d500164b6da6,63f3cfca20052e4ae7554ebf,6453cb8a04a75604074135f6,2023-05-04_17h15.00.324,ga_syllabified_check,2022.2.5,Win32,60.0240096,,,,,,,,,,,,,,./stim/p07_syllable_1_falutraigo_hit.wav,p07,falutraigo,hit,fa-lu-trai-go,fa-lu-trai-go,fa-lu-tra-i-go, ,-0.348148148,-0.105555556,1,0,0,2.467,text_option_1,,0,183,183,140,1
5ce7bd64a6f1d500164b6da6,63f3cfca20052e4ae7554ebf,6453cb8a04a75604074135f6,2023-05-04_17h15.00.324,ga_syllabified_check,2022.2.5,Win32,60.0240096,,,,,,,,,,,,,,./stim/p07_syllable_1_lakatiaisto_hit.wav,p07,lakatiaisto,hit,la-ka-tiai-sto,la-ka-tiais-to,la-ka-ti-ais-to,la-ka-tia-is-to,-0.005555556,-0.296296296,1,0,0,3.718,text_option_other,la-ku-tiai-sto,0,184,184,154,1
5ce7bd64a6f1d500164b6da6,63f3cfca20052e4ae7554ebf,6453cb8a04a75604074135f6,2023-05-04_17h15.00.324,ga_syllabified_check,2022.2.5,Win32,60.0240096,,,,,,,,,,,,,,./stim/p03_syllable_1_palutrauco_hit.wav,p03,palutrauco,hit,pa-lu-trau-co,pa-lu-trau-co,pa-lu-tra-u-co, ,-0.330555556,-0.096296296,1,0,0,1.333,text_option_1,,0,185,185,29,1
5ce7bd64a6f1d500164b6da6,63f3cfca20052e4ae7554ebf,6453cb8a04a75604074135f6,2023-05-04_17h15.00.324,ga_syllabified_check,2022.2.5,Win32,60.0240096,,,,,,,,,,,,,,./stim/p05_syllable_1_payielo_hit.wav,p05,payielo,hit,pai-yu-we-lo,pa-yie-lo,pa-yi-e-lo, ,0.055555556,-0.302777778,1,0,0,0.916,text_option_other,pa-yue-lo,0,186,186,98,1
5ce7bd64a6f1d500164b6da6,63f3cfca20052e4ae7554ebf,6453cb8a04a75604074135f6,2023-05-04_17h15.00.324,ga_syllabified_check,2022.2.5,Win32,60.0240096,,,,,,,,,,,,,,./stim/p03_syllable_1_rausto_hit.wav,p03,rausto,hit,raus-to,raus-to,ra-us-to, ,-0.381481481,-0.112037037,1,0,0,0.65,text_option_1,,0,187,187,31,1
5ce7bd64a6f1d500164b6da6,63f3cfca20052e4ae7554ebf,6453cb8a04a75604074135f6,2023-05-04_17h15.00.324,ga_syllabified_check,2022.2.5,Win32,60.0240096,,,,,,,,,,,,,,./stim/p04_syllable_1_lakagiaisto_hit.wav,p04,lakagiaisto,hit,la-ka-giais-to,la-ka-giais-to,la-ka-gi-ais-to,la-ka-gia-is-to,-0.344444444,-0.102777778,1,0,0,1.567,text_option_1,,0,188,188,46,1
5ce7bd64a6f1d500164b6da6,63f3cfca20052e4ae7554ebf,6453cb8a04a75604074135f6,2023-05-04_17h15.00.324,ga_syllabified_check,2022.2.5,Win32,60.0240096,,,,,,,,,,,,,,./stim/p07_syllable_1_ruyiola_hit.wav,p07,ruyiola,hit,ru-yio-la,ru-yio-la,ru-yi-o-la, ,-0.371296296,-0.100925926,1,0,0,1.284,text_option_1,,0,189,189,168,1
5ce7bd64a6f1d500164b6da6,63f3cfca20052e4ae7554ebf,6453cb8a04a75604074135f6,2023-05-04_17h15.00.324,ga_syllabified_check,2022.2.5,Win32,60.0240096,,,,,,,,,,,,,,./stim/p06_syllable_1_palutrauco_hit.wav,p06,palutrauco,hit,pa-lu-tra-u-co,pa-lu-trau-co,pa-lu-tra-u-co, ,0.421296296,-0.106481481,1,0,0,2.116,text_option_2,,0,190,190,131,1
5ce7bd64a6f1d500164b6da6,63f3cfca20052e4ae7554ebf,6453cb8a04a75604074135f6,2023-05-04_17h15.00.324,ga_syllabified_check,2022.2.5,Win32,60.0240096,,,,,,,,,,,,,,./stim/p07_syllable_1_lakapuaisto_hit.wav,p07,lakapuaisto,hit,la-ka-puais-to,la-ka-puais-to,la-ka-pu-ais-to,la-ka-pua-is-to,-0.374074074,-0.101851852,1,0,0,2.4,text_option_1,,0,191,191,153,1
5ce7bd64a6f1d500164b6da6,63f3cfca20052e4ae7554ebf,6453cb8a04a75604074135f6,2023-05-04_17h15.00.324,ga_syllabified_check,2022.2.5,Win32,60.0240096,,,,,,,,,,,,,,./stim/p03_syllable_1_ruyiola_hit.wav,p03,ruyiola,hit,ru-yio-la,ru-yio-la,ru-yi-o-la, ,-0.381481481,-0.111111111,1,0,0,0.617,text_option_1,,0,192,192,32,1
5ce7bd64a6f1d500164b6da6,63f3cfca20052e4ae7554ebf,6453cb8a04a75604074135f6,2023-05-04_17h15.00.324,ga_syllabified_check,2022.2.5,Win32,60.0240096,,,,,,,,,,,,,,./stim/p03_syllable_1_palumaisto_hit.wav,p03,palumaisto,hit,pa-lu-mais-to,pa-lu-mais-to,pa-lu-ma-is-to, ,-0.375925926,-0.108333333,1,0,0,1.035,text_option_1,,0,193,193,28,1
5ce7bd64a6f1d500164b6da6,63f3cfca20052e4ae7554ebf,6453cb8a04a75604074135f6,2023-05-04_17h15.00.324,ga_syllabified_check,2022.2.5,Win32,60.0240096,,,,,,,,,,,,,,./stim/p04_syllable_1_lakafuaisto_hit.wav,p04,lakafuaisto,hit,la-ka-fuais-to,la-ka-fuais-to,la-ka-fu-ais-to,la-ka-fua-is-to,-0.375,-0.110185185,1,0,0,0.549,text_option_1,,0,194,194,45,1
5ce7bd64a6f1d500164b6da6,63f3cfca20052e4ae7554ebf,6453cb8a04a75604074135f6,2023-05-04_17h15.00.324,ga_syllabified_check,2022.2.5,Win32,60.0240096,,,,,,,,,,,,,,./stim/p04_syllable_1_manhiala_hit.wav,p04,mañiala,hit,ma-nhia-la,ma-ñia-la,ma-ñi-a-la, ,-0.37962963,-0.109259259,1,0,0,1.2,text_option_1,,0,195,195,55,1
5ce7bd64a6f1d500164b6da6,63f3cfca20052e4ae7554ebf,6453cb8a04a75604074135f6,2023-05-04_17h15.00.324,ga_syllabified_check,2022.2.5,Win32,60.0240096,,,,,,,,,,,,,,./stim/p04_syllable_1_flauro_hit.wav,p04,flauro,hit,flau-ro,flau-ro,fla-u-ro, ,-0.378703704,-0.10462963,1,0,0,0.2,text_option_1,,0,196,196,39,1
5ce7bd64a6f1d500164b6da6,63f3cfca20052e4ae7554ebf,6453cb8a04a75604074135f6,2023-05-04_17h15.00.324,ga_syllabified_check,2022.2.5,Win32,60.0240096,,,,,,,,,,,,,,./stim/p06_syllable_1_palufauro_hit.wav,p06,palufauro,hit,pa-lu-fau-ro,pa-lu-fau-ro,pa-lu-fa-u-ro, ,-0.030555556,-0.3,1,0,0,3.834,text_option_other,pa-lu-fao-u-ro,0,197,197,127,1
5ce7bd64a6f1d500164b6da6,63f3cfca20052e4ae7554ebf,6453cb8a04a75604074135f6,2023-05-04_17h15.00.324,ga_syllabified_check,2022.2.5,Win32,60.0240096,,,,,,,,,,,,,,./stim/p05_syllable_1_falufaisto_hit.wav,p05,falufaisto,hit,fa-lu-fais-to,fa-lu-fais-to,fa-lu-fa-is-to, ,-0.366666667,-0.114814815,1,0,0,1.65,text_option_1,,0,198,198,71,1
5ce7bd64a6f1d500164b6da6,63f3cfca20052e4ae7554ebf,6453cb8a04a75604074135f6,2023-05-04_17h15.00.324,ga_syllabified_check,2022.2.5,Win32,60.0240096,,,,,,,,,,,,,,./stim/p07_syllable_1_chiaba_hit.wav,p07,chiaba,hit,chia-ba,chia-ba,chi-a-ba, ,-0.380555556,-0.100925926,1,0,0,0.684,text_option_1,,0,199,199,136,1
5ce7bd64a6f1d500164b6da6,63f3cfca20052e4ae7554ebf,6453cb8a04a75604074135f6,2023-05-04_17h15.00.324,ga_syllabified_check,2022.2.5,Win32,60.0240096,,,,,,,,,,,,,,./stim/p04_syllable_1_palufauro_hit.wav,p04,palufauro,hit,pa-lu-fau-ro,pa-lu-fau-ro,pa-lu-fa-u-ro, ,-0.388888889,-0.112037037,1,0,0,1.15,text_option_1,,0,200,200,59,1
5ce7bd64a6f1d500164b6da6,63f3cfca20052e4ae7554ebf,6453cb8a04a75604074135f6,2023-05-04_17h15.00.324,ga_syllabified_check,2022.2.5,Win32,60.0240096,,,,,,,,,,,,,,./stim/p06_syllable_1_lakatiaisto_hit.wav,p06,lakatiaisto,hit,la-ka-pia-is-to,la-ka-tiais-to,la-ka-ti-ais-to,la-ka-tia-is-to,-0.017592593,-0.107407407,1,0,0,3.951,text_option_3,,0,201,201,120,1
5ce7bd64a6f1d500164b6da6,63f3cfca20052e4ae7554ebf,6453cb8a04a75604074135f6,2023-05-04_17h15.00.324,ga_syllabified_check,2022.2.5,Win32,60.0240096,,,,,,,,,,,,,,./stim/p06_syllable_1_ruyiola_hit.wav,p06,ruyiola,hit,ru-yi-o-la,ru-yio-la,ru-yi-o-la, ,0.4,-0.114814815,1,0,0,1.517,text_option_2,,0,202,202,134,1
5ce7bd64a6f1d500164b6da6,63f3cfca20052e4ae7554ebf,6453cb8a04a75604074135f6,2023-05-04_17h15.00.324,ga_syllabified_check,2022.2.5,Win32,60.0240096,,,,,,,,,,,,,,./stim/p04_syllable_1_lakabuaisto_hit.wav,p04,lakabuaisto,hit,la-ka-buais-to,la-ka-buais-to,la-ka-bu-ais-to,la-ka-bua-is-to,-0.327777778,-0.110185185,1,0,0,1,text_option_1,,0,203,203,41,1
5ce7bd64a6f1d500164b6da6,63f3cfca20052e4ae7554ebf,6453cb8a04a75604074135f6,2023-05-04_17h15.00.324,ga_syllabified_check,2022.2.5,Win32,60.0240096,,,,,,,,,,,,,,,,,,,,,,,,,,,,,,,,,,
