participant,study,session,date,expName,psychopyVersion,OS,frameRate,mouse_practice.x,mouse_practice.y,mouse_practice.leftButton,mouse_practice.midButton,mouse_practice.rightButton,mouse_practice.time,mouse_practice.clicked_name,textbox_followup_practice.text,trials_practice.thisRepN,trials_practice.thisTrialN,trials_practice.thisN,trials_practice.thisIndex,trials_practice.ran,file_path,id,item,status,response,op1,op2,op3,mouse.x,mouse.y,mouse.leftButton,mouse.midButton,mouse.rightButton,mouse.time,mouse.clicked_name,textbox_followup.text,trials.thisRepN,trials.thisTrialN,trials.thisN,trials.thisIndex,trials.ran
5d1547d9db7eb7001af1a436,63f3cfca20052e4ae7554ebf,6453cd621d3994c973661a52,2023-05-04_17h22.23.235,ga_syllabified_check,2022.2.5,Win32,20.00640205,,,,,,,,,,,,,,,,,,,,,,,,,,,,,,,,,,
5d1547d9db7eb7001af1a436,63f3cfca20052e4ae7554ebf,6453cd621d3994c973661a52,2023-05-04_17h22.23.235,ga_syllabified_check,2022.2.5,Win32,20.00640205,-0.39453125,-0.110677083,1,0,0,8.6944,text_option_1_practice,,0,0,0,0,1,./stim/p03_syllable_1_liamo_hit.wav,p03,liamo,hit,lia-mo,lia-mo,li-a-mo, ,,,,,,,,,,,,,
5d1547d9db7eb7001af1a436,63f3cfca20052e4ae7554ebf,6453cd621d3994c973661a52,2023-05-04_17h22.23.235,ga_syllabified_check,2022.2.5,Win32,20.00640205,-0.39453125,-0.110677083,1,0,0,4.666,text_option_1_practice,,0,1,1,1,1,./stim/p05_syllable_1_matio_hit.wav,p05,matio,hit,ma-tio,ma-tio,ma-ti-o, ,,,,,,,,,,,,,
5d1547d9db7eb7001af1a436,63f3cfca20052e4ae7554ebf,6453cd621d3994c973661a52,2023-05-04_17h22.23.235,ga_syllabified_check,2022.2.5,Win32,20.00640205,-0.41015625,-0.10546875,1,0,0,12.5894,text_option_1_practice,,0,2,2,2,1,./stim/p08_syllable_1_liamo_hit.wav,p08,liamo,hit,ja-mo,lia-mo,li-a-mo, ,,,,,,,,,,,,,
5d1547d9db7eb7001af1a436,63f3cfca20052e4ae7554ebf,6453cd621d3994c973661a52,2023-05-04_17h22.23.235,ga_syllabified_check,2022.2.5,Win32,20.00640205,,,,,,,,,,,,,,,,,,,,,,,,,,,,,,,,,,
5d1547d9db7eb7001af1a436,63f3cfca20052e4ae7554ebf,6453cd621d3994c973661a52,2023-05-04_17h22.23.235,ga_syllabified_check,2022.2.5,Win32,20.00640205,,,,,,,,,,,,,,./stim/p03_syllable_1_paluguato_hit.wav,p03,paluguato,hit,pa-lu-gua,pa-lu-gua-to,pa-lu-gu-a-to, ,-0.42578125,-0.10546875,1,0,0,3.1564,text_option_1,,0,0,0,27,1
5d1547d9db7eb7001af1a436,63f3cfca20052e4ae7554ebf,6453cd621d3994c973661a52,2023-05-04_17h22.23.235,ga_syllabified_check,2022.2.5,Win32,20.00640205,,,,,,,,,,,,,,./stim/p05_syllable_1_nhiape_hit.wav,p05,ñiape,hit,nhia-pe,ñia-pe,ñi-a-pe, ,-0.42578125,-0.10546875,1,0,0,2.1889,text_option_1,,0,1,1,91,1
5d1547d9db7eb7001af1a436,63f3cfca20052e4ae7554ebf,6453cd621d3994c973661a52,2023-05-04_17h22.23.235,ga_syllabified_check,2022.2.5,Win32,20.00640205,,,,,,,,,,,,,,./stim/p04_syllable_1_chiaba_hit.wav,p04,chiaba,hit,chia-ba,chia-ba,chi-a-ba, ,-0.42578125,-0.10546875,1,0,0,1.1046,text_option_1,,0,2,2,34,1
5d1547d9db7eb7001af1a436,63f3cfca20052e4ae7554ebf,6453cd621d3994c973661a52,2023-05-04_17h22.23.235,ga_syllabified_check,2022.2.5,Win32,20.00640205,,,,,,,,,,,,,,./stim/p04_syllable_1_lakafuaisto_hit.wav,p04,lakafuaisto,hit,la-ka-fuais-to,la-ka-fuais-to,la-ka-fu-ais-to,la-ka-fua-is-to,-0.42578125,-0.10546875,1,0,0,1.4626,text_option_1,,0,3,3,45,1
5d1547d9db7eb7001af1a436,63f3cfca20052e4ae7554ebf,6453cd621d3994c973661a52,2023-05-04_17h22.23.235,ga_syllabified_check,2022.2.5,Win32,20.00640205,,,,,,,,,,,,,,./stim/p04_syllable_1_flauro_hit.wav,p04,flauro,hit,flau-ro,flau-ro,fla-u-ro, ,-0.42578125,-0.10546875,1,0,0,0.7014,text_option_1,,0,4,4,39,1
5d1547d9db7eb7001af1a436,63f3cfca20052e4ae7554ebf,6453cd621d3994c973661a52,2023-05-04_17h22.23.235,ga_syllabified_check,2022.2.5,Win32,20.00640205,,,,,,,,,,,,,,./stim/p03_syllable_1_lakafuaisto_hit.wav,p03,lakafuaisto,hit,la-ka-fuais-to,la-ka-fuais-to,la-ka-fu-ais-to,la-ka-fua-is-to,-0.42578125,-0.10546875,1,0,0,3.472,text_option_1,,0,5,5,11,1
5d1547d9db7eb7001af1a436,63f3cfca20052e4ae7554ebf,6453cd621d3994c973661a52,2023-05-04_17h22.23.235,ga_syllabified_check,2022.2.5,Win32,20.00640205,,,,,,,,,,,,,,./stim/p08_syllable_1_lakaduaisto_hit.wav,p08,lakaduaisto,hit,la-ka-du-ais-to,la-ka-duais-to,la-ka-du-ais-to,la-ka-dua-is-to,0.455729167,-0.115885417,1,0,0,3.5734,text_option_2,,0,6,6,179,1
5d1547d9db7eb7001af1a436,63f3cfca20052e4ae7554ebf,6453cd621d3994c973661a52,2023-05-04_17h22.23.235,ga_syllabified_check,2022.2.5,Win32,20.00640205,,,,,,,,,,,,,,./stim/p06_syllable_1_lakagiaisto_hit.wav,p06,lakagiaisto,hit,la-ka-gia-is-to,la-ka-giais-to,la-ka-gi-ais-to,la-ka-gia-is-to,0.03515625,-0.122395833,1,0,0,4.6888,text_option_3,,0,7,7,114,1
5d1547d9db7eb7001af1a436,63f3cfca20052e4ae7554ebf,6453cd621d3994c973661a52,2023-05-04_17h22.23.235,ga_syllabified_check,2022.2.5,Win32,20.00640205,,,,,,,,,,,,,,./stim/p05_syllable_1_lakafuaisto_hit.wav,p05,lakafuaisto,hit,la-ka-fais-to,la-ka-fuais-to,la-ka-fu-ais-to,la-ka-fua-is-to,-0.013020833,-0.298177083,1,0,0,2.987,text_option_other,laka-fais-to,0,8,8,79,1
5d1547d9db7eb7001af1a436,63f3cfca20052e4ae7554ebf,6453cd621d3994c973661a52,2023-05-04_17h22.23.235,ga_syllabified_check,2022.2.5,Win32,20.00640205,,,,,,,,,,,,,,./stim/p04_syllable_1_lakabuaisto_hit.wav,p04,lakabuaisto,hit,la-ka-buais-to,la-ka-buais-to,la-ka-bu-ais-to,la-ka-bua-is-to,-0.40625,-0.096354167,1,0,0,4.9284,text_option_1,,0,9,9,41,1
5d1547d9db7eb7001af1a436,63f3cfca20052e4ae7554ebf,6453cd621d3994c973661a52,2023-05-04_17h22.23.235,ga_syllabified_check,2022.2.5,Win32,20.00640205,,,,,,,,,,,,,,./stim/p06_syllable_1_lakakiaisto_hit.wav,p06,lakakiaisto,hit,la-ka-kia-is-to,la-ka-kiais-to,la-ka-ki-ais-to,la-ka-kia-is-to,0.036458333,-0.1171875,1,0,0,6.2815,text_option_3,,0,10,10,116,1
5d1547d9db7eb7001af1a436,63f3cfca20052e4ae7554ebf,6453cd621d3994c973661a52,2023-05-04_17h22.23.235,ga_syllabified_check,2022.2.5,Win32,20.00640205,,,,,,,,,,,,,,./stim/p05_syllable_1_lliape_hit.wav,p05,lliape,hit,liai-pe,llia-pe,lli-a-pe, ,0.0078125,-0.30078125,1,0,0,3.7982,text_option_other,lliai-pe,0,11,11,88,1
5d1547d9db7eb7001af1a436,63f3cfca20052e4ae7554ebf,6453cd621d3994c973661a52,2023-05-04_17h22.23.235,ga_syllabified_check,2022.2.5,Win32,20.00640205,,,,,,,,,,,,,,./stim/p04_syllable_1_ruyiola_hit.wav,p04,ruyiola,hit,ru-yio-la,ru-yio-la,ru-yi-o-la, ,-0.37109375,-0.115885417,1,0,0,1.5323,text_option_1,,0,12,12,66,1
5d1547d9db7eb7001af1a436,63f3cfca20052e4ae7554ebf,6453cd621d3994c973661a52,2023-05-04_17h22.23.235,ga_syllabified_check,2022.2.5,Win32,20.00640205,,,,,,,,,,,,,,./stim/p06_syllable_1_lakaguaisto_hit.wav,p06,lakaguaisto,hit,la-ka-gu-a-is,la-ka-guais-to,la-ka-gu-ais-to,la-ka-gua-is-to,0.044270833,-0.3046875,1,0,0,6.2458,text_option_other,la-ka-gu-a-is-to,0,13,13,115,1
5d1547d9db7eb7001af1a436,63f3cfca20052e4ae7554ebf,6453cd621d3994c973661a52,2023-05-04_17h22.23.235,ga_syllabified_check,2022.2.5,Win32,20.00640205,,,,,,,,,,,,,,./stim/p08_syllable_1_lakafiaisto_hit.wav,p08,lakafiaisto,hit,la-ka-fi-as-to,la-ka-fiais-to,la-ka-fi-ais-to,la-ka-fia-is-to,0.055989583,-0.295572917,1,0,0,7.5593,text_option_other,la-ka-fias-to,0,14,14,180,1
5d1547d9db7eb7001af1a436,63f3cfca20052e4ae7554ebf,6453cd621d3994c973661a52,2023-05-04_17h22.23.235,ga_syllabified_check,2022.2.5,Win32,20.00640205,,,,,,,,,,,,,,./stim/p05_syllable_1_palufauto_hit.wav,p05,palufauto,hit,pa-lu-fau-to,pa-lu-fau-to,pa-lu-fa-u-to, ,-0.38671875,-0.114583333,1,0,0,2.0075,text_option_1,,0,15,15,94,1
5d1547d9db7eb7001af1a436,63f3cfca20052e4ae7554ebf,6453cd621d3994c973661a52,2023-05-04_17h22.23.235,ga_syllabified_check,2022.2.5,Win32,20.00640205,,,,,,,,,,,,,,./stim/p03_syllable_1_lakakiaisto_hit.wav,p03,lakakiaisto,hit,la-ka-kiais-to,la-ka-kiais-to,la-ka-ki-ais-to,la-ka-kia-is-to,-0.450520833,-0.09375,1,0,0,2.1402,text_option_1,,0,16,16,14,1
5d1547d9db7eb7001af1a436,63f3cfca20052e4ae7554ebf,6453cd621d3994c973661a52,2023-05-04_17h22.23.235,ga_syllabified_check,2022.2.5,Win32,20.00640205,,,,,,,,,,,,,,./stim/p04_syllable_1_nhiape_hit.wav,p04,ñiape,hit,nhia-pe,ñia-pe,ñi-a-pe, ,-0.38671875,-0.100260417,1,0,0,1.9952,text_option_1,,0,17,17,57,1
5d1547d9db7eb7001af1a436,63f3cfca20052e4ae7554ebf,6453cd621d3994c973661a52,2023-05-04_17h22.23.235,ga_syllabified_check,2022.2.5,Win32,20.00640205,,,,,,,,,,,,,,./stim/p05_syllable_1_lakabuaisto_hit.wav,p05,lakabuaisto,hit,la-ka-buais-to,la-ka-buais-to,la-ka-bu-ais-to,la-ka-bua-is-to,-0.34765625,-0.108072917,1,0,0,1.8548,text_option_1,,0,18,18,75,1
5d1547d9db7eb7001af1a436,63f3cfca20052e4ae7554ebf,6453cd621d3994c973661a52,2023-05-04_17h22.23.235,ga_syllabified_check,2022.2.5,Win32,20.00640205,,,,,,,,,,,,,,./stim/p07_syllable_1_palufauto_hit.wav,p07,palufauto,hit,pa-lu-fau-to,pa-lu-fau-to,pa-lu-fa-u-to, ,-0.373697917,-0.088541667,1,0,0,2.0698,text_option_1,,0,19,19,162,1
5d1547d9db7eb7001af1a436,63f3cfca20052e4ae7554ebf,6453cd621d3994c973661a52,2023-05-04_17h22.23.235,ga_syllabified_check,2022.2.5,Win32,20.00640205,,,,,,,,,,,,,,./stim/p03_syllable_1_lakabuaisto_hit.wav,p03,lakabuaisto,hit,la-ka-buais-to,la-ka-buais-to,la-ka-bu-ais-to,la-ka-bua-is-to,-0.33984375,-0.104166667,1,0,0,1.9021,text_option_1,,0,20,20,7,1
5d1547d9db7eb7001af1a436,63f3cfca20052e4ae7554ebf,6453cd621d3994c973661a52,2023-05-04_17h22.23.235,ga_syllabified_check,2022.2.5,Win32,20.00640205,,,,,,,,,,,,,,./stim/p03_syllable_1_ruyiola_hit.wav,p03,ruyiola,hit,ru-yio-la,ru-yio-la,ru-yi-o-la, ,-0.41015625,-0.11328125,1,0,0,0.9443,text_option_1,,0,21,21,32,1
5d1547d9db7eb7001af1a436,63f3cfca20052e4ae7554ebf,6453cd621d3994c973661a52,2023-05-04_17h22.23.235,ga_syllabified_check,2022.2.5,Win32,20.00640205,,,,,,,,,,,,,,./stim/p08_syllable_1_nhiape_hit.wav,p08,ñiape,hit,ni-a-pe,ñia-pe,ñi-a-pe, ,-0.026041667,-0.303385417,1,0,0,2.3989,text_option_other,ni-a-pe,0,22,22,193,1
5d1547d9db7eb7001af1a436,63f3cfca20052e4ae7554ebf,6453cd621d3994c973661a52,2023-05-04_17h22.23.235,ga_syllabified_check,2022.2.5,Win32,20.00640205,,,,,,,,,,,,,,./stim/p08_syllable_1_palufauro_hit.wav,p08,palufauro,hit,pa-lu-fau-ro,pa-lu-fau-ro,pa-lu-fa-u-ro, ,-0.397135417,-0.110677083,1,0,0,3.4554,text_option_1,,0,23,23,195,1
5d1547d9db7eb7001af1a436,63f3cfca20052e4ae7554ebf,6453cd621d3994c973661a52,2023-05-04_17h22.23.235,ga_syllabified_check,2022.2.5,Win32,20.00640205,,,,,,,,,,,,,,./stim/p06_syllable_1_pachialo_hit.wav,p06,pachialo,hit,pa-shi-a-lo,pa-chia-lo,pa-chi-a-lo, ,0.408854167,-0.100260417,1,0,0,2.2254,text_option_2,,0,24,24,126,1
5d1547d9db7eb7001af1a436,63f3cfca20052e4ae7554ebf,6453cd621d3994c973661a52,2023-05-04_17h22.23.235,ga_syllabified_check,2022.2.5,Win32,20.00640205,,,,,,,,,,,,,,./stim/p06_syllable_1_rausto_hit.wav,p06,rausto,hit,ra-us-to,raus-to,ra-us-to, ,0.376302083,-0.111979167,1,0,0,2.1004,text_option_2,,0,25,25,133,1
5d1547d9db7eb7001af1a436,63f3cfca20052e4ae7554ebf,6453cd621d3994c973661a52,2023-05-04_17h22.23.235,ga_syllabified_check,2022.2.5,Win32,20.00640205,,,,,,,,,,,,,,./stim/p06_syllable_1_falutraigo_hit.wav,p06,falutraigo,hit,fa-lu-tra-i-go,fa-lu-trai-go,fa-lu-tra-i-go, ,0.360677083,-0.106770833,1,0,0,4.0913,text_option_2,,0,26,26,106,1
5d1547d9db7eb7001af1a436,63f3cfca20052e4ae7554ebf,6453cd621d3994c973661a52,2023-05-04_17h22.23.235,ga_syllabified_check,2022.2.5,Win32,20.00640205,,,,,,,,,,,,,,./stim/p05_syllable_1_ruyiola_hit.wav,p05,ruyiola,hit,ru-yio-la,ru-yio-la,ru-yi-o-la, ,-0.432291667,-0.096354167,1,0,0,2.0073,text_option_1,,0,27,27,100,1
5d1547d9db7eb7001af1a436,63f3cfca20052e4ae7554ebf,6453cd621d3994c973661a52,2023-05-04_17h22.23.235,ga_syllabified_check,2022.2.5,Win32,20.00640205,,,,,,,,,,,,,,./stim/p07_syllable_1_palutrauco_hit.wav,p07,palutrauco,hit,pa-lu-trau-co,pa-lu-trau-co,pa-lu-tra-u-co, ,-0.42578125,-0.109375,1,0,0,1.2979,text_option_1,,0,28,28,165,1
5d1547d9db7eb7001af1a436,63f3cfca20052e4ae7554ebf,6453cd621d3994c973661a52,2023-05-04_17h22.23.235,ga_syllabified_check,2022.2.5,Win32,20.00640205,,,,,,,,,,,,,,./stim/p03_syllable_1_flauro_hit.wav,p03,flauro,hit,flau-ro,flau-ro,fla-u-ro, ,-0.37890625,-0.109375,1,0,0,1.534,text_option_1,,0,29,29,5,1
5d1547d9db7eb7001af1a436,63f3cfca20052e4ae7554ebf,6453cd621d3994c973661a52,2023-05-04_17h22.23.235,ga_syllabified_check,2022.2.5,Win32,20.00640205,,,,,,,,,,,,,,./stim/p06_syllable_1_lakaduaisto_hit.wav,p06,lakaduaisto,hit,la-ka-du-a-is,la-ka-duais-to,la-ka-du-ais-to,la-ka-dua-is-to,-0.020833333,-0.287760417,1,0,0,5.8882,text_option_other,la-ka-du-a-is-to,0,30,30,111,1
5d1547d9db7eb7001af1a436,63f3cfca20052e4ae7554ebf,6453cd621d3994c973661a52,2023-05-04_17h22.23.235,ga_syllabified_check,2022.2.5,Win32,20.00640205,,,,,,,,,,,,,,./stim/p07_syllable_1_lakadiaisto_hit.wav,p07,lakadiaisto,hit,la-ka-dia-is-to,la-ka-diais-to,la-ka-di-ais-to,la-ka-dia-is-to,0.01171875,-0.102864583,1,0,0,2.512,text_option_3,,0,31,31,144,1
5d1547d9db7eb7001af1a436,63f3cfca20052e4ae7554ebf,6453cd621d3994c973661a52,2023-05-04_17h22.23.235,ga_syllabified_check,2022.2.5,Win32,20.00640205,,,,,,,,,,,,,,./stim/p08_syllable_1_lakapuaisto_hit.wav,p08,lakapuaisto,hit,la-ka-pu-as-to,la-ka-puais-to,la-ka-pu-ais-to,la-ka-pua-is-to,0.026041667,-0.3046875,1,0,0,3.6672,text_option_other,la-ka-puas-to,0,32,32,187,1
5d1547d9db7eb7001af1a436,63f3cfca20052e4ae7554ebf,6453cd621d3994c973661a52,2023-05-04_17h22.23.235,ga_syllabified_check,2022.2.5,Win32,20.00640205,,,,,,,,,,,,,,./stim/p07_syllable_1_ruyiola_hit.wav,p07,ruyiola,hit,ru-yio-la,ru-yio-la,ru-yi-o-la, ,-0.412760417,-0.11328125,1,0,0,1.2532,text_option_1,,0,33,33,168,1
5d1547d9db7eb7001af1a436,63f3cfca20052e4ae7554ebf,6453cd621d3994c973661a52,2023-05-04_17h22.23.235,ga_syllabified_check,2022.2.5,Win32,20.00640205,,,,,,,,,,,,,,./stim/p03_syllable_1_mebochiana_hit.wav,p03,mebochiana,hit,me-bo-chia-na,me-bo-chia-na,me-bo-chi-a-na, ,-0.341145833,-0.095052083,1,0,0,4.9602,text_option_1,,0,34,34,22,1
5d1547d9db7eb7001af1a436,63f3cfca20052e4ae7554ebf,6453cd621d3994c973661a52,2023-05-04_17h22.23.235,ga_syllabified_check,2022.2.5,Win32,20.00640205,,,,,,,,,,,,,,./stim/p03_syllable_1_pachialo_hit.wav,p03,pachialo,hit,pa-chia-lo,pa-chia-lo,pa-chi-a-lo, ,-0.388020833,-0.109375,1,0,0,2.8235,text_option_1,,0,35,35,24,1
5d1547d9db7eb7001af1a436,63f3cfca20052e4ae7554ebf,6453cd621d3994c973661a52,2023-05-04_17h22.23.235,ga_syllabified_check,2022.2.5,Win32,20.00640205,,,,,,,,,,,,,,./stim/p04_syllable_1_lakabiaisto_hit.wav,p04,lakabiaisto,hit,la-ka-biais-to,la-ka-biais-to,la-ka-bi-ais-to,la-ka-bia-is-to,-0.359375,-0.0859375,1,0,0,1.2358,text_option_1,,0,36,36,40,1
5d1547d9db7eb7001af1a436,63f3cfca20052e4ae7554ebf,6453cd621d3994c973661a52,2023-05-04_17h22.23.235,ga_syllabified_check,2022.2.5,Win32,20.00640205,,,,,,,,,,,,,,./stim/p07_syllable_1_palumaisto_hit.wav,p07,palumaisto,hit,pa-lu-mais-to,pa-lu-mais-to,pa-lu-ma-is-to, ,-0.346354167,-0.104166667,1,0,0,2.9882,text_option_1,,0,37,37,164,1
5d1547d9db7eb7001af1a436,63f3cfca20052e4ae7554ebf,6453cd621d3994c973661a52,2023-05-04_17h22.23.235,ga_syllabified_check,2022.2.5,Win32,20.00640205,,,,,,,,,,,,,,./stim/p08_syllable_1_lakadiaisto_hit.wav,p08,lakadiaisto,hit,la-ka-di-jas-to,la-ka-diais-to,la-ka-di-ais-to,la-ka-dia-is-to,-0.018229167,-0.3046875,1,0,0,3.6942,text_option_other,la-ka-dias-to,0,38,38,178,1
5d1547d9db7eb7001af1a436,63f3cfca20052e4ae7554ebf,6453cd621d3994c973661a52,2023-05-04_17h22.23.235,ga_syllabified_check,2022.2.5,Win32,20.00640205,,,,,,,,,,,,,,./stim/p05_syllable_1_costonhialo_hit.wav,p05,costoñialo,hit,cos-to-nhia-lo,cos-to-ñia-lo,cos-to-ñi-a-lo, ,-0.334635417,-0.115885417,1,0,0,2.0688,text_option_1,,0,39,39,69,1
5d1547d9db7eb7001af1a436,63f3cfca20052e4ae7554ebf,6453cd621d3994c973661a52,2023-05-04_17h22.23.235,ga_syllabified_check,2022.2.5,Win32,20.00640205,,,,,,,,,,,,,,./stim/p07_syllable_1_manhiala_hit.wav,p07,mañiala,hit,ma-nhia-la,ma-ñia-la,ma-ñi-a-la, ,-0.3671875,-0.106770833,1,0,0,2.2402,text_option_1,,0,40,40,157,1
5d1547d9db7eb7001af1a436,63f3cfca20052e4ae7554ebf,6453cd621d3994c973661a52,2023-05-04_17h22.23.235,ga_syllabified_check,2022.2.5,Win32,20.00640205,,,,,,,,,,,,,,./stim/p08_syllable_1_ruyiola_hit.wav,p08,ruyiola,hit,ru-yio-la,ru-yio-la,ru-yi-o-la, ,-0.3671875,-0.106770833,1,0,0,1.1392,text_option_1,,0,41,41,202,1
5d1547d9db7eb7001af1a436,63f3cfca20052e4ae7554ebf,6453cd621d3994c973661a52,2023-05-04_17h22.23.235,ga_syllabified_check,2022.2.5,Win32,20.00640205,,,,,,,,,,,,,,./stim/p05_syllable_1_lakapiaisto_hit.wav,p05,lakapiaisto,hit,la-ka-pais-to,la-ka-piais-to,la-ka-pi-ais-to,la-ka-pia-is-to,0.07421875,-0.302083333,1,0,0,2.7166,text_option_other,la-ka-pais-to,0,42,42,84,1
5d1547d9db7eb7001af1a436,63f3cfca20052e4ae7554ebf,6453cd621d3994c973661a52,2023-05-04_17h22.23.235,ga_syllabified_check,2022.2.5,Win32,20.00640205,,,,,,,,,,,,,,./stim/p06_syllable_1_lakatuaisto_hit.wav,p06,lakatuaisto,hit,la-ka-tu-a-is,la-ka-tuais-to,la-ka-tu-ais-to,la-ka-tua-is-to,0.0234375,-0.29296875,1,0,0,4.1738,text_option_other,la-ka-tu-a-is-to,0,43,43,121,1
5d1547d9db7eb7001af1a436,63f3cfca20052e4ae7554ebf,6453cd621d3994c973661a52,2023-05-04_17h22.23.235,ga_syllabified_check,2022.2.5,Win32,20.00640205,,,,,,,,,,,,,,./stim/p08_syllable_1_lakakuaisto_hit.wav,p08,lakakuaisto,hit,la-ka-ku-ais-to,la-ka-kuais-to,la-ka-ku-ais-to,la-ka-kua-is-to,0.423177083,-0.109375,1,0,0,5.3225,text_option_2,,0,44,44,185,1
5d1547d9db7eb7001af1a436,63f3cfca20052e4ae7554ebf,6453cd621d3994c973661a52,2023-05-04_17h22.23.235,ga_syllabified_check,2022.2.5,Win32,20.00640205,,,,,,,,,,,,,,./stim/p05_syllable_1_lakatuaisto_hit.wav,p05,lakatuaisto,hit,la-ka-tais-to,la-ka-tuais-to,la-ka-tu-ais-to,la-ka-tua-is-to,0.04296875,-0.30859375,1,0,0,1.7766,text_option_other,la-ka-tais-to,0,45,45,87,1
5d1547d9db7eb7001af1a436,63f3cfca20052e4ae7554ebf,6453cd621d3994c973661a52,2023-05-04_17h22.23.235,ga_syllabified_check,2022.2.5,Win32,20.00640205,,,,,,,,,,,,,,./stim/p08_syllable_1_palumaisto_hit.wav,p08,palumaisto,hit,pa-lu-mais-to,pa-lu-mais-to,pa-lu-ma-is-to, ,-0.3203125,-0.102864583,1,0,0,2.2049,text_option_1,,0,46,46,198,1
5d1547d9db7eb7001af1a436,63f3cfca20052e4ae7554ebf,6453cd621d3994c973661a52,2023-05-04_17h22.23.235,ga_syllabified_check,2022.2.5,Win32,20.00640205,,,,,,,,,,,,,,./stim/p04_syllable_1_palufauro_hit.wav,p04,palufauro,hit,pa-lu-fau-ro,pa-lu-fau-ro,pa-lu-fa-u-ro, ,-0.3359375,-0.114583333,1,0,0,1.8228,text_option_1,,0,47,47,59,1
5d1547d9db7eb7001af1a436,63f3cfca20052e4ae7554ebf,6453cd621d3994c973661a52,2023-05-04_17h22.23.235,ga_syllabified_check,2022.2.5,Win32,20.00640205,,,,,,,,,,,,,,./stim/p07_syllable_1_lakakiaisto_hit.wav,p07,lakakiaisto,hit,la-ka-kais-to,la-ka-kiais-to,la-ka-ki-ais-to,la-ka-kia-is-to,0.006510417,-0.30078125,1,0,0,2.5303,text_option_other,la-ka-kais-to,0,48,48,150,1
5d1547d9db7eb7001af1a436,63f3cfca20052e4ae7554ebf,6453cd621d3994c973661a52,2023-05-04_17h22.23.235,ga_syllabified_check,2022.2.5,Win32,20.00640205,,,,,,,,,,,,,,./stim/p07_syllable_1_lliape_hit.wav,p07,lliape,hit,lliai-pe,llia-pe,lli-a-pe, ,-0.00390625,-0.3046875,1,0,0,1.3667,text_option_other,lliai-pe,0,49,49,156,1
5d1547d9db7eb7001af1a436,63f3cfca20052e4ae7554ebf,6453cd621d3994c973661a52,2023-05-04_17h22.23.235,ga_syllabified_check,2022.2.5,Win32,20.00640205,,,,,,,,,,,,,,./stim/p07_syllable_1_falutraigo_hit.wav,p07,falutraigo,hit,fa-lu-trai-go,fa-lu-trai-go,fa-lu-tra-i-go, ,-0.361979167,-0.087239583,1,0,0,2.8529,text_option_1,,0,50,50,140,1
5d1547d9db7eb7001af1a436,63f3cfca20052e4ae7554ebf,6453cd621d3994c973661a52,2023-05-04_17h22.23.235,ga_syllabified_check,2022.2.5,Win32,20.00640205,,,,,,,,,,,,,,./stim/p03_syllable_1_falufaisto_hit.wav,p03,falufaisto,hit,fa-lu-fais-to,fa-lu-fais-to,fa-lu-fa-is-to, ,-0.34765625,-0.111979167,1,0,0,2.2037,text_option_1,,0,51,51,3,1
5d1547d9db7eb7001af1a436,63f3cfca20052e4ae7554ebf,6453cd621d3994c973661a52,2023-05-04_17h22.23.235,ga_syllabified_check,2022.2.5,Win32,20.00640205,,,,,,,,,,,,,,./stim/p08_syllable_1_faluduako_hit.wav,p08,faluduako,hit,fa-lu-duai-ko,fa-lu-dua-ko,fa-lu-du-a-ko, ,0.0625,-0.295572917,1,0,0,2.929,text_option_other,fa-lu-duai-ko,0,52,52,172,1
5d1547d9db7eb7001af1a436,63f3cfca20052e4ae7554ebf,6453cd621d3994c973661a52,2023-05-04_17h22.23.235,ga_syllabified_check,2022.2.5,Win32,20.00640205,,,,,,,,,,,,,,./stim/p08_syllable_1_chiaba_hit.wav,p08,chiaba,hit,chi-a-ba,chia-ba,chi-a-ba, ,0.404947917,-0.087239583,1,0,0,1.4783,text_option_2,,0,53,53,170,1
5d1547d9db7eb7001af1a436,63f3cfca20052e4ae7554ebf,6453cd621d3994c973661a52,2023-05-04_17h22.23.235,ga_syllabified_check,2022.2.5,Win32,20.00640205,,,,,,,,,,,,,,./stim/p05_syllable_1_lakakuaisto_hit.wav,p05,lakakuaisto,hit,la-ka-kais-to,la-ka-kuais-to,la-ka-ku-ais-to,la-ka-kua-is-to,-0.010416667,-0.309895833,1,0,0,1.9961,text_option_other,la-ka-kais-to,0,54,54,83,1
5d1547d9db7eb7001af1a436,63f3cfca20052e4ae7554ebf,6453cd621d3994c973661a52,2023-05-04_17h22.23.235,ga_syllabified_check,2022.2.5,Win32,20.00640205,,,,,,,,,,,,,,./stim/p05_syllable_1_lakadiaisto_hit.wav,p05,lakadiaisto,hit,la-ka-di-ais-to,la-ka-diais-to,la-ka-di-ais-to,la-ka-dia-is-to,-0.358072917,-0.087239583,1,0,0,1.8196,text_option_1,,0,55,55,76,1
5d1547d9db7eb7001af1a436,63f3cfca20052e4ae7554ebf,6453cd621d3994c973661a52,2023-05-04_17h22.23.235,ga_syllabified_check,2022.2.5,Win32,20.00640205,,,,,,,,,,,,,,./stim/p06_syllable_1_lakafuaisto_hit.wav,p06,lakafuaisto,hit,la-ka-fu-a-is,la-ka-fuais-to,la-ka-fu-ais-to,la-ka-fua-is-to,0.481770833,-0.10546875,1,0,0,4.5347,text_option_2,,0,56,56,113,1
5d1547d9db7eb7001af1a436,63f3cfca20052e4ae7554ebf,6453cd621d3994c973661a52,2023-05-04_17h22.23.235,ga_syllabified_check,2022.2.5,Win32,20.00640205,,,,,,,,,,,,,,./stim/p08_syllable_1_paluguato_hit.wav,p08,paluguato,hit,pa-lu-gua-to,pa-lu-gua-to,pa-lu-gu-a-to, ,-0.44140625,-0.114583333,1,0,0,2.2813,text_option_1,,0,57,57,197,1
5d1547d9db7eb7001af1a436,63f3cfca20052e4ae7554ebf,6453cd621d3994c973661a52,2023-05-04_17h22.23.235,ga_syllabified_check,2022.2.5,Win32,20.00640205,,,,,,,,,,,,,,./stim/p04_syllable_1_palumaisto_hit.wav,p04,palumaisto,hit,pa-lu-mais-to,pa-lu-mais-to,pa-lu-ma-is-to, ,-0.365885417,-0.102864583,1,0,0,1.2996,text_option_1,,0,58,58,62,1
5d1547d9db7eb7001af1a436,63f3cfca20052e4ae7554ebf,6453cd621d3994c973661a52,2023-05-04_17h22.23.235,ga_syllabified_check,2022.2.5,Win32,20.00640205,,,,,,,,,,,,,,./stim/p06_syllable_1_lakakuaisto_hit.wav,p06,lakakuaisto,hit,la-ka-ku-a-is,la-ka-kuais-to,la-ka-ku-ais-to,la-ka-kua-is-to,0.022135417,-0.295572917,1,0,0,4.363,text_option_other,la-ka-ku-a-is-to,0,59,59,117,1
5d1547d9db7eb7001af1a436,63f3cfca20052e4ae7554ebf,6453cd621d3994c973661a52,2023-05-04_17h22.23.235,ga_syllabified_check,2022.2.5,Win32,20.00640205,,,,,,,,,,,,,,./stim/p04_syllable_1_lakapuaisto_hit.wav,p04,lakapuaisto,hit,la-ka-puais-to,la-ka-puais-to,la-ka-pu-ais-to,la-ka-pua-is-to,-0.39453125,-0.0859375,1,0,0,2.9303,text_option_1,,0,60,60,51,1
5d1547d9db7eb7001af1a436,63f3cfca20052e4ae7554ebf,6453cd621d3994c973661a52,2023-05-04_17h22.23.235,ga_syllabified_check,2022.2.5,Win32,20.00640205,,,,,,,,,,,,,,./stim/p05_syllable_1_palutrauco_hit.wav,p05,palutrauco,hit,pa-lu-trai-co,pa-lu-trau-co,pa-lu-tra-u-co, ,0.087239583,-0.290364583,1,0,0,1.8212,text_option_other,palu-trai-ko,0,61,61,97,1
5d1547d9db7eb7001af1a436,63f3cfca20052e4ae7554ebf,6453cd621d3994c973661a52,2023-05-04_17h22.23.235,ga_syllabified_check,2022.2.5,Win32,20.00640205,,,,,,,,,,,,,,./stim/p06_syllable_1_ruyiola_hit.wav,p06,ruyiola,hit,ru-yi-o-la,ru-yio-la,ru-yi-o-la, ,0.395833333,-0.106770833,1,0,0,1.8024,text_option_2,,0,62,62,134,1
5d1547d9db7eb7001af1a436,63f3cfca20052e4ae7554ebf,6453cd621d3994c973661a52,2023-05-04_17h22.23.235,ga_syllabified_check,2022.2.5,Win32,20.00640205,,,,,,,,,,,,,,./stim/p03_syllable_1_manhiala_hit.wav,p03,mañiala,hit,ma-nhia-la,ma-ñia-la,ma-ñi-a-la, ,-0.35546875,-0.109375,1,0,0,0.9947,text_option_1,,0,63,63,21,1
5d1547d9db7eb7001af1a436,63f3cfca20052e4ae7554ebf,6453cd621d3994c973661a52,2023-05-04_17h22.23.235,ga_syllabified_check,2022.2.5,Win32,20.00640205,,,,,,,,,,,,,,./stim/p05_syllable_1_payielo_hit.wav,p05,payielo,hit,pai-yu-we-lo,pa-yie-lo,pa-yi-e-lo, ,-0.006510417,-0.29296875,1,0,0,1.1334,text_option_other,payue-lo,0,64,64,98,1
5d1547d9db7eb7001af1a436,63f3cfca20052e4ae7554ebf,6453cd621d3994c973661a52,2023-05-04_17h22.23.235,ga_syllabified_check,2022.2.5,Win32,20.00640205,,,,,,,,,,,,,,./stim/p04_syllable_1_pachialo_hit.wav,p04,pachialo,hit,pa-chia-lo,pa-chia-lo,pa-chi-a-lo, ,-0.352864583,-0.110677083,1,0,0,0.9925,text_option_1,,0,65,65,58,1
5d1547d9db7eb7001af1a436,63f3cfca20052e4ae7554ebf,6453cd621d3994c973661a52,2023-05-04_17h22.23.235,ga_syllabified_check,2022.2.5,Win32,20.00640205,,,,,,,,,,,,,,./stim/p08_syllable_1_flauro_hit.wav,p08,flauro,hit,flau-ro,flau-ro,fla-u-ro, ,-0.369791667,-0.09375,1,0,0,1.5166,text_option_1,,0,66,66,175,1
5d1547d9db7eb7001af1a436,63f3cfca20052e4ae7554ebf,6453cd621d3994c973661a52,2023-05-04_17h22.23.235,ga_syllabified_check,2022.2.5,Win32,20.00640205,,,,,,,,,,,,,,./stim/p04_syllable_1_manhiala_hit.wav,p04,mañiala,hit,ma-nhia-la,ma-ñia-la,ma-ñi-a-la, ,-0.3671875,-0.088541667,1,0,0,0.8389,text_option_1,,0,67,67,55,1
5d1547d9db7eb7001af1a436,63f3cfca20052e4ae7554ebf,6453cd621d3994c973661a52,2023-05-04_17h22.23.235,ga_syllabified_check,2022.2.5,Win32,20.00640205,,,,,,,,,,,,,,./stim/p07_syllable_1_faluduako_hit.wav,p07,faluduako,hit,fa-lu-dua-ko,fa-lu-dua-ko,fa-lu-du-a-ko, ,-0.326822917,-0.104166667,1,0,0,2.5241,text_option_1,,0,68,68,138,1
5d1547d9db7eb7001af1a436,63f3cfca20052e4ae7554ebf,6453cd621d3994c973661a52,2023-05-04_17h22.23.235,ga_syllabified_check,2022.2.5,Win32,20.00640205,,,,,,,,,,,,,,./stim/p05_syllable_1_tuliafo_hit.wav,p05,tuliafo,hit,tu-lai-fo,tu-lia-fo,tu-li-a-fo, ,-0.009114583,-0.291666667,1,0,0,1.3655,text_option_other,tulai-fo,0,69,69,101,1
5d1547d9db7eb7001af1a436,63f3cfca20052e4ae7554ebf,6453cd621d3994c973661a52,2023-05-04_17h22.23.235,ga_syllabified_check,2022.2.5,Win32,20.00640205,,,,,,,,,,,,,,./stim/p07_syllable_1_lakapuaisto_hit.wav,p07,lakapuaisto,hit,la-ka-puais-to,la-ka-puais-to,la-ka-pu-ais-to,la-ka-pua-is-to,-0.333333333,-0.087239583,1,0,0,2.8194,text_option_1,,0,70,70,153,1
5d1547d9db7eb7001af1a436,63f3cfca20052e4ae7554ebf,6453cd621d3994c973661a52,2023-05-04_17h22.23.235,ga_syllabified_check,2022.2.5,Win32,20.00640205,,,,,,,,,,,,,,./stim/p08_syllable_1_costonhialo_hit.wav,p08,costoñialo,hit,cos-to-nhia-lo,cos-to-ñia-lo,cos-to-ñi-a-lo, ,-0.35546875,-0.091145833,1,0,0,6.1273,text_option_1,,0,71,71,171,1
5d1547d9db7eb7001af1a436,63f3cfca20052e4ae7554ebf,6453cd621d3994c973661a52,2023-05-04_17h22.23.235,ga_syllabified_check,2022.2.5,Win32,20.00640205,,,,,,,,,,,,,,./stim/p04_syllable_1_falutraigo_hit.wav,p04,falutraigo,hit,fa-lu-trai-go,fa-lu-trai-go,fa-lu-tra-i-go, ,-0.322916667,-0.096354167,1,0,0,1.8904,text_option_1,,0,72,72,38,1
5d1547d9db7eb7001af1a436,63f3cfca20052e4ae7554ebf,6453cd621d3994c973661a52,2023-05-04_17h22.23.235,ga_syllabified_check,2022.2.5,Win32,20.00640205,,,,,,,,,,,,,,./stim/p04_syllable_1_lakapiaisto_hit.wav,p04,lakapiaisto,hit,la-ka-piais-to,la-ka-piais-to,la-ka-pi-ais-to,la-ka-pia-is-to,-0.322916667,-0.096354167,1,0,0,1.6023,text_option_1,,0,73,73,50,1
5d1547d9db7eb7001af1a436,63f3cfca20052e4ae7554ebf,6453cd621d3994c973661a52,2023-05-04_17h22.23.235,ga_syllabified_check,2022.2.5,Win32,20.00640205,,,,,,,,,,,,,,./stim/p05_syllable_1_palufauro_hit.wav,p05,palufauro,hit,pa-lu-fau-ro,pa-lu-fau-ro,pa-lu-fa-u-ro, ,-0.322916667,-0.096354167,1,0,0,1.0293,text_option_1,,0,74,74,93,1
5d1547d9db7eb7001af1a436,63f3cfca20052e4ae7554ebf,6453cd621d3994c973661a52,2023-05-04_17h22.23.235,ga_syllabified_check,2022.2.5,Win32,20.00640205,,,,,,,,,,,,,,./stim/p07_syllable_1_lakatiaisto_hit.wav,p07,lakatiaisto,hit,la-ka-tiai-sto,la-ka-tiais-to,la-ka-ti-ais-to,la-ka-tia-is-to,-0.322916667,-0.096354167,1,0,0,2.8482,text_option_1,,0,75,75,154,1
5d1547d9db7eb7001af1a436,63f3cfca20052e4ae7554ebf,6453cd621d3994c973661a52,2023-05-04_17h22.23.235,ga_syllabified_check,2022.2.5,Win32,20.00640205,,,,,,,,,,,,,,./stim/p06_syllable_1_lakadiaisto_hit.wav,p06,lakadiaisto,hit,la-ka-dia-is-to,la-ka-diais-to,la-ka-di-ais-to,la-ka-dia-is-to,0.063802083,-0.108072917,1,0,0,2.8825,text_option_3,,0,76,76,110,1
5d1547d9db7eb7001af1a436,63f3cfca20052e4ae7554ebf,6453cd621d3994c973661a52,2023-05-04_17h22.23.235,ga_syllabified_check,2022.2.5,Win32,20.00640205,,,,,,,,,,,,,,./stim/p05_syllable_1_paluguato_hit.wav,p05,paluguato,hit,pa-lu-gau-to,pa-lu-gua-to,pa-lu-gu-a-to, ,0,-0.3046875,1,0,0,1.8512,text_option_other,palu-kau-to,0,77,77,95,1
5d1547d9db7eb7001af1a436,63f3cfca20052e4ae7554ebf,6453cd621d3994c973661a52,2023-05-04_17h22.23.235,ga_syllabified_check,2022.2.5,Win32,20.00640205,,,,,,,,,,,,,,./stim/p03_syllable_1_tuliafo_hit.wav,p03,tuliafo,hit,tu-lia-fo,tu-lia-fo,tu-li-a-fo, ,-0.013020833,-0.309895833,1,0,0,3.1515,text_option_other,tulia-fo,0,78,78,33,1
5d1547d9db7eb7001af1a436,63f3cfca20052e4ae7554ebf,6453cd621d3994c973661a52,2023-05-04_17h22.23.235,ga_syllabified_check,2022.2.5,Win32,20.00640205,,,,,,,,,,,,,,./stim/p04_syllable_1_lliape_hit.wav,p04,lliape,hit,lia-pe,llia-pe,lli-a-pe, ,-0.376302083,-0.098958333,1,0,0,0.5153,text_option_1,,0,79,79,54,1
5d1547d9db7eb7001af1a436,63f3cfca20052e4ae7554ebf,6453cd621d3994c973661a52,2023-05-04_17h22.23.235,ga_syllabified_check,2022.2.5,Win32,20.00640205,,,,,,,,,,,,,,./stim/p06_syllable_1_falufaisto_hit.wav,p06,falufaisto,hit,fa-lu-fa-is-to,fa-lu-fais-to,fa-lu-fa-is-to, ,0.348958333,-0.09765625,1,0,0,2.6904,text_option_2,,0,80,80,105,1
5d1547d9db7eb7001af1a436,63f3cfca20052e4ae7554ebf,6453cd621d3994c973661a52,2023-05-04_17h22.23.235,ga_syllabified_check,2022.2.5,Win32,20.00640205,,,,,,,,,,,,,,./stim/p08_syllable_1_palutrauco_hit.wav,p08,palutrauco,hit,pa-lu-trau-ko,pa-lu-trau-co,pa-lu-tra-u-co, ,-0.3203125,-0.104166667,1,0,0,2.6477,text_option_1,,0,81,81,199,1
5d1547d9db7eb7001af1a436,63f3cfca20052e4ae7554ebf,6453cd621d3994c973661a52,2023-05-04_17h22.23.235,ga_syllabified_check,2022.2.5,Win32,20.00640205,,,,,,,,,,,,,,./stim/p07_syllable_1_chiaba_hit.wav,p07,chiaba,hit,chia-ba,chia-ba,chi-a-ba, ,-0.39453125,-0.115885417,1,0,0,0.8278,text_option_1,,0,82,82,136,1
5d1547d9db7eb7001af1a436,63f3cfca20052e4ae7554ebf,6453cd621d3994c973661a52,2023-05-04_17h22.23.235,ga_syllabified_check,2022.2.5,Win32,20.00640205,,,,,,,,,,,,,,./stim/p03_syllable_1_lakadiaisto_hit.wav,p03,lakadiaisto,hit,la-ka-diais-to,la-ka-diais-to,la-ka-di-ais-to,la-ka-dia-is-to,-0.385416667,-0.091145833,1,0,0,1.748,text_option_1,,0,83,83,8,1
5d1547d9db7eb7001af1a436,63f3cfca20052e4ae7554ebf,6453cd621d3994c973661a52,2023-05-04_17h22.23.235,ga_syllabified_check,2022.2.5,Win32,20.00640205,,,,,,,,,,,,,,./stim/p07_syllable_1_lakabiaisto_hit.wav,p07,lakabiaisto,hit,la-ka-bais-to,la-ka-biais-to,la-ka-bi-ais-to,la-ka-bia-is-to,0.104166667,-0.30078125,1,0,0,2.5979,text_option_other,la-ka-bais-to,0,84,84,142,1
5d1547d9db7eb7001af1a436,63f3cfca20052e4ae7554ebf,6453cd621d3994c973661a52,2023-05-04_17h22.23.235,ga_syllabified_check,2022.2.5,Win32,20.00640205,,,,,,,,,,,,,,./stim/p04_syllable_1_falufaisto_hit.wav,p04,falufaisto,hit,fa-lu-fais-to,fa-lu-fais-to,fa-lu-fa-is-to, ,-0.348958333,-0.1015625,1,0,0,1.2684,text_option_1,,0,85,85,37,1
5d1547d9db7eb7001af1a436,63f3cfca20052e4ae7554ebf,6453cd621d3994c973661a52,2023-05-04_17h22.23.235,ga_syllabified_check,2022.2.5,Win32,20.00640205,,,,,,,,,,,,,,./stim/p05_syllable_1_pachialo_hit.wav,p05,pachialo,hit,pan-chia-lo,pa-chia-lo,pa-chi-a-lo, ,0.024739583,-0.302083333,1,0,0,1.1137,text_option_other,pan-chia-lo,0,86,86,92,1
5d1547d9db7eb7001af1a436,63f3cfca20052e4ae7554ebf,6453cd621d3994c973661a52,2023-05-04_17h22.23.235,ga_syllabified_check,2022.2.5,Win32,20.00640205,,,,,,,,,,,,,,./stim/p05_syllable_1_lakatiaisto_hit.wav,p05,lakatiaisto,hit,la-ka-ti-ais-to,la-ka-tiais-to,la-ka-ti-ais-to,la-ka-tia-is-to,-0.32421875,-0.08984375,1,0,0,2.1918,text_option_1,,0,87,87,86,1
5d1547d9db7eb7001af1a436,63f3cfca20052e4ae7554ebf,6453cd621d3994c973661a52,2023-05-04_17h22.23.235,ga_syllabified_check,2022.2.5,Win32,20.00640205,,,,,,,,,,,,,,./stim/p07_syllable_1_lakakuaisto_hit.wav,p07,lakakuaisto,hit,la-ka-kuais-to,la-ka-kuais-to,la-ka-ku-ais-to,la-ka-kua-is-to,-0.309895833,-0.108072917,1,0,0,2.4957,text_option_1,,0,88,88,151,1
5d1547d9db7eb7001af1a436,63f3cfca20052e4ae7554ebf,6453cd621d3994c973661a52,2023-05-04_17h22.23.235,ga_syllabified_check,2022.2.5,Win32,20.00640205,,,,,,,,,,,,,,./stim/p08_syllable_1_rausto_hit.wav,p08,rausto,hit,raus-to,raus-to,ra-us-to, ,-0.380208333,-0.108072917,1,0,0,1.0211,text_option_1,,0,89,89,201,1
5d1547d9db7eb7001af1a436,63f3cfca20052e4ae7554ebf,6453cd621d3994c973661a52,2023-05-04_17h22.23.235,ga_syllabified_check,2022.2.5,Win32,20.00640205,,,,,,,,,,,,,,./stim/p08_syllable_1_lakapiaisto_hit.wav,p08,lakapiaisto,hit,la-ka-pi-as-to,la-ka-piais-to,la-ka-pi-ais-to,la-ka-pia-is-to,0.022135417,-0.291666667,1,0,0,3.9751,text_option_other,la-ka-pi-as-to,0,90,90,186,1
5d1547d9db7eb7001af1a436,63f3cfca20052e4ae7554ebf,6453cd621d3994c973661a52,2023-05-04_17h22.23.235,ga_syllabified_check,2022.2.5,Win32,20.00640205,,,,,,,,,,,,,,./stim/p03_syllable_1_rausto_hit.wav,p03,rausto,hit,raus-to,raus-to,ra-us-to, ,-0.42578125,-0.11328125,1,0,0,1.0508,text_option_1,,0,91,91,31,1
5d1547d9db7eb7001af1a436,63f3cfca20052e4ae7554ebf,6453cd621d3994c973661a52,2023-05-04_17h22.23.235,ga_syllabified_check,2022.2.5,Win32,20.00640205,,,,,,,,,,,,,,./stim/p07_syllable_1_costonhialo_hit.wav,p07,costoñialo,hit,cos-to-nhia-lo,cos-to-ñia-lo,cos-to-ñi-a-lo, ,-0.354166667,-0.1171875,1,0,0,2.1322,text_option_1,,0,92,92,137,1
5d1547d9db7eb7001af1a436,63f3cfca20052e4ae7554ebf,6453cd621d3994c973661a52,2023-05-04_17h22.23.235,ga_syllabified_check,2022.2.5,Win32,20.00640205,,,,,,,,,,,,,,./stim/p08_syllable_1_lakakiaisto_hit.wav,p08,lakakiaisto,hit,la-ka-ki-jas-to,la-ka-kiais-to,la-ka-ki-ais-to,la-ka-kia-is-to,0.033854167,-0.298177083,1,0,0,5.0874,text_option_other,la-ka-ki-as-to,0,93,93,184,1
5d1547d9db7eb7001af1a436,63f3cfca20052e4ae7554ebf,6453cd621d3994c973661a52,2023-05-04_17h22.23.235,ga_syllabified_check,2022.2.5,Win32,20.00640205,,,,,,,,,,,,,,./stim/p03_syllable_1_payielo_hit.wav,p03,payielo,hit,pa-yie-lo,pa-yie-lo,pa-yi-e-lo, ,-0.346354167,-0.092447917,1,0,0,0.9363,text_option_1,,0,94,94,30,1
5d1547d9db7eb7001af1a436,63f3cfca20052e4ae7554ebf,6453cd621d3994c973661a52,2023-05-04_17h22.23.235,ga_syllabified_check,2022.2.5,Win32,20.00640205,,,,,,,,,,,,,,./stim/p06_syllable_1_lakabiaisto_hit.wav,p06,lakabiaisto,hit,la-ka-bia-is-to,la-ka-biais-to,la-ka-bi-ais-to,la-ka-bia-is-to,-0.01171875,-0.111979167,1,0,0,4.0921,text_option_3,,0,95,95,108,1
5d1547d9db7eb7001af1a436,63f3cfca20052e4ae7554ebf,6453cd621d3994c973661a52,2023-05-04_17h22.23.235,ga_syllabified_check,2022.2.5,Win32,20.00640205,,,,,,,,,,,,,,./stim/p07_syllable_1_lakafuaisto_hit.wav,p07,lakafuaisto,hit,la-ka-fuais-to,la-ka-fuais-to,la-ka-fu-ais-to,la-ka-fua-is-to,-0.39453125,-0.098958333,1,0,0,2.4185,text_option_1,,0,96,96,147,1
5d1547d9db7eb7001af1a436,63f3cfca20052e4ae7554ebf,6453cd621d3994c973661a52,2023-05-04_17h22.23.235,ga_syllabified_check,2022.2.5,Win32,20.00640205,,,,,,,,,,,,,,./stim/p07_syllable_1_rausto_hit.wav,p07,rausto,hit,raus-to,raus-to,ra-us-to, ,-0.373697917,-0.1015625,1,0,0,0.8588,text_option_1,,0,97,97,167,1
5d1547d9db7eb7001af1a436,63f3cfca20052e4ae7554ebf,6453cd621d3994c973661a52,2023-05-04_17h22.23.235,ga_syllabified_check,2022.2.5,Win32,20.00640205,,,,,,,,,,,,,,./stim/p07_syllable_1_lakapiaisto_hit.wav,p07,lakapiaisto,hit,la-ka-pia-sto,la-ka-piais-to,la-ka-pi-ais-to,la-ka-pia-is-to,0.013020833,-0.295572917,1,0,0,3.6436,text_option_other,la-ka-pias-to,0,98,98,152,1
5d1547d9db7eb7001af1a436,63f3cfca20052e4ae7554ebf,6453cd621d3994c973661a52,2023-05-04_17h22.23.235,ga_syllabified_check,2022.2.5,Win32,20.00640205,,,,,,,,,,,,,,./stim/p07_syllable_1_tuliafo_hit.wav,p07,tuliafo,hit,tu-lia-fo,tu-lia-fo,tu-li-a-fo, ,-0.358072917,-0.110677083,1,0,0,0.7559,text_option_1,,0,99,99,169,1
5d1547d9db7eb7001af1a436,63f3cfca20052e4ae7554ebf,6453cd621d3994c973661a52,2023-05-04_17h22.23.235,ga_syllabified_check,2022.2.5,Win32,20.00640205,,,,,,,,,,,,,,./stim/p06_syllable_1_palumaisto_hit.wav,p06,palumaisto,hit,pa-lu-ma-is-to,pa-lu-mais-to,pa-lu-ma-is-to, ,0.3828125,-0.1171875,1,0,0,2.9398,text_option_2,,0,100,100,130,1
5d1547d9db7eb7001af1a436,63f3cfca20052e4ae7554ebf,6453cd621d3994c973661a52,2023-05-04_17h22.23.235,ga_syllabified_check,2022.2.5,Win32,20.00640205,,,,,,,,,,,,,,./stim/p06_syllable_1_lakabuaisto_hit.wav,p06,lakabuaisto,hit,la-ka-bu-a-is,la-ka-buais-to,la-ka-bu-ais-to,la-ka-bua-is-to,0.052083333,-0.29296875,1,0,0,4.644,text_option_other,la-ka-bu-a-is-to,0,101,101,109,1
5d1547d9db7eb7001af1a436,63f3cfca20052e4ae7554ebf,6453cd621d3994c973661a52,2023-05-04_17h22.23.235,ga_syllabified_check,2022.2.5,Win32,20.00640205,,,,,,,,,,,,,,./stim/p07_syllable_1_payielo_hit.wav,p07,payielo,hit,pa-yie-lo,pa-yie-lo,pa-yi-e-lo, ,-0.3671875,-0.119791667,1,0,0,1.5401,text_option_1,,0,102,102,166,1
5d1547d9db7eb7001af1a436,63f3cfca20052e4ae7554ebf,6453cd621d3994c973661a52,2023-05-04_17h22.23.235,ga_syllabified_check,2022.2.5,Win32,20.00640205,,,,,,,,,,,,,,./stim/p08_syllable_1_manhiala_hit.wav,p08,mañiala,hit,ma-nhia-la,ma-ñia-la,ma-ñi-a-la, ,-0.361979167,-0.10546875,1,0,0,2.7521,text_option_1,,0,103,103,191,1
5d1547d9db7eb7001af1a436,63f3cfca20052e4ae7554ebf,6453cd621d3994c973661a52,2023-05-04_17h22.23.235,ga_syllabified_check,2022.2.5,Win32,20.00640205,,,,,,,,,,,,,,./stim/p07_syllable_1_pachialo_hit.wav,p07,pachialo,hit,pa-cha-lo,pa-chia-lo,pa-chi-a-lo, ,-0.389322917,-0.115885417,1,0,0,1.6625,text_option_1,,0,104,104,160,1
5d1547d9db7eb7001af1a436,63f3cfca20052e4ae7554ebf,6453cd621d3994c973661a52,2023-05-04_17h22.23.235,ga_syllabified_check,2022.2.5,Win32,20.00640205,,,,,,,,,,,,,,./stim/p05_syllable_1_lakaduaisto_hit.wav,p05,lakaduaisto,hit,la-ka-dais-to,la-ka-duais-to,la-ka-du-ais-to,la-ka-dua-is-to,-0.016927083,-0.30078125,1,0,0,1.4921,text_option_other,laka-dais-to,0,105,105,77,1
5d1547d9db7eb7001af1a436,63f3cfca20052e4ae7554ebf,6453cd621d3994c973661a52,2023-05-04_17h22.23.235,ga_syllabified_check,2022.2.5,Win32,20.00640205,,,,,,,,,,,,,,./stim/p04_syllable_1_lakakiaisto_hit.wav,p04,lakakiaisto,hit,la-ka-kiais-to,la-ka-kiais-to,la-ka-ki-ais-to,la-ka-kia-is-to,-0.35546875,-0.115885417,1,0,0,1.8045,text_option_1,,0,106,106,48,1
5d1547d9db7eb7001af1a436,63f3cfca20052e4ae7554ebf,6453cd621d3994c973661a52,2023-05-04_17h22.23.235,ga_syllabified_check,2022.2.5,Win32,20.00640205,,,,,,,,,,,,,,./stim/p03_syllable_1_nhiape_hit.wav,p03,ñiape,hit,nhia-pe,ñia-pe,ñi-a-pe, ,-0.388020833,-0.114583333,1,0,0,1.0208,text_option_1,,0,107,107,23,1
5d1547d9db7eb7001af1a436,63f3cfca20052e4ae7554ebf,6453cd621d3994c973661a52,2023-05-04_17h22.23.235,ga_syllabified_check,2022.2.5,Win32,20.00640205,,,,,,,,,,,,,,./stim/p04_syllable_1_lakadiaisto_hit.wav,p04,lakadiaisto,hit,la-ka-dias-to,la-ka-diais-to,la-ka-di-ais-to,la-ka-dia-is-to,-0.348958333,-0.1015625,1,0,0,1.4013,text_option_1,,0,108,108,42,1
5d1547d9db7eb7001af1a436,63f3cfca20052e4ae7554ebf,6453cd621d3994c973661a52,2023-05-04_17h22.23.235,ga_syllabified_check,2022.2.5,Win32,20.00640205,,,,,,,,,,,,,,./stim/p05_syllable_1_flauro_hit.wav,p05,flauro,hit,fa-lu-ro,flau-ro,fla-u-ro, ,-0.03125,-0.313802083,1,0,0,1.4023,text_option_other,fa-lu-ro,0,109,109,73,1
5d1547d9db7eb7001af1a436,63f3cfca20052e4ae7554ebf,6453cd621d3994c973661a52,2023-05-04_17h22.23.235,ga_syllabified_check,2022.2.5,Win32,20.00640205,,,,,,,,,,,,,,./stim/p06_syllable_1_tuliafo_hit.wav,p06,tuliafo,hit,tu-li-a-fo,tu-lia-fo,tu-li-a-fo, ,0.384114583,-0.08984375,1,0,0,2.3364,text_option_2,,0,110,110,135,1
5d1547d9db7eb7001af1a436,63f3cfca20052e4ae7554ebf,6453cd621d3994c973661a52,2023-05-04_17h22.23.235,ga_syllabified_check,2022.2.5,Win32,20.00640205,,,,,,,,,,,,,,./stim/p08_syllable_1_mebochiana_hit.wav,p08,mebochiana,hit,me-bo-chi-a-na,me-bo-chia-na,me-bo-chi-a-na, ,0.348958333,-0.102864583,1,0,0,2.3694,text_option_2,,0,111,111,192,1
5d1547d9db7eb7001af1a436,63f3cfca20052e4ae7554ebf,6453cd621d3994c973661a52,2023-05-04_17h22.23.235,ga_syllabified_check,2022.2.5,Win32,20.00640205,,,,,,,,,,,,,,./stim/p05_syllable_1_falufaisto_hit.wav,p05,falufaisto,hit,fa-lu-fais-to,fa-lu-fais-to,fa-lu-fa-is-to, ,-0.38671875,-0.100260417,1,0,0,1.8917,text_option_1,,0,112,112,71,1
5d1547d9db7eb7001af1a436,63f3cfca20052e4ae7554ebf,6453cd621d3994c973661a52,2023-05-04_17h22.23.235,ga_syllabified_check,2022.2.5,Win32,20.00640205,,,,,,,,,,,,,,./stim/p07_syllable_1_lakaduaisto_hit.wav,p07,lakaduaisto,hit,la-ka-duais-to,la-ka-duais-to,la-ka-du-ais-to,la-ka-dua-is-to,-0.401041667,-0.102864583,1,0,0,2.1632,text_option_1,,0,113,113,145,1
5d1547d9db7eb7001af1a436,63f3cfca20052e4ae7554ebf,6453cd621d3994c973661a52,2023-05-04_17h22.23.235,ga_syllabified_check,2022.2.5,Win32,20.00640205,,,,,,,,,,,,,,./stim/p03_syllable_1_costonhialo_hit.wav,p03,costoñialo,hit,cos-to-nhia-lo,cos-to-ñia-lo,cos-to-ñi-a-lo, ,-0.384114583,-0.11328125,1,0,0,1.4519,text_option_1,,0,114,114,1,1
5d1547d9db7eb7001af1a436,63f3cfca20052e4ae7554ebf,6453cd621d3994c973661a52,2023-05-04_17h22.23.235,ga_syllabified_check,2022.2.5,Win32,20.00640205,,,,,,,,,,,,,,./stim/p08_syllable_1_lakatiaisto_hit.wav,p08,lakatiaisto,hit,la-ka-ti-as-to,la-ka-tiais-to,la-ka-ti-ais-to,la-ka-tia-is-to,-0.015625,-0.295572917,1,0,0,4.1346,text_option_other,la-ka-tias-to,0,115,115,188,1
5d1547d9db7eb7001af1a436,63f3cfca20052e4ae7554ebf,6453cd621d3994c973661a52,2023-05-04_17h22.23.235,ga_syllabified_check,2022.2.5,Win32,20.00640205,,,,,,,,,,,,,,./stim/p06_syllable_1_chiaba_hit.wav,p06,chiaba,hit,chi-a-ba,chia-ba,chi-a-ba, ,-0.373697917,-0.114583333,1,0,0,1.7393,text_option_1,,0,116,116,102,1
5d1547d9db7eb7001af1a436,63f3cfca20052e4ae7554ebf,6453cd621d3994c973661a52,2023-05-04_17h22.23.235,ga_syllabified_check,2022.2.5,Win32,20.00640205,,,,,,,,,,,,,,./stim/p04_syllable_1_paluguato_hit.wav,p04,paluguato,hit,pa-lu-gua,pa-lu-gua-to,pa-lu-gu-a-to, ,-0.0703125,-0.3203125,1,0,0,3.6052,text_option_other,pa-lu-gua,0,117,117,61,1
5d1547d9db7eb7001af1a436,63f3cfca20052e4ae7554ebf,6453cd621d3994c973661a52,2023-05-04_17h22.23.235,ga_syllabified_check,2022.2.5,Win32,20.00640205,,,,,,,,,,,,,,./stim/p07_syllable_1_paluguato_hit.wav,p07,paluguato,hit,pa-lu-gua-to,pa-lu-gua-to,pa-lu-gu-a-to, ,-0.463541667,-0.106770833,1,0,0,2.2785,text_option_1,,0,118,118,163,1
5d1547d9db7eb7001af1a436,63f3cfca20052e4ae7554ebf,6453cd621d3994c973661a52,2023-05-04_17h22.23.235,ga_syllabified_check,2022.2.5,Win32,20.00640205,,,,,,,,,,,,,,./stim/p08_syllable_1_pachialo_hit.wav,p08,pachialo,hit,pa-chi-ja-lo,pa-chia-lo,pa-chi-a-lo, ,0.352864583,-0.09765625,1,0,0,1.5999,text_option_2,,0,119,119,194,1
5d1547d9db7eb7001af1a436,63f3cfca20052e4ae7554ebf,6453cd621d3994c973661a52,2023-05-04_17h22.23.235,ga_syllabified_check,2022.2.5,Win32,20.00640205,,,,,,,,,,,,,,./stim/p07_syllable_1_flauro_hit.wav,p07,flauro,hit,flau-ro,flau-ro,fla-u-ro, ,-0.376302083,-0.118489583,1,0,0,1.4714,text_option_1,,0,120,120,141,1
5d1547d9db7eb7001af1a436,63f3cfca20052e4ae7554ebf,6453cd621d3994c973661a52,2023-05-04_17h22.23.235,ga_syllabified_check,2022.2.5,Win32,20.00640205,,,,,,,,,,,,,,./stim/p06_syllable_1_payielo_hit.wav,p06,payielo,hit,pa-yi-e-lo,pa-yie-lo,pa-yi-e-lo, ,0.4140625,-0.108072917,1,0,0,2.2308,text_option_2,,0,121,121,132,1
5d1547d9db7eb7001af1a436,63f3cfca20052e4ae7554ebf,6453cd621d3994c973661a52,2023-05-04_17h22.23.235,ga_syllabified_check,2022.2.5,Win32,20.00640205,,,,,,,,,,,,,,./stim/p05_syllable_1_mebochiana_hit.wav,p05,mebochiana,hit,me-cho-chai-na,me-bo-chia-na,me-bo-chi-a-na, ,0.036458333,-0.311197917,1,0,0,1.2863,text_option_other,me-cho-chai-na,0,122,122,90,1
5d1547d9db7eb7001af1a436,63f3cfca20052e4ae7554ebf,6453cd621d3994c973661a52,2023-05-04_17h22.23.235,ga_syllabified_check,2022.2.5,Win32,20.00640205,,,,,,,,,,,,,,./stim/p04_syllable_1_palufauto_hit.wav,p04,palufauto,hit,pa-lu-fau-to,pa-lu-fau-to,pa-lu-fa-u-to, ,-0.33984375,-0.122395833,1,0,0,1.092,text_option_1,,0,123,123,60,1
5d1547d9db7eb7001af1a436,63f3cfca20052e4ae7554ebf,6453cd621d3994c973661a52,2023-05-04_17h22.23.235,ga_syllabified_check,2022.2.5,Win32,20.00640205,,,,,,,,,,,,,,./stim/p03_syllable_1_lakaduaisto_hit.wav,p03,lakaduaisto,hit,la-ka-duais-to,la-ka-duais-to,la-ka-du-ais-to,la-ka-dua-is-to,-0.315104167,-0.119791667,1,0,0,1.7147,text_option_1,,0,124,124,9,1
5d1547d9db7eb7001af1a436,63f3cfca20052e4ae7554ebf,6453cd621d3994c973661a52,2023-05-04_17h22.23.235,ga_syllabified_check,2022.2.5,Win32,20.00640205,,,,,,,,,,,,,,./stim/p06_syllable_1_lakapuaisto_hit.wav,p06,lakapuaisto,hit,la-ka-pu-a-is,la-ka-puais-to,la-ka-pu-ais-to,la-ka-pua-is-to,0,-0.294270833,1,0,0,5.266,text_option_other,la-ka-pu-a-is-to,0,125,125,119,1
5d1547d9db7eb7001af1a436,63f3cfca20052e4ae7554ebf,6453cd621d3994c973661a52,2023-05-04_17h22.23.235,ga_syllabified_check,2022.2.5,Win32,20.00640205,,,,,,,,,,,,,,./stim/p05_syllable_1_lakabiaisto_hit.wav,p05,lakabiaisto,hit,la-ka-bi-ais-to,la-ka-biais-to,la-ka-bi-ais-to,la-ka-bia-is-to,-0.368489583,-0.095052083,1,0,0,2.0389,text_option_1,,0,126,126,74,1
5d1547d9db7eb7001af1a436,63f3cfca20052e4ae7554ebf,6453cd621d3994c973661a52,2023-05-04_17h22.23.235,ga_syllabified_check,2022.2.5,Win32,20.00640205,,,,,,,,,,,,,,./stim/p08_syllable_1_lliape_hit.wav,p08,lliape,hit,li-a-pe,llia-pe,lli-a-pe, ,-0.015625,-0.3046875,1,0,0,4.1678,text_option_other,li-a-pe,0,127,127,190,1
5d1547d9db7eb7001af1a436,63f3cfca20052e4ae7554ebf,6453cd621d3994c973661a52,2023-05-04_17h22.23.235,ga_syllabified_check,2022.2.5,Win32,20.00640205,,,,,,,,,,,,,,./stim/p06_syllable_1_lakafiaisto_hit.wav,p06,lakafiaisto,hit,la-ka-fia-is-to,la-ka-fiais-to,la-ka-fi-ais-to,la-ka-fia-is-to,0.026041667,-0.11328125,1,0,0,3.5437,text_option_3,,0,128,128,112,1
5d1547d9db7eb7001af1a436,63f3cfca20052e4ae7554ebf,6453cd621d3994c973661a52,2023-05-04_17h22.23.235,ga_syllabified_check,2022.2.5,Win32,20.00640205,,,,,,,,,,,,,,./stim/p03_syllable_1_falutraigo_hit.wav,p03,falutraigo,hit,fa-lu-trai-go,fa-lu-trai-go,fa-lu-tra-i-go, ,-0.352864583,-0.098958333,1,0,0,1.7423,text_option_1,,0,129,129,4,1
5d1547d9db7eb7001af1a436,63f3cfca20052e4ae7554ebf,6453cd621d3994c973661a52,2023-05-04_17h22.23.235,ga_syllabified_check,2022.2.5,Win32,20.00640205,,,,,,,,,,,,,,./stim/p04_syllable_1_palutrauco_hit.wav,p04,palutrauco,hit,pa-lu-trau-co,pa-lu-trau-co,pa-lu-tra-u-co, ,-0.338541667,-0.104166667,1,0,0,1.1318,text_option_1,,0,130,130,63,1
5d1547d9db7eb7001af1a436,63f3cfca20052e4ae7554ebf,6453cd621d3994c973661a52,2023-05-04_17h22.23.235,ga_syllabified_check,2022.2.5,Win32,20.00640205,,,,,,,,,,,,,,./stim/p03_syllable_1_palufauto_hit.wav,p03,palufauto,hit,pa-lu-fau,pa-lu-fau-to,pa-lu-fa-u-to, ,-0.390625,-0.10546875,1,0,0,1.287,text_option_1,,0,131,131,26,1
5d1547d9db7eb7001af1a436,63f3cfca20052e4ae7554ebf,6453cd621d3994c973661a52,2023-05-04_17h22.23.235,ga_syllabified_check,2022.2.5,Win32,20.00640205,,,,,,,,,,,,,,./stim/p06_syllable_1_flauro_hit.wav,p06,flauro,hit,fla-u-ro,flau-ro,fla-u-ro, ,0.42578125,-0.118489583,1,0,0,1.594,text_option_2,,0,132,132,107,1
5d1547d9db7eb7001af1a436,63f3cfca20052e4ae7554ebf,6453cd621d3994c973661a52,2023-05-04_17h22.23.235,ga_syllabified_check,2022.2.5,Win32,20.00640205,,,,,,,,,,,,,,./stim/p07_syllable_1_nhiape_hit.wav,p07,ñiape,hit,nhia-pe,ñia-pe,ñi-a-pe, ,-0.404947917,-0.111979167,1,0,0,0.764,text_option_1,,0,133,133,159,1
5d1547d9db7eb7001af1a436,63f3cfca20052e4ae7554ebf,6453cd621d3994c973661a52,2023-05-04_17h22.23.235,ga_syllabified_check,2022.2.5,Win32,20.00640205,,,,,,,,,,,,,,./stim/p06_syllable_1_paluguato_hit.wav,p06,paluguato,hit,pa-lu-gua-to,pa-lu-gua-to,pa-lu-gu-a-to, ,-0.32421875,-0.108072917,1,0,0,3.0108,text_option_1,,0,134,134,129,1
5d1547d9db7eb7001af1a436,63f3cfca20052e4ae7554ebf,6453cd621d3994c973661a52,2023-05-04_17h22.23.235,ga_syllabified_check,2022.2.5,Win32,20.00640205,,,,,,,,,,,,,,./stim/p06_syllable_1_palutrauco_hit.wav,p06,palutrauco,hit,pa-lu-tra-u-co,pa-lu-trau-co,pa-lu-tra-u-co, ,0.424479167,-0.114583333,1,0,0,2.4776,text_option_2,,0,135,135,131,1
5d1547d9db7eb7001af1a436,63f3cfca20052e4ae7554ebf,6453cd621d3994c973661a52,2023-05-04_17h22.23.235,ga_syllabified_check,2022.2.5,Win32,20.00640205,,,,,,,,,,,,,,./stim/p05_syllable_1_lakapuaisto_hit.wav,p05,lakapuaisto,hit,la-ka-pais-to,la-ka-puais-to,la-ka-pu-ais-to,la-ka-pua-is-to,0.0234375,-0.305989583,1,0,0,2.2697,text_option_other,la-ka-pais-to,0,136,136,85,1
5d1547d9db7eb7001af1a436,63f3cfca20052e4ae7554ebf,6453cd621d3994c973661a52,2023-05-04_17h22.23.235,ga_syllabified_check,2022.2.5,Win32,20.00640205,,,,,,,,,,,,,,./stim/p07_syllable_1_mebochiana_hit.wav,p07,mebochiana,hit,me-bo-chia-na,me-bo-chia-na,me-bo-chi-a-na, ,-0.299479167,-0.104166667,1,0,0,2.4956,text_option_1,,0,137,137,158,1
5d1547d9db7eb7001af1a436,63f3cfca20052e4ae7554ebf,6453cd621d3994c973661a52,2023-05-04_17h22.23.235,ga_syllabified_check,2022.2.5,Win32,20.00640205,,,,,,,,,,,,,,./stim/p08_syllable_1_lakafuaisto_hit.wav,p08,lakafuaisto,hit,la-ka-fju-ais-to,la-ka-fuais-to,la-ka-fu-ais-to,la-ka-fua-is-to,-0.014322917,-0.299479167,1,0,0,2.7805,text_option_other,la-ka-fiuais-to,0,138,138,181,1
5d1547d9db7eb7001af1a436,63f3cfca20052e4ae7554ebf,6453cd621d3994c973661a52,2023-05-04_17h22.23.235,ga_syllabified_check,2022.2.5,Win32,20.00640205,,,,,,,,,,,,,,./stim/p05_syllable_1_lakakiaisto_hit.wav,p05,lakakiaisto,hit,la-ka-ki-ais-to,la-ka-kiais-to,la-ka-ki-ais-to,la-ka-kia-is-to,-0.330729167,-0.1015625,1,0,0,3.8289,text_option_1,,0,139,139,82,1
5d1547d9db7eb7001af1a436,63f3cfca20052e4ae7554ebf,6453cd621d3994c973661a52,2023-05-04_17h22.23.235,ga_syllabified_check,2022.2.5,Win32,20.00640205,,,,,,,,,,,,,,./stim/p08_syllable_1_lakagiaisto_hit.wav,p08,lakagiaisto,hit,la-ka-gi-jas-to,la-ka-giais-to,la-ka-gi-ais-to,la-ka-gia-is-to,-0.0234375,-0.278645833,1,0,0,4.1364,text_option_other,la-ka-gias-to,0,140,140,182,1
5d1547d9db7eb7001af1a436,63f3cfca20052e4ae7554ebf,6453cd621d3994c973661a52,2023-05-04_17h22.23.235,ga_syllabified_check,2022.2.5,Win32,20.00640205,,,,,,,,,,,,,,./stim/p07_syllable_1_lakafiaisto_hit.wav,p07,lakafiaisto,hit,la-ka-fiais-to,la-ka-fiais-to,la-ka-fi-ais-to,la-ka-fia-is-to,-0.328125,-0.104166667,1,0,0,1.7803,text_option_1,,0,141,141,146,1
5d1547d9db7eb7001af1a436,63f3cfca20052e4ae7554ebf,6453cd621d3994c973661a52,2023-05-04_17h22.23.235,ga_syllabified_check,2022.2.5,Win32,20.00640205,,,,,,,,,,,,,,./stim/p03_syllable_1_lakagiaisto_hit.wav,p03,lakagiaisto,hit,la-ka-giais-to,la-ka-giais-to,la-ka-gi-ais-to,la-ka-gia-is-to,-0.385416667,-0.111979167,1,0,0,4.7836,text_option_1,,0,142,142,12,1
5d1547d9db7eb7001af1a436,63f3cfca20052e4ae7554ebf,6453cd621d3994c973661a52,2023-05-04_17h22.23.235,ga_syllabified_check,2022.2.5,Win32,20.00640205,,,,,,,,,,,,,,./stim/p07_syllable_1_lakatuaisto_hit.wav,p07,lakatuaisto,hit,la-ka-tuais-to,la-ka-tuais-to,la-ka-tu-ais-to,la-ka-tua-is-to,-0.385416667,-0.111979167,1,0,0,2.916,text_option_1,,0,143,143,155,1
5d1547d9db7eb7001af1a436,63f3cfca20052e4ae7554ebf,6453cd621d3994c973661a52,2023-05-04_17h22.23.235,ga_syllabified_check,2022.2.5,Win32,20.00640205,,,,,,,,,,,,,,./stim/p06_syllable_1_palufauto_hit.wav,p06,palufauto,hit,pa-lu-fau-to,pa-lu-fau-to,pa-lu-fa-u-to, ,-0.385416667,-0.111979167,1,0,0,3.687,text_option_1,,0,144,144,128,1
5d1547d9db7eb7001af1a436,63f3cfca20052e4ae7554ebf,6453cd621d3994c973661a52,2023-05-04_17h22.23.235,ga_syllabified_check,2022.2.5,Win32,20.00640205,,,,,,,,,,,,,,./stim/p08_syllable_1_tuliafo_hit.wav,p08,tuliafo,hit,tu-li-a-fo,tu-lia-fo,tu-li-a-fo, ,0.4375,-0.095052083,1,0,0,1.9928,text_option_2,,0,145,145,203,1
5d1547d9db7eb7001af1a436,63f3cfca20052e4ae7554ebf,6453cd621d3994c973661a52,2023-05-04_17h22.23.235,ga_syllabified_check,2022.2.5,Win32,20.00640205,,,,,,,,,,,,,,./stim/p07_syllable_1_palufauro_hit.wav,p07,palufauro,hit,pa-lu-fau-ro,pa-lu-fau-ro,pa-lu-fa-u-ro, ,-0.325520833,-0.111979167,1,0,0,2.2813,text_option_1,,0,146,146,161,1
5d1547d9db7eb7001af1a436,63f3cfca20052e4ae7554ebf,6453cd621d3994c973661a52,2023-05-04_17h22.23.235,ga_syllabified_check,2022.2.5,Win32,20.00640205,,,,,,,,,,,,,,./stim/p06_syllable_1_faluduako_hit.wav,p06,faluduako,hit,fa-lu-dua-ko,fa-lu-dua-ko,fa-lu-du-a-ko, ,-0.36328125,-0.1171875,1,0,0,3.6311,text_option_1,,0,147,147,104,1
5d1547d9db7eb7001af1a436,63f3cfca20052e4ae7554ebf,6453cd621d3994c973661a52,2023-05-04_17h22.23.235,ga_syllabified_check,2022.2.5,Win32,20.00640205,,,,,,,,,,,,,,./stim/p06_syllable_1_palufauro_hit.wav,p06,palufauro,hit,pa-lu-fau-ro,pa-lu-fau-ro,pa-lu-fa-u-ro, ,-0.36328125,-0.1171875,1,0,0,6.4029,text_option_1,,0,148,148,127,1
5d1547d9db7eb7001af1a436,63f3cfca20052e4ae7554ebf,6453cd621d3994c973661a52,2023-05-04_17h22.23.235,ga_syllabified_check,2022.2.5,Win32,20.00640205,,,,,,,,,,,,,,./stim/p03_syllable_1_lakabiaisto_hit.wav,p03,lakabiaisto,hit,la-ka-biais-to,la-ka-biais-to,la-ka-bi-ais-to,la-ka-bia-is-to,-0.36328125,-0.1171875,1,0,0,1.4835,text_option_1,,0,149,149,6,1
5d1547d9db7eb7001af1a436,63f3cfca20052e4ae7554ebf,6453cd621d3994c973661a52,2023-05-04_17h22.23.235,ga_syllabified_check,2022.2.5,Win32,20.00640205,,,,,,,,,,,,,,./stim/p03_syllable_1_chiaba_hit.wav,p03,chiaba,hit,chia-ba,chia-ba,chi-a-ba, ,-0.36328125,-0.1171875,1,0,0,0.7148,text_option_1,,0,150,150,0,1
5d1547d9db7eb7001af1a436,63f3cfca20052e4ae7554ebf,6453cd621d3994c973661a52,2023-05-04_17h22.23.235,ga_syllabified_check,2022.2.5,Win32,20.00640205,,,,,,,,,,,,,,./stim/p06_syllable_1_lakapiaisto_hit.wav,p06,lakapiaisto,hit,la-ka-pia-is-to,la-ka-piais-to,la-ka-pi-ais-to,la-ka-pia-is-to,0.08203125,-0.118489583,1,0,0,4.7865,text_option_3,,0,151,151,118,1
5d1547d9db7eb7001af1a436,63f3cfca20052e4ae7554ebf,6453cd621d3994c973661a52,2023-05-04_17h22.23.235,ga_syllabified_check,2022.2.5,Win32,20.00640205,,,,,,,,,,,,,,./stim/p03_syllable_1_lakapuaisto_hit.wav,p03,lakapuaisto,hit,la-ka-puais-to,la-ka-puais-to,la-ka-pu-ais-to,la-ka-pua-is-to,-0.3515625,-0.109375,1,0,0,1.6209,text_option_1,,0,152,152,17,1
5d1547d9db7eb7001af1a436,63f3cfca20052e4ae7554ebf,6453cd621d3994c973661a52,2023-05-04_17h22.23.235,ga_syllabified_check,2022.2.5,Win32,20.00640205,,,,,,,,,,,,,,./stim/p07_syllable_1_lakagiaisto_hit.wav,p07,lakagiaisto,hit,la-ka-gais-to,la-ka-giais-to,la-ka-gi-ais-to,la-ka-gia-is-to,-0.001302083,-0.311197917,1,0,0,2.0664,text_option_other,la-ka-gais-to,0,153,153,148,1
5d1547d9db7eb7001af1a436,63f3cfca20052e4ae7554ebf,6453cd621d3994c973661a52,2023-05-04_17h22.23.235,ga_syllabified_check,2022.2.5,Win32,20.00640205,,,,,,,,,,,,,,./stim/p06_syllable_1_lakatiaisto_hit.wav,p06,lakatiaisto,hit,la-ka-pia-is-to,la-ka-tiais-to,la-ka-ti-ais-to,la-ka-tia-is-to,-0.026041667,-0.10546875,1,0,0,3.4357,text_option_3,,0,154,154,120,1
5d1547d9db7eb7001af1a436,63f3cfca20052e4ae7554ebf,6453cd621d3994c973661a52,2023-05-04_17h22.23.235,ga_syllabified_check,2022.2.5,Win32,20.00640205,,,,,,,,,,,,,,./stim/p05_syllable_1_palumaisto_hit.wav,p05,palumaisto,hit,pa-lu-mais-to,pa-lu-mais-to,pa-lu-ma-is-to, ,-0.3515625,-0.111979167,1,0,0,1.3704,text_option_1,,0,155,155,96,1
5d1547d9db7eb7001af1a436,63f3cfca20052e4ae7554ebf,6453cd621d3994c973661a52,2023-05-04_17h22.23.235,ga_syllabified_check,2022.2.5,Win32,20.00640205,,,,,,,,,,,,,,./stim/p03_syllable_1_faluduako_hit.wav,p03,faluduako,hit,fa-lu-dua-ko,fa-lu-dua-ko,fa-lu-du-a-ko, ,-0.333333333,-0.118489583,1,0,0,1.6824,text_option_1,,0,156,156,2,1
5d1547d9db7eb7001af1a436,63f3cfca20052e4ae7554ebf,6453cd621d3994c973661a52,2023-05-04_17h22.23.235,ga_syllabified_check,2022.2.5,Win32,20.00640205,,,,,,,,,,,,,,./stim/p08_syllable_1_payielo_hit.wav,p08,payielo,hit,pa-yie-lo,pa-yie-lo,pa-yi-e-lo, ,-0.358072917,-0.098958333,1,0,0,1.4542,text_option_1,,0,157,157,200,1
5d1547d9db7eb7001af1a436,63f3cfca20052e4ae7554ebf,6453cd621d3994c973661a52,2023-05-04_17h22.23.235,ga_syllabified_check,2022.2.5,Win32,20.00640205,,,,,,,,,,,,,,./stim/p04_syllable_1_mebochiana_hit.wav,p04,mebochiana,hit,me-bo-chia-na,me-bo-chia-na,me-bo-chi-a-na, ,-0.341145833,-0.098958333,1,0,0,1.4919,text_option_1,,0,158,158,56,1
5d1547d9db7eb7001af1a436,63f3cfca20052e4ae7554ebf,6453cd621d3994c973661a52,2023-05-04_17h22.23.235,ga_syllabified_check,2022.2.5,Win32,20.00640205,,,,,,,,,,,,,,./stim/p08_syllable_1_lakaguaisto_hit.wav,p08,lakaguaisto,hit,la-ka-gu-ais-to,la-ka-guais-to,la-ka-gu-ais-to,la-ka-gua-is-to,0.373697917,-0.109375,1,0,0,3.8868,text_option_2,,0,159,159,183,1
5d1547d9db7eb7001af1a436,63f3cfca20052e4ae7554ebf,6453cd621d3994c973661a52,2023-05-04_17h22.23.235,ga_syllabified_check,2022.2.5,Win32,20.00640205,,,,,,,,,,,,,,./stim/p07_syllable_1_lakabuaisto_hit.wav,p07,lakabuaisto,hit,la-ka-buais-to,la-ka-buais-to,la-ka-bu-ais-to,la-ka-bua-is-to,-0.39453125,-0.110677083,1,0,0,2.437,text_option_1,,0,160,160,143,1
5d1547d9db7eb7001af1a436,63f3cfca20052e4ae7554ebf,6453cd621d3994c973661a52,2023-05-04_17h22.23.235,ga_syllabified_check,2022.2.5,Win32,20.00640205,,,,,,,,,,,,,,./stim/p05_syllable_1_lakagiaisto_hit.wav,p05,lakagiaisto,hit,la-ka-ki-ais-to,la-ka-giais-to,la-ka-gi-ais-to,la-ka-gia-is-to,-0.33203125,-0.118489583,1,0,0,1.693,text_option_1,,0,161,161,80,1
5d1547d9db7eb7001af1a436,63f3cfca20052e4ae7554ebf,6453cd621d3994c973661a52,2023-05-04_17h22.23.235,ga_syllabified_check,2022.2.5,Win32,20.00640205,,,,,,,,,,,,,,./stim/p04_syllable_1_lakatiaisto_hit.wav,p04,lakatiaisto,hit,la-ka-kiais-to,la-ka-tiais-to,la-ka-ti-ais-to,la-ka-tia-is-to,-0.334635417,-0.087239583,1,0,0,1.3046,text_option_1,,0,162,162,52,1
5d1547d9db7eb7001af1a436,63f3cfca20052e4ae7554ebf,6453cd621d3994c973661a52,2023-05-04_17h22.23.235,ga_syllabified_check,2022.2.5,Win32,20.00640205,,,,,,,,,,,,,,./stim/p04_syllable_1_payielo_hit.wav,p04,payielo,hit,pa-yie-lo,pa-yie-lo,pa-yi-e-lo, ,-0.352864583,-0.108072917,1,0,0,0.9628,text_option_1,,0,163,163,64,1
5d1547d9db7eb7001af1a436,63f3cfca20052e4ae7554ebf,6453cd621d3994c973661a52,2023-05-04_17h22.23.235,ga_syllabified_check,2022.2.5,Win32,20.00640205,,,,,,,,,,,,,,./stim/p07_syllable_1_falufaisto_hit.wav,p07,falufaisto,hit,fa-lu-fais-to,fa-lu-fais-to,fa-lu-fa-is-to, ,-0.368489583,-0.095052083,1,0,0,2.4158,text_option_1,,0,164,164,139,1
5d1547d9db7eb7001af1a436,63f3cfca20052e4ae7554ebf,6453cd621d3994c973661a52,2023-05-04_17h22.23.235,ga_syllabified_check,2022.2.5,Win32,20.00640205,,,,,,,,,,,,,,./stim/p04_syllable_1_lakaguaisto_hit.wav,p04,lakaguaisto,hit,la-ka-guais-to,la-ka-guais-to,la-ka-gu-ais-to,la-ka-gua-is-to,-0.368489583,-0.095052083,1,0,0,2.3702,text_option_1,,0,165,165,47,1
5d1547d9db7eb7001af1a436,63f3cfca20052e4ae7554ebf,6453cd621d3994c973661a52,2023-05-04_17h22.23.235,ga_syllabified_check,2022.2.5,Win32,20.00640205,,,,,,,,,,,,,,./stim/p04_syllable_1_lakatuaisto_hit.wav,p04,lakatuaisto,hit,la-ka-kuais-to,la-ka-tuais-to,la-ka-tu-ais-to,la-ka-tua-is-to,-0.3515625,-0.08984375,1,0,0,1.2644,text_option_1,,0,166,166,53,1
5d1547d9db7eb7001af1a436,63f3cfca20052e4ae7554ebf,6453cd621d3994c973661a52,2023-05-04_17h22.23.235,ga_syllabified_check,2022.2.5,Win32,20.00640205,,,,,,,,,,,,,,./stim/p06_syllable_1_costonhialo_hit.wav,p06,costoñialo,hit,cos-to-nhia-lo,cos-to-ñia-lo,cos-to-ñi-a-lo, ,-0.354166667,-0.1015625,1,0,0,2.7128,text_option_1,,0,167,167,103,1
5d1547d9db7eb7001af1a436,63f3cfca20052e4ae7554ebf,6453cd621d3994c973661a52,2023-05-04_17h22.23.235,ga_syllabified_check,2022.2.5,Win32,20.00640205,,,,,,,,,,,,,,./stim/p04_syllable_1_costonhialo_hit.wav,p04,costoñialo,hit,cos-to-nhia-lo,cos-to-ñia-lo,cos-to-ñi-a-lo, ,-0.348958333,-0.091145833,1,0,0,1.4351,text_option_1,,0,168,168,35,1
5d1547d9db7eb7001af1a436,63f3cfca20052e4ae7554ebf,6453cd621d3994c973661a52,2023-05-04_17h22.23.235,ga_syllabified_check,2022.2.5,Win32,20.00640205,,,,,,,,,,,,,,./stim/p03_syllable_1_lakakuaisto_hit.wav,p03,lakakuaisto,hit,la-ka-kuais-to,la-ka-kuais-to,la-ka-ku-ais-to,la-ka-kua-is-to,-0.3359375,-0.1015625,1,0,0,1.4695,text_option_1,,0,169,169,15,1
5d1547d9db7eb7001af1a436,63f3cfca20052e4ae7554ebf,6453cd621d3994c973661a52,2023-05-04_17h22.23.235,ga_syllabified_check,2022.2.5,Win32,20.00640205,,,,,,,,,,,,,,./stim/p03_syllable_1_palumaisto_hit.wav,p03,palumaisto,hit,pa-lu-mais-to,pa-lu-mais-to,pa-lu-ma-is-to, ,-0.356770833,-0.102864583,1,0,0,1.2967,text_option_1,,0,170,170,28,1
5d1547d9db7eb7001af1a436,63f3cfca20052e4ae7554ebf,6453cd621d3994c973661a52,2023-05-04_17h22.23.235,ga_syllabified_check,2022.2.5,Win32,20.00640205,,,,,,,,,,,,,,./stim/p04_syllable_1_lakakuaisto_hit.wav,p04,lakakuaisto,hit,la-ka-kuais-to,la-ka-kuais-to,la-ka-ku-ais-to,la-ka-kua-is-to,-0.341145833,-0.108072917,1,0,0,1.0841,text_option_1,,0,171,171,49,1
5d1547d9db7eb7001af1a436,63f3cfca20052e4ae7554ebf,6453cd621d3994c973661a52,2023-05-04_17h22.23.235,ga_syllabified_check,2022.2.5,Win32,20.00640205,,,,,,,,,,,,,,./stim/p04_syllable_1_lakaduaisto_hit.wav,p04,lakaduaisto,hit,la-ka-duais-to,la-ka-duais-to,la-ka-du-ais-to,la-ka-dua-is-to,-0.32421875,-0.109375,1,0,0,2.6938,text_option_1,,0,172,172,43,1
5d1547d9db7eb7001af1a436,63f3cfca20052e4ae7554ebf,6453cd621d3994c973661a52,2023-05-04_17h22.23.235,ga_syllabified_check,2022.2.5,Win32,20.00640205,,,,,,,,,,,,,,./stim/p04_syllable_1_lakagiaisto_hit.wav,p04,lakagiaisto,hit,la-ka-giais-to,la-ka-giais-to,la-ka-gi-ais-to,la-ka-gia-is-to,-0.31640625,-0.096354167,1,0,0,15.4703,text_option_1,,0,173,173,46,1
5d1547d9db7eb7001af1a436,63f3cfca20052e4ae7554ebf,6453cd621d3994c973661a52,2023-05-04_17h22.23.235,ga_syllabified_check,2022.2.5,Win32,20.00640205,,,,,,,,,,,,,,./stim/p05_syllable_1_chiaba_hit.wav,p05,chiaba,hit,chia-ba,chia-ba,chi-a-ba, ,-0.052083333,-0.295572917,1,0,0,1.7651,text_option_other,chiai-ba,0,174,174,68,1
5d1547d9db7eb7001af1a436,63f3cfca20052e4ae7554ebf,6453cd621d3994c973661a52,2023-05-04_17h22.23.235,ga_syllabified_check,2022.2.5,Win32,20.00640205,,,,,,,,,,,,,,./stim/p05_syllable_1_rausto_hit.wav,p05,rausto,hit,raus-to,raus-to,ra-us-to, ,-0.361979167,-0.114583333,1,0,0,0.5488,text_option_1,,0,175,175,99,1
5d1547d9db7eb7001af1a436,63f3cfca20052e4ae7554ebf,6453cd621d3994c973661a52,2023-05-04_17h22.23.235,ga_syllabified_check,2022.2.5,Win32,20.00640205,,,,,,,,,,,,,,./stim/p08_syllable_1_lakabuaisto_hit.wav,p08,lakabuaisto,hit,la-ka-bu-ais-to,la-ka-buais-to,la-ka-bu-ais-to,la-ka-bua-is-to,0.450520833,-0.10546875,1,0,0,3.6602,text_option_2,,0,176,176,177,1
5d1547d9db7eb7001af1a436,63f3cfca20052e4ae7554ebf,6453cd621d3994c973661a52,2023-05-04_17h22.23.235,ga_syllabified_check,2022.2.5,Win32,20.00640205,,,,,,,,,,,,,,./stim/p03_syllable_1_palufauro_hit.wav,p03,palufauro,hit,pa-lu-fau-ro,pa-lu-fau-ro,pa-lu-fa-u-ro, ,-0.42578125,-0.111979167,1,0,0,1.6746,text_option_1,,0,177,177,25,1
5d1547d9db7eb7001af1a436,63f3cfca20052e4ae7554ebf,6453cd621d3994c973661a52,2023-05-04_17h22.23.235,ga_syllabified_check,2022.2.5,Win32,20.00640205,,,,,,,,,,,,,,./stim/p08_syllable_1_lakatuaisto_hit.wav,p08,lakatuaisto,hit,la-ka-tu-i-jis,la-ka-tuais-to,la-ka-tu-ais-to,la-ka-tua-is-to,0.009114583,-0.296875,1,0,0,3.1012,text_option_other,la-ka-tuyis-to,0,178,178,189,1
5d1547d9db7eb7001af1a436,63f3cfca20052e4ae7554ebf,6453cd621d3994c973661a52,2023-05-04_17h22.23.235,ga_syllabified_check,2022.2.5,Win32,20.00640205,,,,,,,,,,,,,,./stim/p03_syllable_1_lakatiaisto_hit.wav,p03,lakatiaisto,hit,la-ka-tiais-to,la-ka-tiais-to,la-ka-ti-ais-to,la-ka-tia-is-to,-0.309895833,-0.111979167,1,0,0,1.6516,text_option_1,,0,179,179,18,1
5d1547d9db7eb7001af1a436,63f3cfca20052e4ae7554ebf,6453cd621d3994c973661a52,2023-05-04_17h22.23.235,ga_syllabified_check,2022.2.5,Win32,20.00640205,,,,,,,,,,,,,,./stim/p08_syllable_1_falutraigo_hit.wav,p08,falutraigo,hit,fa-lu-trai-go,fa-lu-trai-go,fa-lu-tra-i-go, ,-0.342447917,-0.08203125,1,0,0,3.6687,text_option_1,,0,180,180,174,1
5d1547d9db7eb7001af1a436,63f3cfca20052e4ae7554ebf,6453cd621d3994c973661a52,2023-05-04_17h22.23.235,ga_syllabified_check,2022.2.5,Win32,20.00640205,,,,,,,,,,,,,,./stim/p04_syllable_1_faluduako_hit.wav,p04,faluduako,hit,fa-lu-dua-ko,fa-lu-dua-ko,fa-lu-du-a-ko, ,-0.395833333,-0.11328125,1,0,0,1.1398,text_option_1,,0,181,181,36,1
5d1547d9db7eb7001af1a436,63f3cfca20052e4ae7554ebf,6453cd621d3994c973661a52,2023-05-04_17h22.23.235,ga_syllabified_check,2022.2.5,Win32,20.00640205,,,,,,,,,,,,,,./stim/p03_syllable_1_lliape_hit.wav,p03,lliape,hit,llia,llia-pe,lli-a-pe, ,-0.39453125,-0.110677083,1,0,0,0.8506,text_option_1,,0,182,182,20,1
5d1547d9db7eb7001af1a436,63f3cfca20052e4ae7554ebf,6453cd621d3994c973661a52,2023-05-04_17h22.23.235,ga_syllabified_check,2022.2.5,Win32,20.00640205,,,,,,,,,,,,,,./stim/p08_syllable_1_falufaisto_hit.wav,p08,falufaisto,hit,fa-lu-fais-to,fa-lu-fais-to,fa-lu-fa-is-to, ,-0.38671875,-0.1015625,1,0,0,1.8023,text_option_1,,0,183,183,173,1
5d1547d9db7eb7001af1a436,63f3cfca20052e4ae7554ebf,6453cd621d3994c973661a52,2023-05-04_17h22.23.235,ga_syllabified_check,2022.2.5,Win32,20.00640205,,,,,,,,,,,,,,./stim/p07_syllable_1_lakaguaisto_hit.wav,p07,lakaguaisto,hit,la-ka-guais-to,la-ka-guais-to,la-ka-gu-ais-to,la-ka-gua-is-to,-0.377604167,-0.104166667,1,0,0,1.9928,text_option_1,,0,184,184,149,1
5d1547d9db7eb7001af1a436,63f3cfca20052e4ae7554ebf,6453cd621d3994c973661a52,2023-05-04_17h22.23.235,ga_syllabified_check,2022.2.5,Win32,20.00640205,,,,,,,,,,,,,,./stim/p05_syllable_1_lakafiaisto_hit.wav,p05,lakafiaisto,hit,la-ka-fi-ais-to,la-ka-fiais-to,la-ka-fi-ais-to,la-ka-fia-is-to,-0.373697917,-0.109375,1,0,0,1.7623,text_option_1,,0,185,185,78,1
5d1547d9db7eb7001af1a436,63f3cfca20052e4ae7554ebf,6453cd621d3994c973661a52,2023-05-04_17h22.23.235,ga_syllabified_check,2022.2.5,Win32,20.00640205,,,,,,,,,,,,,,./stim/p03_syllable_1_lakatuaisto_hit.wav,p03,lakatuaisto,hit,la-ka-tuais-to,la-ka-tuais-to,la-ka-tu-ais-to,la-ka-tua-is-to,-0.364583333,-0.0859375,1,0,0,1.5866,text_option_1,,0,186,186,19,1
5d1547d9db7eb7001af1a436,63f3cfca20052e4ae7554ebf,6453cd621d3994c973661a52,2023-05-04_17h22.23.235,ga_syllabified_check,2022.2.5,Win32,20.00640205,,,,,,,,,,,,,,./stim/p03_syllable_1_lakapiaisto_hit.wav,p03,lakapiaisto,hit,la-ka-piais-to,la-ka-piais-to,la-ka-pi-ais-to,la-ka-pia-is-to,-0.35546875,-0.114583333,1,0,0,1.6906,text_option_1,,0,187,187,16,1
5d1547d9db7eb7001af1a436,63f3cfca20052e4ae7554ebf,6453cd621d3994c973661a52,2023-05-04_17h22.23.235,ga_syllabified_check,2022.2.5,Win32,20.00640205,,,,,,,,,,,,,,./stim/p04_syllable_1_tuliafo_hit.wav,p04,tuliafo,hit,tu-lia-fo,tu-lia-fo,tu-li-a-fo, ,-0.393229167,-0.111979167,1,0,0,2.2662,text_option_1,,0,188,188,67,1
5d1547d9db7eb7001af1a436,63f3cfca20052e4ae7554ebf,6453cd621d3994c973661a52,2023-05-04_17h22.23.235,ga_syllabified_check,2022.2.5,Win32,20.00640205,,,,,,,,,,,,,,./stim/p05_syllable_1_faluduako_hit.wav,p05,faluduako,hit,fa-lu-ba-ko,fa-lu-dua-ko,fa-lu-du-a-ko, ,-0.00390625,-0.311197917,1,0,0,1.9428,text_option_other,fa-lu-va-ko,0,189,189,70,1
5d1547d9db7eb7001af1a436,63f3cfca20052e4ae7554ebf,6453cd621d3994c973661a52,2023-05-04_17h22.23.235,ga_syllabified_check,2022.2.5,Win32,20.00640205,,,,,,,,,,,,,,./stim/p03_syllable_1_palutrauco_hit.wav,p03,palutrauco,hit,pa-lu-trau-co,pa-lu-trau-co,pa-lu-tra-u-co, ,-0.360677083,-0.095052083,1,0,0,1.2005,text_option_1,,0,190,190,29,1
5d1547d9db7eb7001af1a436,63f3cfca20052e4ae7554ebf,6453cd621d3994c973661a52,2023-05-04_17h22.23.235,ga_syllabified_check,2022.2.5,Win32,20.00640205,,,,,,,,,,,,,,./stim/p06_syllable_1_manhiala_hit.wav,p06,mañiala,hit,ma-nhi-a-la,ma-ñia-la,ma-ñi-a-la, ,0.33203125,-0.111979167,1,0,0,1.9501,text_option_2,,0,191,191,123,1
5d1547d9db7eb7001af1a436,63f3cfca20052e4ae7554ebf,6453cd621d3994c973661a52,2023-05-04_17h22.23.235,ga_syllabified_check,2022.2.5,Win32,20.00640205,,,,,,,,,,,,,,./stim/p05_syllable_1_manhiala_hit.wav,p05,mañiala,hit,ma-nhia-la,ma-ñia-la,ma-ñi-a-la, ,-0.412760417,-0.115885417,1,0,0,2.0014,text_option_1,,0,192,192,89,1
5d1547d9db7eb7001af1a436,63f3cfca20052e4ae7554ebf,6453cd621d3994c973661a52,2023-05-04_17h22.23.235,ga_syllabified_check,2022.2.5,Win32,20.00640205,,,,,,,,,,,,,,./stim/p06_syllable_1_lliape_hit.wav,p06,lliape,hit,lli-lla-pe,llia-pe,lli-a-pe, ,0.373697917,-0.098958333,1,0,0,5.0689,text_option_2,,0,193,193,122,1
5d1547d9db7eb7001af1a436,63f3cfca20052e4ae7554ebf,6453cd621d3994c973661a52,2023-05-04_17h22.23.235,ga_syllabified_check,2022.2.5,Win32,20.00640205,,,,,,,,,,,,,,./stim/p06_syllable_1_nhiape_hit.wav,p06,ñiape,hit,nhi-a-pe,ñia-pe,ñi-a-pe, ,-0.376302083,-0.09765625,1,0,0,1.6855,text_option_1,,0,194,194,125,1
5d1547d9db7eb7001af1a436,63f3cfca20052e4ae7554ebf,6453cd621d3994c973661a52,2023-05-04_17h22.23.235,ga_syllabified_check,2022.2.5,Win32,20.00640205,,,,,,,,,,,,,,./stim/p06_syllable_1_mebochiana_hit.wav,p06,mebochiana,hit,me-bo-shi-a-na,me-bo-chia-na,me-bo-chi-a-na, ,0.39453125,-0.111979167,1,0,0,3.3727,text_option_2,,0,195,195,124,1
5d1547d9db7eb7001af1a436,63f3cfca20052e4ae7554ebf,6453cd621d3994c973661a52,2023-05-04_17h22.23.235,ga_syllabified_check,2022.2.5,Win32,20.00640205,,,,,,,,,,,,,,./stim/p04_syllable_1_rausto_hit.wav,p04,rausto,hit,raus-to,raus-to,ra-us-to, ,-0.4140625,-0.104166667,1,0,0,2.334,text_option_1,,0,196,196,65,1
5d1547d9db7eb7001af1a436,63f3cfca20052e4ae7554ebf,6453cd621d3994c973661a52,2023-05-04_17h22.23.235,ga_syllabified_check,2022.2.5,Win32,20.00640205,,,,,,,,,,,,,,./stim/p08_syllable_1_palufauto_hit.wav,p08,palufauto,hit,pa-lu-fau-to,pa-lu-fau-to,pa-lu-fa-u-to, ,-0.4140625,-0.106770833,1,0,0,2.6559,text_option_1,,0,197,197,196,1
5d1547d9db7eb7001af1a436,63f3cfca20052e4ae7554ebf,6453cd621d3994c973661a52,2023-05-04_17h22.23.235,ga_syllabified_check,2022.2.5,Win32,20.00640205,,,,,,,,,,,,,,./stim/p05_syllable_1_lakaguaisto_hit.wav,p05,lakaguaisto,hit,la-ka-gais,la-ka-guais-to,la-ka-gu-ais-to,la-ka-gua-is-to,-0.055989583,-0.294270833,1,0,0,1.1987,text_option_other,laka-kais-to,0,198,198,81,1
5d1547d9db7eb7001af1a436,63f3cfca20052e4ae7554ebf,6453cd621d3994c973661a52,2023-05-04_17h22.23.235,ga_syllabified_check,2022.2.5,Win32,20.00640205,,,,,,,,,,,,,,./stim/p05_syllable_1_falutraigo_hit.wav,p05,falutraigo,hit,fa-lu-trai-go,fa-lu-trai-go,fa-lu-tra-i-go, ,-0.346354167,-0.11328125,1,0,0,3.0275,text_option_1,,0,199,199,72,1
5d1547d9db7eb7001af1a436,63f3cfca20052e4ae7554ebf,6453cd621d3994c973661a52,2023-05-04_17h22.23.235,ga_syllabified_check,2022.2.5,Win32,20.00640205,,,,,,,,,,,,,,./stim/p04_syllable_1_lakafiaisto_hit.wav,p04,lakafiaisto,hit,la-ka-fiais-to,la-ka-fiais-to,la-ka-fi-ais-to,la-ka-fia-is-to,-0.390625,-0.114583333,1,0,0,1.5006,text_option_1,,0,200,200,44,1
5d1547d9db7eb7001af1a436,63f3cfca20052e4ae7554ebf,6453cd621d3994c973661a52,2023-05-04_17h22.23.235,ga_syllabified_check,2022.2.5,Win32,20.00640205,,,,,,,,,,,,,,./stim/p03_syllable_1_lakaguaisto_hit.wav,p03,lakaguaisto,hit,la-ka-guais-to,la-ka-guais-to,la-ka-gu-ais-to,la-ka-gua-is-to,-0.341145833,-0.108072917,1,0,0,4.1825,text_option_1,,0,201,201,13,1
5d1547d9db7eb7001af1a436,63f3cfca20052e4ae7554ebf,6453cd621d3994c973661a52,2023-05-04_17h22.23.235,ga_syllabified_check,2022.2.5,Win32,20.00640205,,,,,,,,,,,,,,./stim/p03_syllable_1_lakafiaisto_hit.wav,p03,lakafiaisto,hit,la-ka-fiais-to,la-ka-fiais-to,la-ka-fi-ais-to,la-ka-fia-is-to,-0.330729167,-0.102864583,1,0,0,1.4166,text_option_1,,0,202,202,10,1
5d1547d9db7eb7001af1a436,63f3cfca20052e4ae7554ebf,6453cd621d3994c973661a52,2023-05-04_17h22.23.235,ga_syllabified_check,2022.2.5,Win32,20.00640205,,,,,,,,,,,,,,./stim/p08_syllable_1_lakabiaisto_hit.wav,p08,lakabiaisto,hit,la-ka-bi-as-to,la-ka-biais-to,la-ka-bi-ais-to,la-ka-bia-is-to,0.046875,-0.298177083,1,0,0,3.4793,text_option_other,la-ka-bi-as-to,0,203,203,176,1
5d1547d9db7eb7001af1a436,63f3cfca20052e4ae7554ebf,6453cd621d3994c973661a52,2023-05-04_17h22.23.235,ga_syllabified_check,2022.2.5,Win32,20.00640205,,,,,,,,,,,,,,,,,,,,,,,,,,,,,,,,,,
