participant,study,session,date,expName,psychopyVersion,OS,frameRate,mouse_practice.x,mouse_practice.y,mouse_practice.leftButton,mouse_practice.midButton,mouse_practice.rightButton,mouse_practice.time,mouse_practice.clicked_name,textbox_followup_practice.text,trials_practice.thisRepN,trials_practice.thisTrialN,trials_practice.thisN,trials_practice.thisIndex,trials_practice.ran,file_path,id,item,status,response,op1,op2,op3,mouse.x,mouse.y,mouse.leftButton,mouse.midButton,mouse.rightButton,mouse.time,mouse.clicked_name,textbox_followup.text,trials.thisRepN,trials.thisTrialN,trials.thisN,trials.thisIndex,trials.ran
5d5a7d896c04b2001a1edff8,63f3cfca20052e4ae7554ebf,6453ca62ea5aec566f0ac32d,2023-05-04_17h09.24.236,ga_syllabified_check,2022.2.5,Win32,60.07810153,,,,,,,,,,,,,,,,,,,,,,,,,,,,,,,,,,
5d5a7d896c04b2001a1edff8,63f3cfca20052e4ae7554ebf,6453ca62ea5aec566f0ac32d,2023-05-04_17h09.24.236,ga_syllabified_check,2022.2.5,Win32,60.07810153,-0.393229167,-0.1015625,1,0,0,4.6921,text_option_1_practice,,0,0,0,0,1,./stim/p03_syllable_1_liamo_hit.wav,p03,liamo,hit,lia-mo,lia-mo,li-a-mo, ,,,,,,,,,,,,,
5d5a7d896c04b2001a1edff8,63f3cfca20052e4ae7554ebf,6453ca62ea5aec566f0ac32d,2023-05-04_17h09.24.236,ga_syllabified_check,2022.2.5,Win32,60.07810153,-0.430989583,-0.114583333,1,0,0,3.2196,text_option_1_practice,,0,1,1,1,1,./stim/p05_syllable_1_matio_hit.wav,p05,matio,hit,ma-tio,ma-tio,ma-ti-o, ,,,,,,,,,,,,,
5d5a7d896c04b2001a1edff8,63f3cfca20052e4ae7554ebf,6453ca62ea5aec566f0ac32d,2023-05-04_17h09.24.236,ga_syllabified_check,2022.2.5,Win32,60.07810153,-0.43359375,-0.109375,1,0,0,10.9465,text_option_1_practice,,0,2,2,2,1,./stim/p08_syllable_1_liamo_hit.wav,p08,liamo,hit,ja-mo,lia-mo,li-a-mo, ,,,,,,,,,,,,,
5d5a7d896c04b2001a1edff8,63f3cfca20052e4ae7554ebf,6453ca62ea5aec566f0ac32d,2023-05-04_17h09.24.236,ga_syllabified_check,2022.2.5,Win32,60.07810153,,,,,,,,,,,,,,,,,,,,,,,,,,,,,,,,,,
5d5a7d896c04b2001a1edff8,63f3cfca20052e4ae7554ebf,6453ca62ea5aec566f0ac32d,2023-05-04_17h09.24.236,ga_syllabified_check,2022.2.5,Win32,60.07810153,,,,,,,,,,,,,,./stim/p05_syllable_1_faluduako_hit.wav,p05,faluduako,hit,fa-lu-ba-ko,fa-lu-dua-ko,fa-lu-du-a-ko, ,0.477864583,-0.109375,1,0,0,8.1484,text_option_2,,0,0,0,70,1
5d5a7d896c04b2001a1edff8,63f3cfca20052e4ae7554ebf,6453ca62ea5aec566f0ac32d,2023-05-04_17h09.24.236,ga_syllabified_check,2022.2.5,Win32,60.07810153,,,,,,,,,,,,,,./stim/p07_syllable_1_lakadiaisto_hit.wav,p07,lakadiaisto,hit,la-ka-dia-is-to,la-ka-diais-to,la-ka-di-ais-to,la-ka-dia-is-to,0.05859375,-0.102864583,1,0,0,3.8153,text_option_3,,0,1,1,144,1
5d5a7d896c04b2001a1edff8,63f3cfca20052e4ae7554ebf,6453ca62ea5aec566f0ac32d,2023-05-04_17h09.24.236,ga_syllabified_check,2022.2.5,Win32,60.07810153,,,,,,,,,,,,,,./stim/p04_syllable_1_tuliafo_hit.wav,p04,tuliafo,hit,tu-lia-fo,tu-lia-fo,tu-li-a-fo, ,-0.399739583,-0.108072917,1,0,0,2.1991,text_option_1,,0,2,2,67,1
5d5a7d896c04b2001a1edff8,63f3cfca20052e4ae7554ebf,6453ca62ea5aec566f0ac32d,2023-05-04_17h09.24.236,ga_syllabified_check,2022.2.5,Win32,60.07810153,,,,,,,,,,,,,,./stim/p08_syllable_1_falutraigo_hit.wav,p08,falutraigo,hit,fa-lu-trai-go,fa-lu-trai-go,fa-lu-tra-i-go, ,-0.354166667,-0.100260417,1,0,0,4.7175,text_option_1,,0,3,3,174,1
5d5a7d896c04b2001a1edff8,63f3cfca20052e4ae7554ebf,6453ca62ea5aec566f0ac32d,2023-05-04_17h09.24.236,ga_syllabified_check,2022.2.5,Win32,60.07810153,,,,,,,,,,,,,,./stim/p05_syllable_1_nhiape_hit.wav,p05,ñiape,hit,nhia-pe,ñia-pe,ñi-a-pe, ,-0.404947917,-0.106770833,1,0,0,1.6589,text_option_1,,0,4,4,91,1
5d5a7d896c04b2001a1edff8,63f3cfca20052e4ae7554ebf,6453ca62ea5aec566f0ac32d,2023-05-04_17h09.24.236,ga_syllabified_check,2022.2.5,Win32,60.07810153,,,,,,,,,,,,,,./stim/p05_syllable_1_manhiala_hit.wav,p05,mañiala,hit,ma-nhia-la,ma-ñia-la,ma-ñi-a-la, ,-0.356770833,-0.102864583,1,0,0,4.9659,text_option_1,,0,5,5,89,1
5d5a7d896c04b2001a1edff8,63f3cfca20052e4ae7554ebf,6453ca62ea5aec566f0ac32d,2023-05-04_17h09.24.236,ga_syllabified_check,2022.2.5,Win32,60.07810153,,,,,,,,,,,,,,./stim/p08_syllable_1_palumaisto_hit.wav,p08,palumaisto,hit,pa-lu-mais-to,pa-lu-mais-to,pa-lu-ma-is-to, ,-0.403645833,-0.098958333,1,0,0,3.1873,text_option_1,,0,6,6,198,1
5d5a7d896c04b2001a1edff8,63f3cfca20052e4ae7554ebf,6453ca62ea5aec566f0ac32d,2023-05-04_17h09.24.236,ga_syllabified_check,2022.2.5,Win32,60.07810153,,,,,,,,,,,,,,./stim/p03_syllable_1_faluduako_hit.wav,p03,faluduako,hit,fa-lu-dua-ko,fa-lu-dua-ko,fa-lu-du-a-ko, ,-0.35546875,-0.1015625,1,0,0,4.05,text_option_1,,0,7,7,2,1
5d5a7d896c04b2001a1edff8,63f3cfca20052e4ae7554ebf,6453ca62ea5aec566f0ac32d,2023-05-04_17h09.24.236,ga_syllabified_check,2022.2.5,Win32,60.07810153,,,,,,,,,,,,,,./stim/p06_syllable_1_chiaba_hit.wav,p06,chiaba,hit,chi-a-ba,chia-ba,chi-a-ba, ,-0.38671875,-0.1015625,1,0,0,2.215,text_option_1,,0,8,8,102,1
5d5a7d896c04b2001a1edff8,63f3cfca20052e4ae7554ebf,6453ca62ea5aec566f0ac32d,2023-05-04_17h09.24.236,ga_syllabified_check,2022.2.5,Win32,60.07810153,,,,,,,,,,,,,,./stim/p04_syllable_1_lakafuaisto_hit.wav,p04,lakafuaisto,hit,la-ka-fuais-to,la-ka-fuais-to,la-ka-fu-ais-to,la-ka-fua-is-to,-0.368489583,-0.106770833,1,0,0,2.6812,text_option_1,,0,9,9,45,1
5d5a7d896c04b2001a1edff8,63f3cfca20052e4ae7554ebf,6453ca62ea5aec566f0ac32d,2023-05-04_17h09.24.236,ga_syllabified_check,2022.2.5,Win32,60.07810153,,,,,,,,,,,,,,./stim/p07_syllable_1_lakagiaisto_hit.wav,p07,lakagiaisto,hit,la-ka-gais-to,la-ka-giais-to,la-ka-gi-ais-to,la-ka-gia-is-to,-0.3515625,-0.10546875,1,0,0,8.2471,text_option_1,,0,10,10,148,1
5d5a7d896c04b2001a1edff8,63f3cfca20052e4ae7554ebf,6453ca62ea5aec566f0ac32d,2023-05-04_17h09.24.236,ga_syllabified_check,2022.2.5,Win32,60.07810153,,,,,,,,,,,,,,./stim/p03_syllable_1_palufauto_hit.wav,p03,palufauto,hit,pa-lu-fau,pa-lu-fau-to,pa-lu-fa-u-to, ,-0.408854167,-0.092447917,1,0,0,1.8655,text_option_1,,0,11,11,26,1
5d5a7d896c04b2001a1edff8,63f3cfca20052e4ae7554ebf,6453ca62ea5aec566f0ac32d,2023-05-04_17h09.24.236,ga_syllabified_check,2022.2.5,Win32,60.07810153,,,,,,,,,,,,,,./stim/p08_syllable_1_lliape_hit.wav,p08,lliape,hit,li-a-pe,llia-pe,lli-a-pe, ,0.42578125,-0.096354167,1,0,0,3.1501,text_option_2,,0,12,12,190,1
5d5a7d896c04b2001a1edff8,63f3cfca20052e4ae7554ebf,6453ca62ea5aec566f0ac32d,2023-05-04_17h09.24.236,ga_syllabified_check,2022.2.5,Win32,60.07810153,,,,,,,,,,,,,,./stim/p03_syllable_1_lliape_hit.wav,p03,lliape,hit,llia,llia-pe,lli-a-pe, ,-0.404947917,-0.106770833,1,0,0,2.8503,text_option_1,,0,13,13,20,1
5d5a7d896c04b2001a1edff8,63f3cfca20052e4ae7554ebf,6453ca62ea5aec566f0ac32d,2023-05-04_17h09.24.236,ga_syllabified_check,2022.2.5,Win32,60.07810153,,,,,,,,,,,,,,./stim/p08_syllable_1_pachialo_hit.wav,p08,pachialo,hit,pa-chi-ja-lo,pa-chia-lo,pa-chi-a-lo, ,0.447916667,-0.10546875,1,0,0,2.3165,text_option_2,,0,14,14,194,1
5d5a7d896c04b2001a1edff8,63f3cfca20052e4ae7554ebf,6453ca62ea5aec566f0ac32d,2023-05-04_17h09.24.236,ga_syllabified_check,2022.2.5,Win32,60.07810153,,,,,,,,,,,,,,./stim/p08_syllable_1_lakaduaisto_hit.wav,p08,lakaduaisto,hit,la-ka-du-ais-to,la-ka-duais-to,la-ka-du-ais-to,la-ka-dua-is-to,0.44140625,-0.096354167,1,0,0,3.7164,text_option_2,,0,15,15,179,1
5d5a7d896c04b2001a1edff8,63f3cfca20052e4ae7554ebf,6453ca62ea5aec566f0ac32d,2023-05-04_17h09.24.236,ga_syllabified_check,2022.2.5,Win32,60.07810153,,,,,,,,,,,,,,./stim/p07_syllable_1_lakatiaisto_hit.wav,p07,lakatiaisto,hit,la-ka-tiai-sto,la-ka-tiais-to,la-ka-ti-ais-to,la-ka-tia-is-to,0.03125,-0.315104167,1,0,0,6.6973,text_option_other,la-ka-iai-sto,0,16,16,154,1
5d5a7d896c04b2001a1edff8,63f3cfca20052e4ae7554ebf,6453ca62ea5aec566f0ac32d,2023-05-04_17h09.24.236,ga_syllabified_check,2022.2.5,Win32,60.07810153,,,,,,,,,,,,,,./stim/p05_syllable_1_palumaisto_hit.wav,p05,palumaisto,hit,pa-lu-mais-to,pa-lu-mais-to,pa-lu-ma-is-to, ,-0.329427083,-0.096354167,1,0,0,2.4352,text_option_1,,0,17,17,96,1
5d5a7d896c04b2001a1edff8,63f3cfca20052e4ae7554ebf,6453ca62ea5aec566f0ac32d,2023-05-04_17h09.24.236,ga_syllabified_check,2022.2.5,Win32,60.07810153,,,,,,,,,,,,,,./stim/p06_syllable_1_ruyiola_hit.wav,p06,ruyiola,hit,ru-yi-o-la,ru-yio-la,ru-yi-o-la, ,0.444010417,-0.098958333,1,0,0,1.9489,text_option_2,,0,18,18,134,1
5d5a7d896c04b2001a1edff8,63f3cfca20052e4ae7554ebf,6453ca62ea5aec566f0ac32d,2023-05-04_17h09.24.236,ga_syllabified_check,2022.2.5,Win32,60.07810153,,,,,,,,,,,,,,./stim/p04_syllable_1_lliape_hit.wav,p04,lliape,hit,lia-pe,llia-pe,lli-a-pe, ,-0.446614583,-0.102864583,1,0,0,0.8664,text_option_1,,0,19,19,54,1
5d5a7d896c04b2001a1edff8,63f3cfca20052e4ae7554ebf,6453ca62ea5aec566f0ac32d,2023-05-04_17h09.24.236,ga_syllabified_check,2022.2.5,Win32,60.07810153,,,,,,,,,,,,,,./stim/p07_syllable_1_tuliafo_hit.wav,p07,tuliafo,hit,tu-lia-fo,tu-lia-fo,tu-li-a-fo, ,-0.389322917,-0.106770833,1,0,0,1.0508,text_option_1,,0,20,20,169,1
5d5a7d896c04b2001a1edff8,63f3cfca20052e4ae7554ebf,6453ca62ea5aec566f0ac32d,2023-05-04_17h09.24.236,ga_syllabified_check,2022.2.5,Win32,60.07810153,,,,,,,,,,,,,,./stim/p03_syllable_1_lakafuaisto_hit.wav,p03,lakafuaisto,hit,la-ka-fuais-to,la-ka-fuais-to,la-ka-fu-ais-to,la-ka-fua-is-to,-0.40234375,-0.108072917,1,0,0,2.4925,text_option_1,,0,21,21,11,1
5d5a7d896c04b2001a1edff8,63f3cfca20052e4ae7554ebf,6453ca62ea5aec566f0ac32d,2023-05-04_17h09.24.236,ga_syllabified_check,2022.2.5,Win32,60.07810153,,,,,,,,,,,,,,./stim/p06_syllable_1_palumaisto_hit.wav,p06,palumaisto,hit,pa-lu-ma-is-to,pa-lu-mais-to,pa-lu-ma-is-to, ,0.446614583,-0.104166667,1,0,0,3.2172,text_option_2,,0,22,22,130,1
5d5a7d896c04b2001a1edff8,63f3cfca20052e4ae7554ebf,6453ca62ea5aec566f0ac32d,2023-05-04_17h09.24.236,ga_syllabified_check,2022.2.5,Win32,60.07810153,,,,,,,,,,,,,,./stim/p07_syllable_1_mebochiana_hit.wav,p07,mebochiana,hit,me-bo-chia-na,me-bo-chia-na,me-bo-chi-a-na, ,-0.35546875,-0.102864583,1,0,0,2.599,text_option_1,,0,23,23,158,1
5d5a7d896c04b2001a1edff8,63f3cfca20052e4ae7554ebf,6453ca62ea5aec566f0ac32d,2023-05-04_17h09.24.236,ga_syllabified_check,2022.2.5,Win32,60.07810153,,,,,,,,,,,,,,./stim/p05_syllable_1_lakakiaisto_hit.wav,p05,lakakiaisto,hit,la-ka-ki-ais-to,la-ka-kiais-to,la-ka-ki-ais-to,la-ka-kia-is-to,-0.442708333,-0.095052083,1,0,0,2.3167,text_option_1,,0,24,24,82,1
5d5a7d896c04b2001a1edff8,63f3cfca20052e4ae7554ebf,6453ca62ea5aec566f0ac32d,2023-05-04_17h09.24.236,ga_syllabified_check,2022.2.5,Win32,60.07810153,,,,,,,,,,,,,,./stim/p07_syllable_1_payielo_hit.wav,p07,payielo,hit,pa-yie-lo,pa-yie-lo,pa-yi-e-lo, ,-0.39453125,-0.102864583,1,0,0,1.35,text_option_1,,0,25,25,166,1
5d5a7d896c04b2001a1edff8,63f3cfca20052e4ae7554ebf,6453ca62ea5aec566f0ac32d,2023-05-04_17h09.24.236,ga_syllabified_check,2022.2.5,Win32,60.07810153,,,,,,,,,,,,,,./stim/p03_syllable_1_falutraigo_hit.wav,p03,falutraigo,hit,fa-lu-trai-go,fa-lu-trai-go,fa-lu-tra-i-go, ,-0.361979167,-0.09375,1,0,0,2.1554,text_option_1,,0,26,26,4,1
5d5a7d896c04b2001a1edff8,63f3cfca20052e4ae7554ebf,6453ca62ea5aec566f0ac32d,2023-05-04_17h09.24.236,ga_syllabified_check,2022.2.5,Win32,60.07810153,,,,,,,,,,,,,,./stim/p06_syllable_1_palufauto_hit.wav,p06,palufauto,hit,pa-lu-fau-to,pa-lu-fau-to,pa-lu-fa-u-to, ,-0.412760417,-0.08984375,1,0,0,3.133,text_option_1,,0,27,27,128,1
5d5a7d896c04b2001a1edff8,63f3cfca20052e4ae7554ebf,6453ca62ea5aec566f0ac32d,2023-05-04_17h09.24.236,ga_syllabified_check,2022.2.5,Win32,60.07810153,,,,,,,,,,,,,,./stim/p08_syllable_1_payielo_hit.wav,p08,payielo,hit,pa-yie-lo,pa-yie-lo,pa-yi-e-lo, ,-0.37109375,-0.10546875,1,0,0,4.4831,text_option_1,,0,28,28,200,1
5d5a7d896c04b2001a1edff8,63f3cfca20052e4ae7554ebf,6453ca62ea5aec566f0ac32d,2023-05-04_17h09.24.236,ga_syllabified_check,2022.2.5,Win32,60.07810153,,,,,,,,,,,,,,./stim/p06_syllable_1_lakapiaisto_hit.wav,p06,lakapiaisto,hit,la-ka-pia-is-to,la-ka-piais-to,la-ka-pi-ais-to,la-ka-pia-is-to,0.041666667,-0.104166667,1,0,0,4.9273,text_option_3,,0,29,29,118,1
5d5a7d896c04b2001a1edff8,63f3cfca20052e4ae7554ebf,6453ca62ea5aec566f0ac32d,2023-05-04_17h09.24.236,ga_syllabified_check,2022.2.5,Win32,60.07810153,,,,,,,,,,,,,,./stim/p05_syllable_1_lakatuaisto_hit.wav,p05,lakatuaisto,hit,la-ka-tais-to,la-ka-tuais-to,la-ka-tu-ais-to,la-ka-tua-is-to,0.02734375,-0.307291667,1,0,0,4.2352,text_option_other,la-ka-tais-to,0,30,30,87,1
5d5a7d896c04b2001a1edff8,63f3cfca20052e4ae7554ebf,6453ca62ea5aec566f0ac32d,2023-05-04_17h09.24.236,ga_syllabified_check,2022.2.5,Win32,60.07810153,,,,,,,,,,,,,,./stim/p08_syllable_1_lakapuaisto_hit.wav,p08,lakapuaisto,hit,la-ka-pu-as-to,la-ka-puais-to,la-ka-pu-ais-to,la-ka-pua-is-to,0.463541667,-0.110677083,1,0,0,7.4307,text_option_2,,0,31,31,187,1
5d5a7d896c04b2001a1edff8,63f3cfca20052e4ae7554ebf,6453ca62ea5aec566f0ac32d,2023-05-04_17h09.24.236,ga_syllabified_check,2022.2.5,Win32,60.07810153,,,,,,,,,,,,,,./stim/p07_syllable_1_costonhialo_hit.wav,p07,costoñialo,hit,cos-to-nhia-lo,cos-to-ñia-lo,cos-to-ñi-a-lo, ,-0.473958333,-0.08984375,1,0,0,2.4649,text_option_1,,0,32,32,137,1
5d5a7d896c04b2001a1edff8,63f3cfca20052e4ae7554ebf,6453ca62ea5aec566f0ac32d,2023-05-04_17h09.24.236,ga_syllabified_check,2022.2.5,Win32,60.07810153,,,,,,,,,,,,,,./stim/p06_syllable_1_lakakiaisto_hit.wav,p06,lakakiaisto,hit,la-ka-kia-is-to,la-ka-kiais-to,la-ka-ki-ais-to,la-ka-kia-is-to,0.005208333,-0.10546875,1,0,0,4.5644,text_option_3,,0,33,33,116,1
5d5a7d896c04b2001a1edff8,63f3cfca20052e4ae7554ebf,6453ca62ea5aec566f0ac32d,2023-05-04_17h09.24.236,ga_syllabified_check,2022.2.5,Win32,60.07810153,,,,,,,,,,,,,,./stim/p06_syllable_1_payielo_hit.wav,p06,payielo,hit,pa-yi-e-lo,pa-yie-lo,pa-yi-e-lo, ,0.408854167,-0.098958333,1,0,0,1.9511,text_option_2,,0,34,34,132,1
5d5a7d896c04b2001a1edff8,63f3cfca20052e4ae7554ebf,6453ca62ea5aec566f0ac32d,2023-05-04_17h09.24.236,ga_syllabified_check,2022.2.5,Win32,60.07810153,,,,,,,,,,,,,,./stim/p04_syllable_1_lakakuaisto_hit.wav,p04,lakakuaisto,hit,la-ka-kuais-to,la-ka-kuais-to,la-ka-ku-ais-to,la-ka-kua-is-to,-0.403645833,-0.110677083,1,0,0,1.7164,text_option_1,,0,35,35,49,1
5d5a7d896c04b2001a1edff8,63f3cfca20052e4ae7554ebf,6453ca62ea5aec566f0ac32d,2023-05-04_17h09.24.236,ga_syllabified_check,2022.2.5,Win32,60.07810153,,,,,,,,,,,,,,./stim/p04_syllable_1_lakagiaisto_hit.wav,p04,lakagiaisto,hit,la-ka-giais-to,la-ka-giais-to,la-ka-gi-ais-to,la-ka-gia-is-to,-0.380208333,-0.09765625,1,0,0,2.5666,text_option_1,,0,36,36,46,1
5d5a7d896c04b2001a1edff8,63f3cfca20052e4ae7554ebf,6453ca62ea5aec566f0ac32d,2023-05-04_17h09.24.236,ga_syllabified_check,2022.2.5,Win32,60.07810153,,,,,,,,,,,,,,./stim/p06_syllable_1_lakabuaisto_hit.wav,p06,lakabuaisto,hit,la-ka-bu-a-is,la-ka-buais-to,la-ka-bu-ais-to,la-ka-bua-is-to,0.01953125,-0.303385417,1,0,0,5.8077,text_option_other,la-ka-bu-ais-to,0,37,37,109,1
5d5a7d896c04b2001a1edff8,63f3cfca20052e4ae7554ebf,6453ca62ea5aec566f0ac32d,2023-05-04_17h09.24.236,ga_syllabified_check,2022.2.5,Win32,60.07810153,,,,,,,,,,,,,,./stim/p05_syllable_1_lakaduaisto_hit.wav,p05,lakaduaisto,hit,la-ka-dais-to,la-ka-duais-to,la-ka-du-ais-to,la-ka-dua-is-to,0.407552083,-0.098958333,1,0,0,4.5819,text_option_2,,0,38,38,77,1
5d5a7d896c04b2001a1edff8,63f3cfca20052e4ae7554ebf,6453ca62ea5aec566f0ac32d,2023-05-04_17h09.24.236,ga_syllabified_check,2022.2.5,Win32,60.07810153,,,,,,,,,,,,,,./stim/p06_syllable_1_faluduako_hit.wav,p06,faluduako,hit,fa-lu-dua-ko,fa-lu-dua-ko,fa-lu-du-a-ko, ,-0.364583333,-0.111979167,1,0,0,5.1818,text_option_1,,0,39,39,104,1
5d5a7d896c04b2001a1edff8,63f3cfca20052e4ae7554ebf,6453ca62ea5aec566f0ac32d,2023-05-04_17h09.24.236,ga_syllabified_check,2022.2.5,Win32,60.07810153,,,,,,,,,,,,,,./stim/p08_syllable_1_ruyiola_hit.wav,p08,ruyiola,hit,ru-yio-la,ru-yio-la,ru-yi-o-la, ,-0.364583333,-0.106770833,1,0,0,1.6652,text_option_1,,0,40,40,202,1
5d5a7d896c04b2001a1edff8,63f3cfca20052e4ae7554ebf,6453ca62ea5aec566f0ac32d,2023-05-04_17h09.24.236,ga_syllabified_check,2022.2.5,Win32,60.07810153,,,,,,,,,,,,,,./stim/p05_syllable_1_falufaisto_hit.wav,p05,falufaisto,hit,fa-lu-fais-to,fa-lu-fais-to,fa-lu-fa-is-to, ,-0.390625,-0.09765625,1,0,0,1.0506,text_option_1,,0,41,41,71,1
5d5a7d896c04b2001a1edff8,63f3cfca20052e4ae7554ebf,6453ca62ea5aec566f0ac32d,2023-05-04_17h09.24.236,ga_syllabified_check,2022.2.5,Win32,60.07810153,,,,,,,,,,,,,,./stim/p04_syllable_1_falufaisto_hit.wav,p04,falufaisto,hit,fa-lu-fais-to,fa-lu-fais-to,fa-lu-fa-is-to, ,-0.41015625,-0.0859375,1,0,0,1.6668,text_option_1,,0,42,42,37,1
5d5a7d896c04b2001a1edff8,63f3cfca20052e4ae7554ebf,6453ca62ea5aec566f0ac32d,2023-05-04_17h09.24.236,ga_syllabified_check,2022.2.5,Win32,60.07810153,,,,,,,,,,,,,,./stim/p07_syllable_1_lliape_hit.wav,p07,lliape,hit,lliai-pe,llia-pe,lli-a-pe, ,-0.395833333,-0.096354167,1,0,0,1.409,text_option_1,,0,43,43,156,1
5d5a7d896c04b2001a1edff8,63f3cfca20052e4ae7554ebf,6453ca62ea5aec566f0ac32d,2023-05-04_17h09.24.236,ga_syllabified_check,2022.2.5,Win32,60.07810153,,,,,,,,,,,,,,./stim/p08_syllable_1_falufaisto_hit.wav,p08,falufaisto,hit,fa-lu-fais-to,fa-lu-fais-to,fa-lu-fa-is-to, ,-0.375,-0.109375,1,0,0,2.3002,text_option_1,,0,44,44,173,1
5d5a7d896c04b2001a1edff8,63f3cfca20052e4ae7554ebf,6453ca62ea5aec566f0ac32d,2023-05-04_17h09.24.236,ga_syllabified_check,2022.2.5,Win32,60.07810153,,,,,,,,,,,,,,./stim/p03_syllable_1_ruyiola_hit.wav,p03,ruyiola,hit,ru-yio-la,ru-yio-la,ru-yi-o-la, ,-0.385416667,-0.100260417,1,0,0,0.8077,text_option_1,,0,45,45,32,1
5d5a7d896c04b2001a1edff8,63f3cfca20052e4ae7554ebf,6453ca62ea5aec566f0ac32d,2023-05-04_17h09.24.236,ga_syllabified_check,2022.2.5,Win32,60.07810153,,,,,,,,,,,,,,./stim/p07_syllable_1_faluduako_hit.wav,p07,faluduako,hit,fa-lu-dua-ko,fa-lu-dua-ko,fa-lu-du-a-ko, ,-0.37890625,-0.108072917,1,0,0,2.1164,text_option_1,,0,46,46,138,1
5d5a7d896c04b2001a1edff8,63f3cfca20052e4ae7554ebf,6453ca62ea5aec566f0ac32d,2023-05-04_17h09.24.236,ga_syllabified_check,2022.2.5,Win32,60.07810153,,,,,,,,,,,,,,./stim/p04_syllable_1_nhiape_hit.wav,p04,ñiape,hit,nhia-pe,ñia-pe,ñi-a-pe, ,-0.381510417,-0.096354167,1,0,0,0.4499,text_option_1,,0,47,47,57,1
5d5a7d896c04b2001a1edff8,63f3cfca20052e4ae7554ebf,6453ca62ea5aec566f0ac32d,2023-05-04_17h09.24.236,ga_syllabified_check,2022.2.5,Win32,60.07810153,,,,,,,,,,,,,,./stim/p03_syllable_1_nhiape_hit.wav,p03,ñiape,hit,nhia-pe,ñia-pe,ñi-a-pe, ,-0.369791667,-0.096354167,1,0,0,2.5819,text_option_1,,0,48,48,23,1
5d5a7d896c04b2001a1edff8,63f3cfca20052e4ae7554ebf,6453ca62ea5aec566f0ac32d,2023-05-04_17h09.24.236,ga_syllabified_check,2022.2.5,Win32,60.07810153,,,,,,,,,,,,,,./stim/p04_syllable_1_palufauro_hit.wav,p04,palufauro,hit,pa-lu-fau-ro,pa-lu-fau-ro,pa-lu-fa-u-ro, ,-0.352864583,-0.096354167,1,0,0,1.8422,text_option_1,,0,49,49,59,1
5d5a7d896c04b2001a1edff8,63f3cfca20052e4ae7554ebf,6453ca62ea5aec566f0ac32d,2023-05-04_17h09.24.236,ga_syllabified_check,2022.2.5,Win32,60.07810153,,,,,,,,,,,,,,./stim/p03_syllable_1_palutrauco_hit.wav,p03,palutrauco,hit,pa-lu-trau-co,pa-lu-trau-co,pa-lu-tra-u-co, ,-0.373697917,-0.108072917,1,0,0,1.1413,text_option_1,,0,50,50,29,1
5d5a7d896c04b2001a1edff8,63f3cfca20052e4ae7554ebf,6453ca62ea5aec566f0ac32d,2023-05-04_17h09.24.236,ga_syllabified_check,2022.2.5,Win32,60.07810153,,,,,,,,,,,,,,./stim/p03_syllable_1_lakakiaisto_hit.wav,p03,lakakiaisto,hit,la-ka-kiais-to,la-ka-kiais-to,la-ka-ki-ais-to,la-ka-kia-is-to,-0.397135417,-0.098958333,1,0,0,1.8996,text_option_1,,0,51,51,14,1
5d5a7d896c04b2001a1edff8,63f3cfca20052e4ae7554ebf,6453ca62ea5aec566f0ac32d,2023-05-04_17h09.24.236,ga_syllabified_check,2022.2.5,Win32,60.07810153,,,,,,,,,,,,,,./stim/p05_syllable_1_lakakuaisto_hit.wav,p05,lakakuaisto,hit,la-ka-kais-to,la-ka-kuais-to,la-ka-ku-ais-to,la-ka-kua-is-to,-0.385416667,-0.114583333,1,0,0,4.2989,text_option_1,,0,52,52,83,1
5d5a7d896c04b2001a1edff8,63f3cfca20052e4ae7554ebf,6453ca62ea5aec566f0ac32d,2023-05-04_17h09.24.236,ga_syllabified_check,2022.2.5,Win32,60.07810153,,,,,,,,,,,,,,./stim/p08_syllable_1_lakabuaisto_hit.wav,p08,lakabuaisto,hit,la-ka-bu-ais-to,la-ka-buais-to,la-ka-bu-ais-to,la-ka-bua-is-to,0.436197917,-0.102864583,1,0,0,2.6161,text_option_2,,0,53,53,177,1
5d5a7d896c04b2001a1edff8,63f3cfca20052e4ae7554ebf,6453ca62ea5aec566f0ac32d,2023-05-04_17h09.24.236,ga_syllabified_check,2022.2.5,Win32,60.07810153,,,,,,,,,,,,,,./stim/p08_syllable_1_lakabiaisto_hit.wav,p08,lakabiaisto,hit,la-ka-bi-as-to,la-ka-biais-to,la-ka-bi-ais-to,la-ka-bia-is-to,0.4453125,-0.09375,1,0,0,3.3753,text_option_2,,0,54,54,176,1
5d5a7d896c04b2001a1edff8,63f3cfca20052e4ae7554ebf,6453ca62ea5aec566f0ac32d,2023-05-04_17h09.24.236,ga_syllabified_check,2022.2.5,Win32,60.07810153,,,,,,,,,,,,,,./stim/p08_syllable_1_flauro_hit.wav,p08,flauro,hit,flau-ro,flau-ro,fla-u-ro, ,-0.403645833,-0.096354167,1,0,0,0.9658,text_option_1,,0,55,55,175,1
5d5a7d896c04b2001a1edff8,63f3cfca20052e4ae7554ebf,6453ca62ea5aec566f0ac32d,2023-05-04_17h09.24.236,ga_syllabified_check,2022.2.5,Win32,60.07810153,,,,,,,,,,,,,,./stim/p08_syllable_1_lakagiaisto_hit.wav,p08,lakagiaisto,hit,la-ka-gi-jas-to,la-ka-giais-to,la-ka-gi-ais-to,la-ka-gia-is-to,0.428385417,-0.106770833,1,0,0,4.0823,text_option_2,,0,56,56,182,1
5d5a7d896c04b2001a1edff8,63f3cfca20052e4ae7554ebf,6453ca62ea5aec566f0ac32d,2023-05-04_17h09.24.236,ga_syllabified_check,2022.2.5,Win32,60.07810153,,,,,,,,,,,,,,./stim/p05_syllable_1_palufauto_hit.wav,p05,palufauto,hit,pa-lu-fau-to,pa-lu-fau-to,pa-lu-fa-u-to, ,-0.388020833,-0.098958333,1,0,0,1.1156,text_option_1,,0,57,57,94,1
5d5a7d896c04b2001a1edff8,63f3cfca20052e4ae7554ebf,6453ca62ea5aec566f0ac32d,2023-05-04_17h09.24.236,ga_syllabified_check,2022.2.5,Win32,60.07810153,,,,,,,,,,,,,,./stim/p04_syllable_1_lakakiaisto_hit.wav,p04,lakakiaisto,hit,la-ka-kiais-to,la-ka-kiais-to,la-ka-ki-ais-to,la-ka-kia-is-to,-0.397135417,-0.1015625,1,0,0,2.0163,text_option_1,,0,58,58,48,1
5d5a7d896c04b2001a1edff8,63f3cfca20052e4ae7554ebf,6453ca62ea5aec566f0ac32d,2023-05-04_17h09.24.236,ga_syllabified_check,2022.2.5,Win32,60.07810153,,,,,,,,,,,,,,./stim/p04_syllable_1_lakabuaisto_hit.wav,p04,lakabuaisto,hit,la-ka-buais-to,la-ka-buais-to,la-ka-bu-ais-to,la-ka-bua-is-to,-0.365885417,-0.108072917,1,0,0,1.0653,text_option_1,,0,59,59,41,1
5d5a7d896c04b2001a1edff8,63f3cfca20052e4ae7554ebf,6453ca62ea5aec566f0ac32d,2023-05-04_17h09.24.236,ga_syllabified_check,2022.2.5,Win32,60.07810153,,,,,,,,,,,,,,./stim/p05_syllable_1_flauro_hit.wav,p05,flauro,hit,fa-lu-ro,flau-ro,fla-u-ro, ,0.071614583,-0.294270833,1,0,0,1.4157,text_option_other,faluro,0,60,60,73,1
5d5a7d896c04b2001a1edff8,63f3cfca20052e4ae7554ebf,6453ca62ea5aec566f0ac32d,2023-05-04_17h09.24.236,ga_syllabified_check,2022.2.5,Win32,60.07810153,,,,,,,,,,,,,,./stim/p05_syllable_1_lakabiaisto_hit.wav,p05,lakabiaisto,hit,la-ka-bi-ais-to,la-ka-biais-to,la-ka-bi-ais-to,la-ka-bia-is-to,0.415364583,-0.114583333,1,0,0,3.215,text_option_2,,0,61,61,74,1
5d5a7d896c04b2001a1edff8,63f3cfca20052e4ae7554ebf,6453ca62ea5aec566f0ac32d,2023-05-04_17h09.24.236,ga_syllabified_check,2022.2.5,Win32,60.07810153,,,,,,,,,,,,,,./stim/p05_syllable_1_lakagiaisto_hit.wav,p05,lakagiaisto,hit,la-ka-ki-ais-to,la-ka-giais-to,la-ka-gi-ais-to,la-ka-gia-is-to,-0.364583333,-0.104166667,1,0,0,1.5833,text_option_1,,0,62,62,80,1
5d5a7d896c04b2001a1edff8,63f3cfca20052e4ae7554ebf,6453ca62ea5aec566f0ac32d,2023-05-04_17h09.24.236,ga_syllabified_check,2022.2.5,Win32,60.07810153,,,,,,,,,,,,,,./stim/p06_syllable_1_lakadiaisto_hit.wav,p06,lakadiaisto,hit,la-ka-dia-is-to,la-ka-diais-to,la-ka-di-ais-to,la-ka-dia-is-to,0.069010417,-0.098958333,1,0,0,2.4824,text_option_3,,0,63,63,110,1
5d5a7d896c04b2001a1edff8,63f3cfca20052e4ae7554ebf,6453ca62ea5aec566f0ac32d,2023-05-04_17h09.24.236,ga_syllabified_check,2022.2.5,Win32,60.07810153,,,,,,,,,,,,,,./stim/p07_syllable_1_palufauto_hit.wav,p07,palufauto,hit,pa-lu-fau-to,pa-lu-fau-to,pa-lu-fa-u-to, ,-0.41015625,-0.09765625,1,0,0,1.266,text_option_1,,0,64,64,162,1
5d5a7d896c04b2001a1edff8,63f3cfca20052e4ae7554ebf,6453ca62ea5aec566f0ac32d,2023-05-04_17h09.24.236,ga_syllabified_check,2022.2.5,Win32,60.07810153,,,,,,,,,,,,,,./stim/p04_syllable_1_chiaba_hit.wav,p04,chiaba,hit,chia-ba,chia-ba,chi-a-ba, ,-0.407552083,-0.106770833,1,0,0,0.5648,text_option_1,,0,65,65,34,1
5d5a7d896c04b2001a1edff8,63f3cfca20052e4ae7554ebf,6453ca62ea5aec566f0ac32d,2023-05-04_17h09.24.236,ga_syllabified_check,2022.2.5,Win32,60.07810153,,,,,,,,,,,,,,./stim/p05_syllable_1_lakabuaisto_hit.wav,p05,lakabuaisto,hit,la-ka-buais-to,la-ka-buais-to,la-ka-bu-ais-to,la-ka-bua-is-to,-0.44140625,-0.098958333,1,0,0,1.9179,text_option_1,,0,66,66,75,1
5d5a7d896c04b2001a1edff8,63f3cfca20052e4ae7554ebf,6453ca62ea5aec566f0ac32d,2023-05-04_17h09.24.236,ga_syllabified_check,2022.2.5,Win32,60.07810153,,,,,,,,,,,,,,./stim/p05_syllable_1_lakafiaisto_hit.wav,p05,lakafiaisto,hit,la-ka-fi-ais-to,la-ka-fiais-to,la-ka-fi-ais-to,la-ka-fia-is-to,0.4453125,-0.088541667,1,0,0,1.5159,text_option_2,,0,67,67,78,1
5d5a7d896c04b2001a1edff8,63f3cfca20052e4ae7554ebf,6453ca62ea5aec566f0ac32d,2023-05-04_17h09.24.236,ga_syllabified_check,2022.2.5,Win32,60.07810153,,,,,,,,,,,,,,./stim/p03_syllable_1_flauro_hit.wav,p03,flauro,hit,flau-ro,flau-ro,fla-u-ro, ,-0.381510417,-0.111979167,1,0,0,0.5664,text_option_1,,0,68,68,5,1
5d5a7d896c04b2001a1edff8,63f3cfca20052e4ae7554ebf,6453ca62ea5aec566f0ac32d,2023-05-04_17h09.24.236,ga_syllabified_check,2022.2.5,Win32,60.07810153,,,,,,,,,,,,,,./stim/p08_syllable_1_paluguato_hit.wav,p08,paluguato,hit,pa-lu-gua-to,pa-lu-gua-to,pa-lu-gu-a-to, ,-0.368489583,-0.104166667,1,0,0,1.5657,text_option_1,,0,69,69,197,1
5d5a7d896c04b2001a1edff8,63f3cfca20052e4ae7554ebf,6453ca62ea5aec566f0ac32d,2023-05-04_17h09.24.236,ga_syllabified_check,2022.2.5,Win32,60.07810153,,,,,,,,,,,,,,./stim/p06_syllable_1_falutraigo_hit.wav,p06,falutraigo,hit,fa-lu-tra-i-go,fa-lu-trai-go,fa-lu-tra-i-go, ,0.430989583,-0.104166667,1,0,0,3.5487,text_option_2,,0,70,70,106,1
5d5a7d896c04b2001a1edff8,63f3cfca20052e4ae7554ebf,6453ca62ea5aec566f0ac32d,2023-05-04_17h09.24.236,ga_syllabified_check,2022.2.5,Win32,60.07810153,,,,,,,,,,,,,,./stim/p03_syllable_1_rausto_hit.wav,p03,rausto,hit,raus-to,raus-to,ra-us-to, ,-0.40625,-0.092447917,1,0,0,0.8319,text_option_1,,0,71,71,31,1
5d5a7d896c04b2001a1edff8,63f3cfca20052e4ae7554ebf,6453ca62ea5aec566f0ac32d,2023-05-04_17h09.24.236,ga_syllabified_check,2022.2.5,Win32,60.07810153,,,,,,,,,,,,,,./stim/p07_syllable_1_nhiape_hit.wav,p07,ñiape,hit,nhia-pe,ñia-pe,ñi-a-pe, ,-0.39453125,-0.09765625,1,0,0,0.5313,text_option_1,,0,72,72,159,1
5d5a7d896c04b2001a1edff8,63f3cfca20052e4ae7554ebf,6453ca62ea5aec566f0ac32d,2023-05-04_17h09.24.236,ga_syllabified_check,2022.2.5,Win32,60.07810153,,,,,,,,,,,,,,./stim/p07_syllable_1_palumaisto_hit.wav,p07,palumaisto,hit,pa-lu-mais-to,pa-lu-mais-to,pa-lu-ma-is-to, ,-0.376302083,-0.09765625,1,0,0,2.1982,text_option_1,,0,73,73,164,1
5d5a7d896c04b2001a1edff8,63f3cfca20052e4ae7554ebf,6453ca62ea5aec566f0ac32d,2023-05-04_17h09.24.236,ga_syllabified_check,2022.2.5,Win32,60.07810153,,,,,,,,,,,,,,./stim/p03_syllable_1_lakatiaisto_hit.wav,p03,lakatiaisto,hit,la-ka-tiais-to,la-ka-tiais-to,la-ka-ti-ais-to,la-ka-tia-is-to,-0.3671875,-0.09765625,1,0,0,1.9011,text_option_1,,0,74,74,18,1
5d5a7d896c04b2001a1edff8,63f3cfca20052e4ae7554ebf,6453ca62ea5aec566f0ac32d,2023-05-04_17h09.24.236,ga_syllabified_check,2022.2.5,Win32,60.07810153,,,,,,,,,,,,,,./stim/p07_syllable_1_chiaba_hit.wav,p07,chiaba,hit,chia-ba,chia-ba,chi-a-ba, ,-0.3671875,-0.100260417,1,0,0,0.5503,text_option_1,,0,75,75,136,1
5d5a7d896c04b2001a1edff8,63f3cfca20052e4ae7554ebf,6453ca62ea5aec566f0ac32d,2023-05-04_17h09.24.236,ga_syllabified_check,2022.2.5,Win32,60.07810153,,,,,,,,,,,,,,./stim/p04_syllable_1_lakatuaisto_hit.wav,p04,lakatuaisto,hit,la-ka-kuais-to,la-ka-tuais-to,la-ka-tu-ais-to,la-ka-tua-is-to,-0.373697917,-0.104166667,1,0,0,2.166,text_option_1,,0,76,76,53,1
5d5a7d896c04b2001a1edff8,63f3cfca20052e4ae7554ebf,6453ca62ea5aec566f0ac32d,2023-05-04_17h09.24.236,ga_syllabified_check,2022.2.5,Win32,60.07810153,,,,,,,,,,,,,,./stim/p07_syllable_1_lakapuaisto_hit.wav,p07,lakapuaisto,hit,la-ka-puais-to,la-ka-puais-to,la-ka-pu-ais-to,la-ka-pua-is-to,-0.361979167,-0.1015625,1,0,0,2.4163,text_option_1,,0,77,77,153,1
5d5a7d896c04b2001a1edff8,63f3cfca20052e4ae7554ebf,6453ca62ea5aec566f0ac32d,2023-05-04_17h09.24.236,ga_syllabified_check,2022.2.5,Win32,60.07810153,,,,,,,,,,,,,,./stim/p04_syllable_1_palumaisto_hit.wav,p04,palumaisto,hit,pa-lu-mais-to,pa-lu-mais-to,pa-lu-ma-is-to, ,-0.38671875,-0.098958333,1,0,0,1.2179,text_option_1,,0,78,78,62,1
5d5a7d896c04b2001a1edff8,63f3cfca20052e4ae7554ebf,6453ca62ea5aec566f0ac32d,2023-05-04_17h09.24.236,ga_syllabified_check,2022.2.5,Win32,60.07810153,,,,,,,,,,,,,,./stim/p07_syllable_1_lakatuaisto_hit.wav,p07,lakatuaisto,hit,la-ka-tuais-to,la-ka-tuais-to,la-ka-tu-ais-to,la-ka-tua-is-to,-0.369791667,-0.100260417,1,0,0,2.223,text_option_1,,0,79,79,155,1
5d5a7d896c04b2001a1edff8,63f3cfca20052e4ae7554ebf,6453ca62ea5aec566f0ac32d,2023-05-04_17h09.24.236,ga_syllabified_check,2022.2.5,Win32,60.07810153,,,,,,,,,,,,,,./stim/p04_syllable_1_faluduako_hit.wav,p04,faluduako,hit,fa-lu-dua-ko,fa-lu-dua-ko,fa-lu-du-a-ko, ,-0.368489583,-0.09765625,1,0,0,1.1334,text_option_1,,0,80,80,36,1
5d5a7d896c04b2001a1edff8,63f3cfca20052e4ae7554ebf,6453ca62ea5aec566f0ac32d,2023-05-04_17h09.24.236,ga_syllabified_check,2022.2.5,Win32,60.07810153,,,,,,,,,,,,,,./stim/p08_syllable_1_lakaguaisto_hit.wav,p08,lakaguaisto,hit,la-ka-gu-ais-to,la-ka-guais-to,la-ka-gu-ais-to,la-ka-gua-is-to,0.479166667,-0.100260417,1,0,0,2.1993,text_option_2,,0,81,81,183,1
5d5a7d896c04b2001a1edff8,63f3cfca20052e4ae7554ebf,6453ca62ea5aec566f0ac32d,2023-05-04_17h09.24.236,ga_syllabified_check,2022.2.5,Win32,60.07810153,,,,,,,,,,,,,,./stim/p06_syllable_1_lakafiaisto_hit.wav,p06,lakafiaisto,hit,la-ka-fia-is-to,la-ka-fiais-to,la-ka-fi-ais-to,la-ka-fia-is-to,0.079427083,-0.092447917,1,0,0,3.3817,text_option_3,,0,82,82,112,1
5d5a7d896c04b2001a1edff8,63f3cfca20052e4ae7554ebf,6453ca62ea5aec566f0ac32d,2023-05-04_17h09.24.236,ga_syllabified_check,2022.2.5,Win32,60.07810153,,,,,,,,,,,,,,./stim/p05_syllable_1_lakapiaisto_hit.wav,p05,lakapiaisto,hit,la-ka-pais-to,la-ka-piais-to,la-ka-pi-ais-to,la-ka-pia-is-to,-0.373697917,-0.104166667,1,0,0,3.3001,text_option_1,,0,83,83,84,1
5d5a7d896c04b2001a1edff8,63f3cfca20052e4ae7554ebf,6453ca62ea5aec566f0ac32d,2023-05-04_17h09.24.236,ga_syllabified_check,2022.2.5,Win32,60.07810153,,,,,,,,,,,,,,./stim/p08_syllable_1_nhiape_hit.wav,p08,ñiape,hit,ni-a-pe,ñia-pe,ñi-a-pe, ,0.427083333,-0.110677083,1,0,0,0.9654,text_option_2,,0,84,84,193,1
5d5a7d896c04b2001a1edff8,63f3cfca20052e4ae7554ebf,6453ca62ea5aec566f0ac32d,2023-05-04_17h09.24.236,ga_syllabified_check,2022.2.5,Win32,60.07810153,,,,,,,,,,,,,,./stim/p04_syllable_1_pachialo_hit.wav,p04,pachialo,hit,pa-chia-lo,pa-chia-lo,pa-chi-a-lo, ,-0.389322917,-0.100260417,1,0,0,0.6327,text_option_1,,0,85,85,58,1
5d5a7d896c04b2001a1edff8,63f3cfca20052e4ae7554ebf,6453ca62ea5aec566f0ac32d,2023-05-04_17h09.24.236,ga_syllabified_check,2022.2.5,Win32,60.07810153,,,,,,,,,,,,,,./stim/p04_syllable_1_mebochiana_hit.wav,p04,mebochiana,hit,me-bo-chia-na,me-bo-chia-na,me-bo-chi-a-na, ,-0.361979167,-0.106770833,1,0,0,1.5664,text_option_1,,0,86,86,56,1
5d5a7d896c04b2001a1edff8,63f3cfca20052e4ae7554ebf,6453ca62ea5aec566f0ac32d,2023-05-04_17h09.24.236,ga_syllabified_check,2022.2.5,Win32,60.07810153,,,,,,,,,,,,,,./stim/p04_syllable_1_lakadiaisto_hit.wav,p04,lakadiaisto,hit,la-ka-dias-to,la-ka-diais-to,la-ka-di-ais-to,la-ka-dia-is-to,-0.403645833,-0.104166667,1,0,0,1.9511,text_option_1,,0,87,87,42,1
5d5a7d896c04b2001a1edff8,63f3cfca20052e4ae7554ebf,6453ca62ea5aec566f0ac32d,2023-05-04_17h09.24.236,ga_syllabified_check,2022.2.5,Win32,60.07810153,,,,,,,,,,,,,,./stim/p07_syllable_1_lakafuaisto_hit.wav,p07,lakafuaisto,hit,la-ka-fuais-to,la-ka-fuais-to,la-ka-fu-ais-to,la-ka-fua-is-to,-0.375,-0.104166667,1,0,0,2.0169,text_option_1,,0,88,88,147,1
5d5a7d896c04b2001a1edff8,63f3cfca20052e4ae7554ebf,6453ca62ea5aec566f0ac32d,2023-05-04_17h09.24.236,ga_syllabified_check,2022.2.5,Win32,60.07810153,,,,,,,,,,,,,,./stim/p08_syllable_1_lakapiaisto_hit.wav,p08,lakapiaisto,hit,la-ka-pi-as-to,la-ka-piais-to,la-ka-pi-ais-to,la-ka-pia-is-to,0.408854167,-0.104166667,1,0,0,2.5325,text_option_2,,0,89,89,186,1
5d5a7d896c04b2001a1edff8,63f3cfca20052e4ae7554ebf,6453ca62ea5aec566f0ac32d,2023-05-04_17h09.24.236,ga_syllabified_check,2022.2.5,Win32,60.07810153,,,,,,,,,,,,,,./stim/p06_syllable_1_palutrauco_hit.wav,p06,palutrauco,hit,pa-lu-tra-u-co,pa-lu-trau-co,pa-lu-tra-u-co, ,0.4140625,-0.09765625,1,0,0,2.2494,text_option_2,,0,90,90,131,1
5d5a7d896c04b2001a1edff8,63f3cfca20052e4ae7554ebf,6453ca62ea5aec566f0ac32d,2023-05-04_17h09.24.236,ga_syllabified_check,2022.2.5,Win32,60.07810153,,,,,,,,,,,,,,./stim/p08_syllable_1_mebochiana_hit.wav,p08,mebochiana,hit,me-bo-chi-a-na,me-bo-chia-na,me-bo-chi-a-na, ,0.376302083,-0.098958333,1,0,0,1.9174,text_option_2,,0,91,91,192,1
5d5a7d896c04b2001a1edff8,63f3cfca20052e4ae7554ebf,6453ca62ea5aec566f0ac32d,2023-05-04_17h09.24.236,ga_syllabified_check,2022.2.5,Win32,60.07810153,,,,,,,,,,,,,,./stim/p03_syllable_1_lakaduaisto_hit.wav,p03,lakaduaisto,hit,la-ka-duais-to,la-ka-duais-to,la-ka-du-ais-to,la-ka-dua-is-to,-0.40234375,-0.104166667,1,0,0,1.4437,text_option_1,,0,92,92,9,1
5d5a7d896c04b2001a1edff8,63f3cfca20052e4ae7554ebf,6453ca62ea5aec566f0ac32d,2023-05-04_17h09.24.236,ga_syllabified_check,2022.2.5,Win32,60.07810153,,,,,,,,,,,,,,./stim/p06_syllable_1_falufaisto_hit.wav,p06,falufaisto,hit,fa-lu-fa-is-to,fa-lu-fais-to,fa-lu-fa-is-to, ,0.444010417,-0.1015625,1,0,0,2.3486,text_option_2,,0,93,93,105,1
5d5a7d896c04b2001a1edff8,63f3cfca20052e4ae7554ebf,6453ca62ea5aec566f0ac32d,2023-05-04_17h09.24.236,ga_syllabified_check,2022.2.5,Win32,60.07810153,,,,,,,,,,,,,,./stim/p06_syllable_1_lakakuaisto_hit.wav,p06,lakakuaisto,hit,la-ka-ku-a-is,la-ka-kuais-to,la-ka-ku-ais-to,la-ka-kua-is-to,0.044270833,-0.311197917,1,0,0,6.8397,text_option_other,la-ka-ku-ais-to,0,94,94,117,1
5d5a7d896c04b2001a1edff8,63f3cfca20052e4ae7554ebf,6453ca62ea5aec566f0ac32d,2023-05-04_17h09.24.236,ga_syllabified_check,2022.2.5,Win32,60.07810153,,,,,,,,,,,,,,./stim/p08_syllable_1_tuliafo_hit.wav,p08,tuliafo,hit,tu-li-a-fo,tu-lia-fo,tu-li-a-fo, ,0.416666667,-0.088541667,1,0,0,2.1498,text_option_2,,0,95,95,203,1
5d5a7d896c04b2001a1edff8,63f3cfca20052e4ae7554ebf,6453ca62ea5aec566f0ac32d,2023-05-04_17h09.24.236,ga_syllabified_check,2022.2.5,Win32,60.07810153,,,,,,,,,,,,,,./stim/p07_syllable_1_falutraigo_hit.wav,p07,falutraigo,hit,fa-lu-trai-go,fa-lu-trai-go,fa-lu-tra-i-go, ,-0.391927083,-0.092447917,1,0,0,2.2909,text_option_1,,0,96,96,140,1
5d5a7d896c04b2001a1edff8,63f3cfca20052e4ae7554ebf,6453ca62ea5aec566f0ac32d,2023-05-04_17h09.24.236,ga_syllabified_check,2022.2.5,Win32,60.07810153,,,,,,,,,,,,,,./stim/p06_syllable_1_lakatiaisto_hit.wav,p06,lakatiaisto,hit,la-ka-pia-is-to,la-ka-tiais-to,la-ka-ti-ais-to,la-ka-tia-is-to,-0.399739583,-0.104166667,1,0,0,3.0842,text_option_1,,0,97,97,120,1
5d5a7d896c04b2001a1edff8,63f3cfca20052e4ae7554ebf,6453ca62ea5aec566f0ac32d,2023-05-04_17h09.24.236,ga_syllabified_check,2022.2.5,Win32,60.07810153,,,,,,,,,,,,,,./stim/p07_syllable_1_lakakiaisto_hit.wav,p07,lakakiaisto,hit,la-ka-kais-to,la-ka-kiais-to,la-ka-ki-ais-to,la-ka-kia-is-to,-0.375,-0.104166667,1,0,0,2.9,text_option_1,,0,98,98,150,1
5d5a7d896c04b2001a1edff8,63f3cfca20052e4ae7554ebf,6453ca62ea5aec566f0ac32d,2023-05-04_17h09.24.236,ga_syllabified_check,2022.2.5,Win32,60.07810153,,,,,,,,,,,,,,./stim/p06_syllable_1_costonhialo_hit.wav,p06,costoñialo,hit,cos-to-nhia-lo,cos-to-ñia-lo,cos-to-ñi-a-lo, ,-0.375,-0.091145833,1,0,0,2.3999,text_option_1,,0,99,99,103,1
5d5a7d896c04b2001a1edff8,63f3cfca20052e4ae7554ebf,6453ca62ea5aec566f0ac32d,2023-05-04_17h09.24.236,ga_syllabified_check,2022.2.5,Win32,60.07810153,,,,,,,,,,,,,,./stim/p06_syllable_1_manhiala_hit.wav,p06,mañiala,hit,ma-nhi-a-la,ma-ñia-la,ma-ñi-a-la, ,0.44921875,-0.098958333,1,0,0,1.6991,text_option_2,,0,100,100,123,1
5d5a7d896c04b2001a1edff8,63f3cfca20052e4ae7554ebf,6453ca62ea5aec566f0ac32d,2023-05-04_17h09.24.236,ga_syllabified_check,2022.2.5,Win32,60.07810153,,,,,,,,,,,,,,./stim/p03_syllable_1_lakapiaisto_hit.wav,p03,lakapiaisto,hit,la-ka-piais-to,la-ka-piais-to,la-ka-pi-ais-to,la-ka-pia-is-to,-0.408854167,-0.102864583,1,0,0,1.6175,text_option_1,,0,101,101,16,1
5d5a7d896c04b2001a1edff8,63f3cfca20052e4ae7554ebf,6453ca62ea5aec566f0ac32d,2023-05-04_17h09.24.236,ga_syllabified_check,2022.2.5,Win32,60.07810153,,,,,,,,,,,,,,./stim/p03_syllable_1_lakadiaisto_hit.wav,p03,lakadiaisto,hit,la-ka-diais-to,la-ka-diais-to,la-ka-di-ais-to,la-ka-dia-is-to,-0.375,-0.109375,1,0,0,1.7493,text_option_1,,0,102,102,8,1
5d5a7d896c04b2001a1edff8,63f3cfca20052e4ae7554ebf,6453ca62ea5aec566f0ac32d,2023-05-04_17h09.24.236,ga_syllabified_check,2022.2.5,Win32,60.07810153,,,,,,,,,,,,,,./stim/p08_syllable_1_palutrauco_hit.wav,p08,palutrauco,hit,pa-lu-trau-ko,pa-lu-trau-co,pa-lu-tra-u-co, ,-0.365885417,-0.095052083,1,0,0,2.3164,text_option_1,,0,103,103,199,1
5d5a7d896c04b2001a1edff8,63f3cfca20052e4ae7554ebf,6453ca62ea5aec566f0ac32d,2023-05-04_17h09.24.236,ga_syllabified_check,2022.2.5,Win32,60.07810153,,,,,,,,,,,,,,./stim/p05_syllable_1_lakadiaisto_hit.wav,p05,lakadiaisto,hit,la-ka-di-ais-to,la-ka-diais-to,la-ka-di-ais-to,la-ka-dia-is-to,0.430989583,-0.1015625,1,0,0,1.9662,text_option_2,,0,104,104,76,1
5d5a7d896c04b2001a1edff8,63f3cfca20052e4ae7554ebf,6453ca62ea5aec566f0ac32d,2023-05-04_17h09.24.236,ga_syllabified_check,2022.2.5,Win32,60.07810153,,,,,,,,,,,,,,./stim/p04_syllable_1_flauro_hit.wav,p04,flauro,hit,flau-ro,flau-ro,fla-u-ro, ,-0.40234375,-0.088541667,1,0,0,0.7164,text_option_1,,0,105,105,39,1
5d5a7d896c04b2001a1edff8,63f3cfca20052e4ae7554ebf,6453ca62ea5aec566f0ac32d,2023-05-04_17h09.24.236,ga_syllabified_check,2022.2.5,Win32,60.07810153,,,,,,,,,,,,,,./stim/p07_syllable_1_lakafiaisto_hit.wav,p07,lakafiaisto,hit,la-ka-fiais-to,la-ka-fiais-to,la-ka-fi-ais-to,la-ka-fia-is-to,-0.397135417,-0.100260417,1,0,0,1.3337,text_option_1,,0,106,106,146,1
5d5a7d896c04b2001a1edff8,63f3cfca20052e4ae7554ebf,6453ca62ea5aec566f0ac32d,2023-05-04_17h09.24.236,ga_syllabified_check,2022.2.5,Win32,60.07810153,,,,,,,,,,,,,,./stim/p03_syllable_1_costonhialo_hit.wav,p03,costoñialo,hit,cos-to-nhia-lo,cos-to-ñia-lo,cos-to-ñi-a-lo, ,-0.447916667,-0.09765625,1,0,0,1.1842,text_option_1,,0,107,107,1,1
5d5a7d896c04b2001a1edff8,63f3cfca20052e4ae7554ebf,6453ca62ea5aec566f0ac32d,2023-05-04_17h09.24.236,ga_syllabified_check,2022.2.5,Win32,60.07810153,,,,,,,,,,,,,,./stim/p04_syllable_1_rausto_hit.wav,p04,rausto,hit,raus-to,raus-to,ra-us-to, ,-0.420572917,-0.106770833,1,0,0,0.3813,text_option_1,,0,108,108,65,1
5d5a7d896c04b2001a1edff8,63f3cfca20052e4ae7554ebf,6453ca62ea5aec566f0ac32d,2023-05-04_17h09.24.236,ga_syllabified_check,2022.2.5,Win32,60.07810153,,,,,,,,,,,,,,./stim/p07_syllable_1_palufauro_hit.wav,p07,palufauro,hit,pa-lu-fau-ro,pa-lu-fau-ro,pa-lu-fa-u-ro, ,-0.359375,-0.100260417,1,0,0,1.3487,text_option_1,,0,109,109,161,1
5d5a7d896c04b2001a1edff8,63f3cfca20052e4ae7554ebf,6453ca62ea5aec566f0ac32d,2023-05-04_17h09.24.236,ga_syllabified_check,2022.2.5,Win32,60.07810153,,,,,,,,,,,,,,./stim/p05_syllable_1_chiaba_hit.wav,p05,chiaba,hit,chia-ba,chia-ba,chi-a-ba, ,-0.3671875,-0.09765625,1,0,0,1.4656,text_option_1,,0,110,110,68,1
5d5a7d896c04b2001a1edff8,63f3cfca20052e4ae7554ebf,6453ca62ea5aec566f0ac32d,2023-05-04_17h09.24.236,ga_syllabified_check,2022.2.5,Win32,60.07810153,,,,,,,,,,,,,,./stim/p03_syllable_1_lakagiaisto_hit.wav,p03,lakagiaisto,hit,la-ka-giais-to,la-ka-giais-to,la-ka-gi-ais-to,la-ka-gia-is-to,-0.354166667,-0.098958333,1,0,0,1.3087,text_option_1,,0,111,111,12,1
5d5a7d896c04b2001a1edff8,63f3cfca20052e4ae7554ebf,6453ca62ea5aec566f0ac32d,2023-05-04_17h09.24.236,ga_syllabified_check,2022.2.5,Win32,60.07810153,,,,,,,,,,,,,,./stim/p08_syllable_1_lakakuaisto_hit.wav,p08,lakakuaisto,hit,la-ka-ku-ais-to,la-ka-kuais-to,la-ka-ku-ais-to,la-ka-kua-is-to,0.453125,-0.10546875,1,0,0,2.6159,text_option_2,,0,112,112,185,1
5d5a7d896c04b2001a1edff8,63f3cfca20052e4ae7554ebf,6453ca62ea5aec566f0ac32d,2023-05-04_17h09.24.236,ga_syllabified_check,2022.2.5,Win32,60.07810153,,,,,,,,,,,,,,./stim/p07_syllable_1_lakapiaisto_hit.wav,p07,lakapiaisto,hit,la-ka-pia-sto,la-ka-piais-to,la-ka-pi-ais-to,la-ka-pia-is-to,0.05859375,-0.104166667,1,0,0,3.6663,text_option_3,,0,113,113,152,1
5d5a7d896c04b2001a1edff8,63f3cfca20052e4ae7554ebf,6453ca62ea5aec566f0ac32d,2023-05-04_17h09.24.236,ga_syllabified_check,2022.2.5,Win32,60.07810153,,,,,,,,,,,,,,./stim/p08_syllable_1_costonhialo_hit.wav,p08,costoñialo,hit,cos-to-nhia-lo,cos-to-ñia-lo,cos-to-ñi-a-lo, ,-0.359375,-0.106770833,1,0,0,2.0657,text_option_1,,0,114,114,171,1
5d5a7d896c04b2001a1edff8,63f3cfca20052e4ae7554ebf,6453ca62ea5aec566f0ac32d,2023-05-04_17h09.24.236,ga_syllabified_check,2022.2.5,Win32,60.07810153,,,,,,,,,,,,,,./stim/p04_syllable_1_lakabiaisto_hit.wav,p04,lakabiaisto,hit,la-ka-biais-to,la-ka-biais-to,la-ka-bi-ais-to,la-ka-bia-is-to,-0.375,-0.096354167,1,0,0,1.019,text_option_1,,0,115,115,40,1
5d5a7d896c04b2001a1edff8,63f3cfca20052e4ae7554ebf,6453ca62ea5aec566f0ac32d,2023-05-04_17h09.24.236,ga_syllabified_check,2022.2.5,Win32,60.07810153,,,,,,,,,,,,,,./stim/p06_syllable_1_lakaguaisto_hit.wav,p06,lakaguaisto,hit,la-ka-gu-a-is,la-ka-guais-to,la-ka-gu-ais-to,la-ka-gua-is-to,0.0234375,-0.3046875,1,0,0,5.8981,text_option_other,la-ka-gu-ais-to,0,116,116,115,1
5d5a7d896c04b2001a1edff8,63f3cfca20052e4ae7554ebf,6453ca62ea5aec566f0ac32d,2023-05-04_17h09.24.236,ga_syllabified_check,2022.2.5,Win32,60.07810153,,,,,,,,,,,,,,./stim/p05_syllable_1_palufauro_hit.wav,p05,palufauro,hit,pa-lu-fau-ro,pa-lu-fau-ro,pa-lu-fa-u-ro, ,-0.356770833,-0.106770833,1,0,0,0.8171,text_option_1,,0,117,117,93,1
5d5a7d896c04b2001a1edff8,63f3cfca20052e4ae7554ebf,6453ca62ea5aec566f0ac32d,2023-05-04_17h09.24.236,ga_syllabified_check,2022.2.5,Win32,60.07810153,,,,,,,,,,,,,,./stim/p03_syllable_1_lakaguaisto_hit.wav,p03,lakaguaisto,hit,la-ka-guais-to,la-ka-guais-to,la-ka-gu-ais-to,la-ka-gua-is-to,-0.3984375,-0.1171875,1,0,0,1.6175,text_option_1,,0,118,118,13,1
5d5a7d896c04b2001a1edff8,63f3cfca20052e4ae7554ebf,6453ca62ea5aec566f0ac32d,2023-05-04_17h09.24.236,ga_syllabified_check,2022.2.5,Win32,60.07810153,,,,,,,,,,,,,,./stim/p07_syllable_1_ruyiola_hit.wav,p07,ruyiola,hit,ru-yio-la,ru-yio-la,ru-yi-o-la, ,-0.350260417,-0.10546875,1,0,0,1.6155,text_option_1,,0,119,119,168,1
5d5a7d896c04b2001a1edff8,63f3cfca20052e4ae7554ebf,6453ca62ea5aec566f0ac32d,2023-05-04_17h09.24.236,ga_syllabified_check,2022.2.5,Win32,60.07810153,,,,,,,,,,,,,,./stim/p08_syllable_1_rausto_hit.wav,p08,rausto,hit,raus-to,raus-to,ra-us-to, ,-0.391927083,-0.098958333,1,0,0,0.7168,text_option_1,,0,120,120,201,1
5d5a7d896c04b2001a1edff8,63f3cfca20052e4ae7554ebf,6453ca62ea5aec566f0ac32d,2023-05-04_17h09.24.236,ga_syllabified_check,2022.2.5,Win32,60.07810153,,,,,,,,,,,,,,./stim/p07_syllable_1_lakakuaisto_hit.wav,p07,lakakuaisto,hit,la-ka-kuais-to,la-ka-kuais-to,la-ka-ku-ais-to,la-ka-kua-is-to,-0.33984375,-0.096354167,1,0,0,2.5147,text_option_1,,0,121,121,151,1
5d5a7d896c04b2001a1edff8,63f3cfca20052e4ae7554ebf,6453ca62ea5aec566f0ac32d,2023-05-04_17h09.24.236,ga_syllabified_check,2022.2.5,Win32,60.07810153,,,,,,,,,,,,,,./stim/p07_syllable_1_falufaisto_hit.wav,p07,falufaisto,hit,fa-lu-fais-to,fa-lu-fais-to,fa-lu-fa-is-to, ,-0.3515625,-0.098958333,1,0,0,1.1919,text_option_1,,0,122,122,139,1
5d5a7d896c04b2001a1edff8,63f3cfca20052e4ae7554ebf,6453ca62ea5aec566f0ac32d,2023-05-04_17h09.24.236,ga_syllabified_check,2022.2.5,Win32,60.07810153,,,,,,,,,,,,,,./stim/p03_syllable_1_manhiala_hit.wav,p03,mañiala,hit,ma-nhia-la,ma-ñia-la,ma-ñi-a-la, ,-0.401041667,-0.106770833,1,0,0,2.1644,text_option_1,,0,123,123,21,1
5d5a7d896c04b2001a1edff8,63f3cfca20052e4ae7554ebf,6453ca62ea5aec566f0ac32d,2023-05-04_17h09.24.236,ga_syllabified_check,2022.2.5,Win32,60.07810153,,,,,,,,,,,,,,./stim/p04_syllable_1_palufauto_hit.wav,p04,palufauto,hit,pa-lu-fau-to,pa-lu-fau-to,pa-lu-fa-u-to, ,-0.361979167,-0.096354167,1,0,0,0.9217,text_option_1,,0,124,124,60,1
5d5a7d896c04b2001a1edff8,63f3cfca20052e4ae7554ebf,6453ca62ea5aec566f0ac32d,2023-05-04_17h09.24.236,ga_syllabified_check,2022.2.5,Win32,60.07810153,,,,,,,,,,,,,,./stim/p07_syllable_1_lakaguaisto_hit.wav,p07,lakaguaisto,hit,la-ka-guais-to,la-ka-guais-to,la-ka-gu-ais-to,la-ka-gua-is-to,-0.3671875,-0.092447917,1,0,0,1.6829,text_option_1,,0,125,125,149,1
5d5a7d896c04b2001a1edff8,63f3cfca20052e4ae7554ebf,6453ca62ea5aec566f0ac32d,2023-05-04_17h09.24.236,ga_syllabified_check,2022.2.5,Win32,60.07810153,,,,,,,,,,,,,,./stim/p03_syllable_1_lakakuaisto_hit.wav,p03,lakakuaisto,hit,la-ka-kuais-to,la-ka-kuais-to,la-ka-ku-ais-to,la-ka-kua-is-to,-0.369791667,-0.098958333,1,0,0,1.1658,text_option_1,,0,126,126,15,1
5d5a7d896c04b2001a1edff8,63f3cfca20052e4ae7554ebf,6453ca62ea5aec566f0ac32d,2023-05-04_17h09.24.236,ga_syllabified_check,2022.2.5,Win32,60.07810153,,,,,,,,,,,,,,./stim/p07_syllable_1_pachialo_hit.wav,p07,pachialo,hit,pa-cha-lo,pa-chia-lo,pa-chi-a-lo, ,-0.459635417,-0.095052083,1,0,0,1.3503,text_option_1,,0,127,127,160,1
5d5a7d896c04b2001a1edff8,63f3cfca20052e4ae7554ebf,6453ca62ea5aec566f0ac32d,2023-05-04_17h09.24.236,ga_syllabified_check,2022.2.5,Win32,60.07810153,,,,,,,,,,,,,,./stim/p03_syllable_1_lakafiaisto_hit.wav,p03,lakafiaisto,hit,la-ka-fiais-to,la-ka-fiais-to,la-ka-fi-ais-to,la-ka-fia-is-to,-0.393229167,-0.09765625,1,0,0,1.191,text_option_1,,0,128,128,10,1
5d5a7d896c04b2001a1edff8,63f3cfca20052e4ae7554ebf,6453ca62ea5aec566f0ac32d,2023-05-04_17h09.24.236,ga_syllabified_check,2022.2.5,Win32,60.07810153,,,,,,,,,,,,,,./stim/p07_syllable_1_palutrauco_hit.wav,p07,palutrauco,hit,pa-lu-trau-co,pa-lu-trau-co,pa-lu-tra-u-co, ,-0.3828125,-0.092447917,1,0,0,0.9836,text_option_1,,0,129,129,165,1
5d5a7d896c04b2001a1edff8,63f3cfca20052e4ae7554ebf,6453ca62ea5aec566f0ac32d,2023-05-04_17h09.24.236,ga_syllabified_check,2022.2.5,Win32,60.07810153,,,,,,,,,,,,,,./stim/p04_syllable_1_lakapiaisto_hit.wav,p04,lakapiaisto,hit,la-ka-piais-to,la-ka-piais-to,la-ka-pi-ais-to,la-ka-pia-is-to,-0.001302083,-0.307291667,1,0,0,5.2587,text_option_other,la-kra-piais-to,0,130,130,50,1
5d5a7d896c04b2001a1edff8,63f3cfca20052e4ae7554ebf,6453ca62ea5aec566f0ac32d,2023-05-04_17h09.24.236,ga_syllabified_check,2022.2.5,Win32,60.07810153,,,,,,,,,,,,,,./stim/p03_syllable_1_payielo_hit.wav,p03,payielo,hit,pa-yie-lo,pa-yie-lo,pa-yi-e-lo, ,-0.388020833,-0.100260417,1,0,0,0.9097,text_option_1,,0,131,131,30,1
5d5a7d896c04b2001a1edff8,63f3cfca20052e4ae7554ebf,6453ca62ea5aec566f0ac32d,2023-05-04_17h09.24.236,ga_syllabified_check,2022.2.5,Win32,60.07810153,,,,,,,,,,,,,,./stim/p06_syllable_1_lakabiaisto_hit.wav,p06,lakabiaisto,hit,la-ka-bia-is-to,la-ka-biais-to,la-ka-bi-ais-to,la-ka-bia-is-to,0.053385417,-0.106770833,1,0,0,3.9491,text_option_3,,0,132,132,108,1
5d5a7d896c04b2001a1edff8,63f3cfca20052e4ae7554ebf,6453ca62ea5aec566f0ac32d,2023-05-04_17h09.24.236,ga_syllabified_check,2022.2.5,Win32,60.07810153,,,,,,,,,,,,,,./stim/p06_syllable_1_lakagiaisto_hit.wav,p06,lakagiaisto,hit,la-ka-gia-is-to,la-ka-giais-to,la-ka-gi-ais-to,la-ka-gia-is-to,0.049479167,-0.096354167,1,0,0,3.7987,text_option_3,,0,133,133,114,1
5d5a7d896c04b2001a1edff8,63f3cfca20052e4ae7554ebf,6453ca62ea5aec566f0ac32d,2023-05-04_17h09.24.236,ga_syllabified_check,2022.2.5,Win32,60.07810153,,,,,,,,,,,,,,./stim/p04_syllable_1_costonhialo_hit.wav,p04,costoñialo,hit,cos-to-nhia-lo,cos-to-ñia-lo,cos-to-ñi-a-lo, ,-0.348958333,-0.111979167,1,0,0,1.1823,text_option_1,,0,134,134,35,1
5d5a7d896c04b2001a1edff8,63f3cfca20052e4ae7554ebf,6453ca62ea5aec566f0ac32d,2023-05-04_17h09.24.236,ga_syllabified_check,2022.2.5,Win32,60.07810153,,,,,,,,,,,,,,./stim/p05_syllable_1_mebochiana_hit.wav,p05,mebochiana,hit,me-cho-chai-na,me-bo-chia-na,me-bo-chi-a-na, ,0.036458333,-0.294270833,1,0,0,2.3817,text_option_other,me-cho-chai-na,0,135,135,90,1
5d5a7d896c04b2001a1edff8,63f3cfca20052e4ae7554ebf,6453ca62ea5aec566f0ac32d,2023-05-04_17h09.24.236,ga_syllabified_check,2022.2.5,Win32,60.07810153,,,,,,,,,,,,,,./stim/p03_syllable_1_paluguato_hit.wav,p03,paluguato,hit,pa-lu-gua,pa-lu-gua-to,pa-lu-gu-a-to, ,-0.393229167,-0.102864583,1,0,0,1.292,text_option_1,,0,136,136,27,1
5d5a7d896c04b2001a1edff8,63f3cfca20052e4ae7554ebf,6453ca62ea5aec566f0ac32d,2023-05-04_17h09.24.236,ga_syllabified_check,2022.2.5,Win32,60.07810153,,,,,,,,,,,,,,./stim/p06_syllable_1_paluguato_hit.wav,p06,paluguato,hit,pa-lu-gua-to,pa-lu-gua-to,pa-lu-gu-a-to, ,-0.372395833,-0.095052083,1,0,0,2.1563,text_option_1,,0,137,137,129,1
5d5a7d896c04b2001a1edff8,63f3cfca20052e4ae7554ebf,6453ca62ea5aec566f0ac32d,2023-05-04_17h09.24.236,ga_syllabified_check,2022.2.5,Win32,60.07810153,,,,,,,,,,,,,,./stim/p07_syllable_1_flauro_hit.wav,p07,flauro,hit,flau-ro,flau-ro,fla-u-ro, ,-0.41015625,-0.095052083,1,0,0,0.8668,text_option_1,,0,138,138,141,1
5d5a7d896c04b2001a1edff8,63f3cfca20052e4ae7554ebf,6453ca62ea5aec566f0ac32d,2023-05-04_17h09.24.236,ga_syllabified_check,2022.2.5,Win32,60.07810153,,,,,,,,,,,,,,./stim/p03_syllable_1_chiaba_hit.wav,p03,chiaba,hit,chia-ba,chia-ba,chi-a-ba, ,-0.372395833,-0.096354167,1,0,0,0.4664,text_option_1,,0,139,139,0,1
5d5a7d896c04b2001a1edff8,63f3cfca20052e4ae7554ebf,6453ca62ea5aec566f0ac32d,2023-05-04_17h09.24.236,ga_syllabified_check,2022.2.5,Win32,60.07810153,,,,,,,,,,,,,,./stim/p07_syllable_1_manhiala_hit.wav,p07,mañiala,hit,ma-nhia-la,ma-ñia-la,ma-ñi-a-la, ,-0.365885417,-0.096354167,1,0,0,1.2333,text_option_1,,0,140,140,157,1
5d5a7d896c04b2001a1edff8,63f3cfca20052e4ae7554ebf,6453ca62ea5aec566f0ac32d,2023-05-04_17h09.24.236,ga_syllabified_check,2022.2.5,Win32,60.07810153,,,,,,,,,,,,,,./stim/p04_syllable_1_ruyiola_hit.wav,p04,ruyiola,hit,ru-yio-la,ru-yio-la,ru-yi-o-la, ,-0.37890625,-0.09765625,1,0,0,1.0664,text_option_1,,0,141,141,66,1
5d5a7d896c04b2001a1edff8,63f3cfca20052e4ae7554ebf,6453ca62ea5aec566f0ac32d,2023-05-04_17h09.24.236,ga_syllabified_check,2022.2.5,Win32,60.07810153,,,,,,,,,,,,,,./stim/p03_syllable_1_lakapuaisto_hit.wav,p03,lakapuaisto,hit,la-ka-puais-to,la-ka-puais-to,la-ka-pu-ais-to,la-ka-pua-is-to,-0.34765625,-0.1015625,1,0,0,1.2332,text_option_1,,0,142,142,17,1
5d5a7d896c04b2001a1edff8,63f3cfca20052e4ae7554ebf,6453ca62ea5aec566f0ac32d,2023-05-04_17h09.24.236,ga_syllabified_check,2022.2.5,Win32,60.07810153,,,,,,,,,,,,,,./stim/p06_syllable_1_lakapuaisto_hit.wav,p06,lakapuaisto,hit,la-ka-pu-a-is,la-ka-puais-to,la-ka-pu-ais-to,la-ka-pua-is-to,-0.014322917,-0.3046875,1,0,0,7.9151,text_option_other,la-ka-pu-ais-to,0,143,143,119,1
5d5a7d896c04b2001a1edff8,63f3cfca20052e4ae7554ebf,6453ca62ea5aec566f0ac32d,2023-05-04_17h09.24.236,ga_syllabified_check,2022.2.5,Win32,60.07810153,,,,,,,,,,,,,,./stim/p04_syllable_1_falutraigo_hit.wav,p04,falutraigo,hit,fa-lu-trai-go,fa-lu-trai-go,fa-lu-tra-i-go, ,-0.384114583,-0.11328125,1,0,0,1.4632,text_option_1,,0,144,144,38,1
5d5a7d896c04b2001a1edff8,63f3cfca20052e4ae7554ebf,6453ca62ea5aec566f0ac32d,2023-05-04_17h09.24.236,ga_syllabified_check,2022.2.5,Win32,60.07810153,,,,,,,,,,,,,,./stim/p08_syllable_1_lakatuaisto_hit.wav,p08,lakatuaisto,hit,la-ka-tu-i-jis,la-ka-tuais-to,la-ka-tu-ais-to,la-ka-tua-is-to,0.412760417,-0.095052083,1,0,0,9.1962,text_option_2,,0,145,145,189,1
5d5a7d896c04b2001a1edff8,63f3cfca20052e4ae7554ebf,6453ca62ea5aec566f0ac32d,2023-05-04_17h09.24.236,ga_syllabified_check,2022.2.5,Win32,60.07810153,,,,,,,,,,,,,,./stim/p05_syllable_1_lakapuaisto_hit.wav,p05,lakapuaisto,hit,la-ka-pais-to,la-ka-puais-to,la-ka-pu-ais-to,la-ka-pua-is-to,-0.364583333,-0.09765625,1,0,0,4.9158,text_option_1,,0,146,146,85,1
5d5a7d896c04b2001a1edff8,63f3cfca20052e4ae7554ebf,6453ca62ea5aec566f0ac32d,2023-05-04_17h09.24.236,ga_syllabified_check,2022.2.5,Win32,60.07810153,,,,,,,,,,,,,,./stim/p06_syllable_1_palufauro_hit.wav,p06,palufauro,hit,pa-lu-fau-ro,pa-lu-fau-ro,pa-lu-fa-u-ro, ,0.408854167,-0.110677083,1,0,0,4.213,text_option_2,,0,147,147,127,1
5d5a7d896c04b2001a1edff8,63f3cfca20052e4ae7554ebf,6453ca62ea5aec566f0ac32d,2023-05-04_17h09.24.236,ga_syllabified_check,2022.2.5,Win32,60.07810153,,,,,,,,,,,,,,./stim/p04_syllable_1_manhiala_hit.wav,p04,mañiala,hit,ma-nhia-la,ma-ñia-la,ma-ñi-a-la, ,-0.415364583,-0.102864583,1,0,0,0.6286,text_option_1,,0,148,148,55,1
5d5a7d896c04b2001a1edff8,63f3cfca20052e4ae7554ebf,6453ca62ea5aec566f0ac32d,2023-05-04_17h09.24.236,ga_syllabified_check,2022.2.5,Win32,60.07810153,,,,,,,,,,,,,,./stim/p03_syllable_1_tuliafo_hit.wav,p03,tuliafo,hit,tu-lia-fo,tu-lia-fo,tu-li-a-fo, ,-0.41015625,-0.091145833,1,0,0,0.6434,text_option_1,,0,149,149,33,1
5d5a7d896c04b2001a1edff8,63f3cfca20052e4ae7554ebf,6453ca62ea5aec566f0ac32d,2023-05-04_17h09.24.236,ga_syllabified_check,2022.2.5,Win32,60.07810153,,,,,,,,,,,,,,./stim/p06_syllable_1_lakaduaisto_hit.wav,p06,lakaduaisto,hit,la-ka-du-a-is,la-ka-duais-to,la-ka-du-ais-to,la-ka-dua-is-to,0.037760417,-0.295572917,1,0,0,4.5989,text_option_other,la-ka-du-ais-to,0,150,150,111,1
5d5a7d896c04b2001a1edff8,63f3cfca20052e4ae7554ebf,6453ca62ea5aec566f0ac32d,2023-05-04_17h09.24.236,ga_syllabified_check,2022.2.5,Win32,60.07810153,,,,,,,,,,,,,,./stim/p05_syllable_1_paluguato_hit.wav,p05,paluguato,hit,pa-lu-gau-to,pa-lu-gua-to,pa-lu-gu-a-to, ,0.02734375,-0.305989583,1,0,0,4.9823,text_option_other,pa-la-gau-to,0,151,151,95,1
5d5a7d896c04b2001a1edff8,63f3cfca20052e4ae7554ebf,6453ca62ea5aec566f0ac32d,2023-05-04_17h09.24.236,ga_syllabified_check,2022.2.5,Win32,60.07810153,,,,,,,,,,,,,,./stim/p04_syllable_1_payielo_hit.wav,p04,payielo,hit,pa-yie-lo,pa-yie-lo,pa-yi-e-lo, ,-0.365885417,-0.1015625,1,0,0,0.7518,text_option_1,,0,152,152,64,1
5d5a7d896c04b2001a1edff8,63f3cfca20052e4ae7554ebf,6453ca62ea5aec566f0ac32d,2023-05-04_17h09.24.236,ga_syllabified_check,2022.2.5,Win32,60.07810153,,,,,,,,,,,,,,./stim/p06_syllable_1_lakatuaisto_hit.wav,p06,lakatuaisto,hit,la-ka-tu-a-is,la-ka-tuais-to,la-ka-tu-ais-to,la-ka-tua-is-to,0.079427083,-0.295572917,1,0,0,3.5002,text_option_other,la-ka-tu-ais-to,0,153,153,121,1
5d5a7d896c04b2001a1edff8,63f3cfca20052e4ae7554ebf,6453ca62ea5aec566f0ac32d,2023-05-04_17h09.24.236,ga_syllabified_check,2022.2.5,Win32,60.07810153,,,,,,,,,,,,,,./stim/p03_syllable_1_mebochiana_hit.wav,p03,mebochiana,hit,me-bo-chia-na,me-bo-chia-na,me-bo-chi-a-na, ,-0.348958333,-0.096354167,1,0,0,1.1809,text_option_1,,0,154,154,22,1
5d5a7d896c04b2001a1edff8,63f3cfca20052e4ae7554ebf,6453ca62ea5aec566f0ac32d,2023-05-04_17h09.24.236,ga_syllabified_check,2022.2.5,Win32,60.07810153,,,,,,,,,,,,,,./stim/p07_syllable_1_paluguato_hit.wav,p07,paluguato,hit,pa-lu-gua-to,pa-lu-gua-to,pa-lu-gu-a-to, ,-0.356770833,-0.09765625,1,0,0,1.4653,text_option_1,,0,155,155,163,1
5d5a7d896c04b2001a1edff8,63f3cfca20052e4ae7554ebf,6453ca62ea5aec566f0ac32d,2023-05-04_17h09.24.236,ga_syllabified_check,2022.2.5,Win32,60.07810153,,,,,,,,,,,,,,./stim/p06_syllable_1_rausto_hit.wav,p06,rausto,hit,ra-us-to,raus-to,ra-us-to, ,0.408854167,-0.106770833,1,0,0,1.5493,text_option_2,,0,156,156,133,1
5d5a7d896c04b2001a1edff8,63f3cfca20052e4ae7554ebf,6453ca62ea5aec566f0ac32d,2023-05-04_17h09.24.236,ga_syllabified_check,2022.2.5,Win32,60.07810153,,,,,,,,,,,,,,./stim/p04_syllable_1_lakaduaisto_hit.wav,p04,lakaduaisto,hit,la-ka-duais-to,la-ka-duais-to,la-ka-du-ais-to,la-ka-dua-is-to,-0.412760417,-0.104166667,1,0,0,0.7878,text_option_1,,0,157,157,43,1
5d5a7d896c04b2001a1edff8,63f3cfca20052e4ae7554ebf,6453ca62ea5aec566f0ac32d,2023-05-04_17h09.24.236,ga_syllabified_check,2022.2.5,Win32,60.07810153,,,,,,,,,,,,,,./stim/p08_syllable_1_lakafuaisto_hit.wav,p08,lakafuaisto,hit,la-ka-fju-ais-to,la-ka-fuais-to,la-ka-fu-ais-to,la-ka-fua-is-to,0.450520833,-0.1015625,1,0,0,3.932,text_option_2,,0,158,158,181,1
5d5a7d896c04b2001a1edff8,63f3cfca20052e4ae7554ebf,6453ca62ea5aec566f0ac32d,2023-05-04_17h09.24.236,ga_syllabified_check,2022.2.5,Win32,60.07810153,,,,,,,,,,,,,,./stim/p07_syllable_1_rausto_hit.wav,p07,rausto,hit,raus-to,raus-to,ra-us-to, ,-0.401041667,-0.104166667,1,0,0,0.9994,text_option_1,,0,159,159,167,1
5d5a7d896c04b2001a1edff8,63f3cfca20052e4ae7554ebf,6453ca62ea5aec566f0ac32d,2023-05-04_17h09.24.236,ga_syllabified_check,2022.2.5,Win32,60.07810153,,,,,,,,,,,,,,./stim/p03_syllable_1_palumaisto_hit.wav,p03,palumaisto,hit,pa-lu-mais-to,pa-lu-mais-to,pa-lu-ma-is-to, ,-0.369791667,-0.108072917,1,0,0,1.1661,text_option_1,,0,160,160,28,1
5d5a7d896c04b2001a1edff8,63f3cfca20052e4ae7554ebf,6453ca62ea5aec566f0ac32d,2023-05-04_17h09.24.236,ga_syllabified_check,2022.2.5,Win32,60.07810153,,,,,,,,,,,,,,./stim/p07_syllable_1_lakabuaisto_hit.wav,p07,lakabuaisto,hit,la-ka-buais-to,la-ka-buais-to,la-ka-bu-ais-to,la-ka-bua-is-to,-0.360677083,-0.109375,1,0,0,2.1816,text_option_1,,0,161,161,143,1
5d5a7d896c04b2001a1edff8,63f3cfca20052e4ae7554ebf,6453ca62ea5aec566f0ac32d,2023-05-04_17h09.24.236,ga_syllabified_check,2022.2.5,Win32,60.07810153,,,,,,,,,,,,,,./stim/p03_syllable_1_lakabuaisto_hit.wav,p03,lakabuaisto,hit,la-ka-buais-to,la-ka-buais-to,la-ka-bu-ais-to,la-ka-bua-is-to,-0.337239583,-0.10546875,1,0,0,1.0982,text_option_1,,0,162,162,7,1
5d5a7d896c04b2001a1edff8,63f3cfca20052e4ae7554ebf,6453ca62ea5aec566f0ac32d,2023-05-04_17h09.24.236,ga_syllabified_check,2022.2.5,Win32,60.07810153,,,,,,,,,,,,,,./stim/p08_syllable_1_palufauto_hit.wav,p08,palufauto,hit,pa-lu-fau-to,pa-lu-fau-to,pa-lu-fa-u-to, ,-0.380208333,-0.092447917,1,0,0,2.3256,text_option_1,,0,163,163,196,1
5d5a7d896c04b2001a1edff8,63f3cfca20052e4ae7554ebf,6453ca62ea5aec566f0ac32d,2023-05-04_17h09.24.236,ga_syllabified_check,2022.2.5,Win32,60.07810153,,,,,,,,,,,,,,./stim/p08_syllable_1_chiaba_hit.wav,p08,chiaba,hit,chi-a-ba,chia-ba,chi-a-ba, ,0.419270833,-0.087239583,1,0,0,0.5832,text_option_2,,0,164,164,170,1
5d5a7d896c04b2001a1edff8,63f3cfca20052e4ae7554ebf,6453ca62ea5aec566f0ac32d,2023-05-04_17h09.24.236,ga_syllabified_check,2022.2.5,Win32,60.07810153,,,,,,,,,,,,,,./stim/p07_syllable_1_lakabiaisto_hit.wav,p07,lakabiaisto,hit,la-ka-bais-to,la-ka-biais-to,la-ka-bi-ais-to,la-ka-bia-is-to,-0.385416667,-0.104166667,1,0,0,2.4915,text_option_1,,0,165,165,142,1
5d5a7d896c04b2001a1edff8,63f3cfca20052e4ae7554ebf,6453ca62ea5aec566f0ac32d,2023-05-04_17h09.24.236,ga_syllabified_check,2022.2.5,Win32,60.07810153,,,,,,,,,,,,,,./stim/p05_syllable_1_tuliafo_hit.wav,p05,tuliafo,hit,tu-lai-fo,tu-lia-fo,tu-li-a-fo, ,0.048177083,-0.309895833,1,0,0,1.617,text_option_other,tulaifo,0,166,166,101,1
5d5a7d896c04b2001a1edff8,63f3cfca20052e4ae7554ebf,6453ca62ea5aec566f0ac32d,2023-05-04_17h09.24.236,ga_syllabified_check,2022.2.5,Win32,60.07810153,,,,,,,,,,,,,,./stim/p08_syllable_1_manhiala_hit.wav,p08,mañiala,hit,ma-nhia-la,ma-ñia-la,ma-ñi-a-la, ,-0.389322917,-0.096354167,1,0,0,1.7163,text_option_1,,0,167,167,191,1
5d5a7d896c04b2001a1edff8,63f3cfca20052e4ae7554ebf,6453ca62ea5aec566f0ac32d,2023-05-04_17h09.24.236,ga_syllabified_check,2022.2.5,Win32,60.07810153,,,,,,,,,,,,,,./stim/p05_syllable_1_palutrauco_hit.wav,p05,palutrauco,hit,pa-lu-trai-co,pa-lu-trau-co,pa-lu-tra-u-co, ,0.002604167,-0.3046875,1,0,0,2.5,text_option_other,pa-lu-trai-co,0,168,168,97,1
5d5a7d896c04b2001a1edff8,63f3cfca20052e4ae7554ebf,6453ca62ea5aec566f0ac32d,2023-05-04_17h09.24.236,ga_syllabified_check,2022.2.5,Win32,60.07810153,,,,,,,,,,,,,,./stim/p05_syllable_1_rausto_hit.wav,p05,rausto,hit,raus-to,raus-to,ra-us-to, ,-0.3671875,-0.109375,1,0,0,0.2342,text_option_1,,0,169,169,99,1
5d5a7d896c04b2001a1edff8,63f3cfca20052e4ae7554ebf,6453ca62ea5aec566f0ac32d,2023-05-04_17h09.24.236,ga_syllabified_check,2022.2.5,Win32,60.07810153,,,,,,,,,,,,,,./stim/p06_syllable_1_lliape_hit.wav,p06,lliape,hit,lli-lla-pe,llia-pe,lli-a-pe, ,0.436197917,-0.114583333,1,0,0,1.6828,text_option_2,,0,170,170,122,1
5d5a7d896c04b2001a1edff8,63f3cfca20052e4ae7554ebf,6453ca62ea5aec566f0ac32d,2023-05-04_17h09.24.236,ga_syllabified_check,2022.2.5,Win32,60.07810153,,,,,,,,,,,,,,./stim/p08_syllable_1_palufauro_hit.wav,p08,palufauro,hit,pa-lu-fau-ro,pa-lu-fau-ro,pa-lu-fa-u-ro, ,-0.342447917,-0.104166667,1,0,0,2.1493,text_option_1,,0,171,171,195,1
5d5a7d896c04b2001a1edff8,63f3cfca20052e4ae7554ebf,6453ca62ea5aec566f0ac32d,2023-05-04_17h09.24.236,ga_syllabified_check,2022.2.5,Win32,60.07810153,,,,,,,,,,,,,,./stim/p05_syllable_1_lakaguaisto_hit.wav,p05,lakaguaisto,hit,la-ka-gais,la-ka-guais-to,la-ka-gu-ais-to,la-ka-gua-is-to,-0.31640625,-0.096354167,1,0,0,2.1257,text_option_1,,0,172,172,81,1
5d5a7d896c04b2001a1edff8,63f3cfca20052e4ae7554ebf,6453ca62ea5aec566f0ac32d,2023-05-04_17h09.24.236,ga_syllabified_check,2022.2.5,Win32,60.07810153,,,,,,,,,,,,,,./stim/p05_syllable_1_falutraigo_hit.wav,p05,falutraigo,hit,fa-lu-trai-go,fa-lu-trai-go,fa-lu-tra-i-go, ,-0.356770833,-0.102864583,1,0,0,0.934,text_option_1,,0,173,173,72,1
5d5a7d896c04b2001a1edff8,63f3cfca20052e4ae7554ebf,6453ca62ea5aec566f0ac32d,2023-05-04_17h09.24.236,ga_syllabified_check,2022.2.5,Win32,60.07810153,,,,,,,,,,,,,,./stim/p05_syllable_1_ruyiola_hit.wav,p05,ruyiola,hit,ru-yio-la,ru-yio-la,ru-yi-o-la, ,0.381510417,-0.098958333,1,0,0,0.7324,text_option_2,,0,174,174,100,1
5d5a7d896c04b2001a1edff8,63f3cfca20052e4ae7554ebf,6453ca62ea5aec566f0ac32d,2023-05-04_17h09.24.236,ga_syllabified_check,2022.2.5,Win32,60.07810153,,,,,,,,,,,,,,./stim/p08_syllable_1_lakafiaisto_hit.wav,p08,lakafiaisto,hit,la-ka-fi-as-to,la-ka-fiais-to,la-ka-fi-ais-to,la-ka-fia-is-to,0.436197917,-0.106770833,1,0,0,3.8796,text_option_2,,0,175,175,180,1
5d5a7d896c04b2001a1edff8,63f3cfca20052e4ae7554ebf,6453ca62ea5aec566f0ac32d,2023-05-04_17h09.24.236,ga_syllabified_check,2022.2.5,Win32,60.07810153,,,,,,,,,,,,,,./stim/p04_syllable_1_lakapuaisto_hit.wav,p04,lakapuaisto,hit,la-ka-puais-to,la-ka-puais-to,la-ka-pu-ais-to,la-ka-pua-is-to,-0.358072917,-0.100260417,1,0,0,1.0987,text_option_1,,0,176,176,51,1
5d5a7d896c04b2001a1edff8,63f3cfca20052e4ae7554ebf,6453ca62ea5aec566f0ac32d,2023-05-04_17h09.24.236,ga_syllabified_check,2022.2.5,Win32,60.07810153,,,,,,,,,,,,,,./stim/p06_syllable_1_lakafuaisto_hit.wav,p06,lakafuaisto,hit,la-ka-fu-a-is,la-ka-fuais-to,la-ka-fu-ais-to,la-ka-fua-is-to,0.036458333,-0.296875,1,0,0,3.7292,text_option_other,la-ka-fu-ais-to,0,177,177,113,1
5d5a7d896c04b2001a1edff8,63f3cfca20052e4ae7554ebf,6453ca62ea5aec566f0ac32d,2023-05-04_17h09.24.236,ga_syllabified_check,2022.2.5,Win32,60.07810153,,,,,,,,,,,,,,./stim/p06_syllable_1_pachialo_hit.wav,p06,pachialo,hit,pa-shi-a-lo,pa-chia-lo,pa-chi-a-lo, ,0.389322917,-0.122395833,1,0,0,2.049,text_option_2,,0,178,178,126,1
5d5a7d896c04b2001a1edff8,63f3cfca20052e4ae7554ebf,6453ca62ea5aec566f0ac32d,2023-05-04_17h09.24.236,ga_syllabified_check,2022.2.5,Win32,60.07810153,,,,,,,,,,,,,,./stim/p05_syllable_1_lakatiaisto_hit.wav,p05,lakatiaisto,hit,la-ka-ti-ais-to,la-ka-tiais-to,la-ka-ti-ais-to,la-ka-tia-is-to,-0.415364583,-0.095052083,1,0,0,2.4327,text_option_1,,0,179,179,86,1
5d5a7d896c04b2001a1edff8,63f3cfca20052e4ae7554ebf,6453ca62ea5aec566f0ac32d,2023-05-04_17h09.24.236,ga_syllabified_check,2022.2.5,Win32,60.07810153,,,,,,,,,,,,,,./stim/p04_syllable_1_lakaguaisto_hit.wav,p04,lakaguaisto,hit,la-ka-guais-to,la-ka-guais-to,la-ka-gu-ais-to,la-ka-gua-is-to,-0.380208333,-0.111979167,1,0,0,1.2078,text_option_1,,0,180,180,47,1
5d5a7d896c04b2001a1edff8,63f3cfca20052e4ae7554ebf,6453ca62ea5aec566f0ac32d,2023-05-04_17h09.24.236,ga_syllabified_check,2022.2.5,Win32,60.07810153,,,,,,,,,,,,,,./stim/p06_syllable_1_mebochiana_hit.wav,p06,mebochiana,hit,me-bo-shi-a-na,me-bo-chia-na,me-bo-chi-a-na, ,0.458333333,-0.106770833,1,0,0,2.8828,text_option_2,,0,181,181,124,1
5d5a7d896c04b2001a1edff8,63f3cfca20052e4ae7554ebf,6453ca62ea5aec566f0ac32d,2023-05-04_17h09.24.236,ga_syllabified_check,2022.2.5,Win32,60.07810153,,,,,,,,,,,,,,./stim/p05_syllable_1_lakafuaisto_hit.wav,p05,lakafuaisto,hit,la-ka-fais-to,la-ka-fuais-to,la-ka-fu-ais-to,la-ka-fua-is-to,0.065104167,-0.302083333,1,0,0,2.8982,text_option_other,la-ka-fais-to,0,182,182,79,1
5d5a7d896c04b2001a1edff8,63f3cfca20052e4ae7554ebf,6453ca62ea5aec566f0ac32d,2023-05-04_17h09.24.236,ga_syllabified_check,2022.2.5,Win32,60.07810153,,,,,,,,,,,,,,./stim/p06_syllable_1_tuliafo_hit.wav,p06,tuliafo,hit,tu-li-a-fo,tu-lia-fo,tu-li-a-fo, ,0.40234375,-0.109375,1,0,0,1.4988,text_option_2,,0,183,183,135,1
5d5a7d896c04b2001a1edff8,63f3cfca20052e4ae7554ebf,6453ca62ea5aec566f0ac32d,2023-05-04_17h09.24.236,ga_syllabified_check,2022.2.5,Win32,60.07810153,,,,,,,,,,,,,,./stim/p08_syllable_1_lakakiaisto_hit.wav,p08,lakakiaisto,hit,la-ka-ki-jas-to,la-ka-kiais-to,la-ka-ki-ais-to,la-ka-kia-is-to,0.450520833,-0.095052083,1,0,0,3.282,text_option_2,,0,184,184,184,1
5d5a7d896c04b2001a1edff8,63f3cfca20052e4ae7554ebf,6453ca62ea5aec566f0ac32d,2023-05-04_17h09.24.236,ga_syllabified_check,2022.2.5,Win32,60.07810153,,,,,,,,,,,,,,./stim/p04_syllable_1_paluguato_hit.wav,p04,paluguato,hit,pa-lu-gua,pa-lu-gua-to,pa-lu-gu-a-to, ,-0.0078125,-0.302083333,1,0,0,3.0986,text_option_other,pa-lu-gua,0,185,185,61,1
5d5a7d896c04b2001a1edff8,63f3cfca20052e4ae7554ebf,6453ca62ea5aec566f0ac32d,2023-05-04_17h09.24.236,ga_syllabified_check,2022.2.5,Win32,60.07810153,,,,,,,,,,,,,,./stim/p03_syllable_1_pachialo_hit.wav,p03,pachialo,hit,pa-chia-lo,pa-chia-lo,pa-chi-a-lo, ,-0.372395833,-0.10546875,1,0,0,1.5001,text_option_1,,0,186,186,24,1
5d5a7d896c04b2001a1edff8,63f3cfca20052e4ae7554ebf,6453ca62ea5aec566f0ac32d,2023-05-04_17h09.24.236,ga_syllabified_check,2022.2.5,Win32,60.07810153,,,,,,,,,,,,,,./stim/p05_syllable_1_payielo_hit.wav,p05,payielo,hit,pai-yu-we-lo,pa-yie-lo,pa-yi-e-lo, ,0.010416667,-0.309895833,1,0,0,1.183,text_option_other,pa-yue-lo,0,187,187,98,1
5d5a7d896c04b2001a1edff8,63f3cfca20052e4ae7554ebf,6453ca62ea5aec566f0ac32d,2023-05-04_17h09.24.236,ga_syllabified_check,2022.2.5,Win32,60.07810153,,,,,,,,,,,,,,./stim/p06_syllable_1_flauro_hit.wav,p06,flauro,hit,fla-u-ro,flau-ro,fla-u-ro, ,0.436197917,-0.091145833,1,0,0,1.2659,text_option_2,,0,188,188,107,1
5d5a7d896c04b2001a1edff8,63f3cfca20052e4ae7554ebf,6453ca62ea5aec566f0ac32d,2023-05-04_17h09.24.236,ga_syllabified_check,2022.2.5,Win32,60.07810153,,,,,,,,,,,,,,./stim/p06_syllable_1_nhiape_hit.wav,p06,ñiape,hit,nhi-a-pe,ñia-pe,ñi-a-pe, ,0.407552083,-0.1015625,1,0,0,1.4574,text_option_2,,0,189,189,125,1
5d5a7d896c04b2001a1edff8,63f3cfca20052e4ae7554ebf,6453ca62ea5aec566f0ac32d,2023-05-04_17h09.24.236,ga_syllabified_check,2022.2.5,Win32,60.07810153,,,,,,,,,,,,,,./stim/p08_syllable_1_lakadiaisto_hit.wav,p08,lakadiaisto,hit,la-ka-di-jas-to,la-ka-diais-to,la-ka-di-ais-to,la-ka-dia-is-to,0.43359375,-0.109375,1,0,0,3.1829,text_option_2,,0,190,190,178,1
5d5a7d896c04b2001a1edff8,63f3cfca20052e4ae7554ebf,6453ca62ea5aec566f0ac32d,2023-05-04_17h09.24.236,ga_syllabified_check,2022.2.5,Win32,60.07810153,,,,,,,,,,,,,,./stim/p07_syllable_1_lakaduaisto_hit.wav,p07,lakaduaisto,hit,la-ka-duais-to,la-ka-duais-to,la-ka-du-ais-to,la-ka-dua-is-to,-0.356770833,-0.092447917,1,0,0,1.883,text_option_1,,0,191,191,145,1
5d5a7d896c04b2001a1edff8,63f3cfca20052e4ae7554ebf,6453ca62ea5aec566f0ac32d,2023-05-04_17h09.24.236,ga_syllabified_check,2022.2.5,Win32,60.07810153,,,,,,,,,,,,,,./stim/p08_syllable_1_faluduako_hit.wav,p08,faluduako,hit,fa-lu-duai-ko,fa-lu-dua-ko,fa-lu-du-a-ko, ,0.075520833,-0.302083333,1,0,0,2.6562,text_option_other,fa-lu-duai-ko,0,192,192,172,1
5d5a7d896c04b2001a1edff8,63f3cfca20052e4ae7554ebf,6453ca62ea5aec566f0ac32d,2023-05-04_17h09.24.236,ga_syllabified_check,2022.2.5,Win32,60.07810153,,,,,,,,,,,,,,./stim/p05_syllable_1_costonhialo_hit.wav,p05,costoñialo,hit,cos-to-nhia-lo,cos-to-ñia-lo,cos-to-ñi-a-lo, ,-0.373697917,-0.119791667,1,0,0,1.283,text_option_1,,0,193,193,69,1
5d5a7d896c04b2001a1edff8,63f3cfca20052e4ae7554ebf,6453ca62ea5aec566f0ac32d,2023-05-04_17h09.24.236,ga_syllabified_check,2022.2.5,Win32,60.07810153,,,,,,,,,,,,,,./stim/p08_syllable_1_lakatiaisto_hit.wav,p08,lakatiaisto,hit,la-ka-ti-as-to,la-ka-tiais-to,la-ka-ti-ais-to,la-ka-tia-is-to,0.0546875,-0.291666667,1,0,0,4.9781,text_option_other,la-ka-ti-as-to,0,194,194,188,1
5d5a7d896c04b2001a1edff8,63f3cfca20052e4ae7554ebf,6453ca62ea5aec566f0ac32d,2023-05-04_17h09.24.236,ga_syllabified_check,2022.2.5,Win32,60.07810153,,,,,,,,,,,,,,./stim/p03_syllable_1_lakatuaisto_hit.wav,p03,lakatuaisto,hit,la-ka-tuais-to,la-ka-tuais-to,la-ka-tu-ais-to,la-ka-tua-is-to,-0.329427083,-0.104166667,1,0,0,2.2661,text_option_1,,0,195,195,19,1
5d5a7d896c04b2001a1edff8,63f3cfca20052e4ae7554ebf,6453ca62ea5aec566f0ac32d,2023-05-04_17h09.24.236,ga_syllabified_check,2022.2.5,Win32,60.07810153,,,,,,,,,,,,,,./stim/p05_syllable_1_lliape_hit.wav,p05,lliape,hit,liai-pe,llia-pe,lli-a-pe, ,0.037760417,-0.3125,1,0,0,1.5152,text_option_other,lliai-pe,0,196,196,88,1
5d5a7d896c04b2001a1edff8,63f3cfca20052e4ae7554ebf,6453ca62ea5aec566f0ac32d,2023-05-04_17h09.24.236,ga_syllabified_check,2022.2.5,Win32,60.07810153,,,,,,,,,,,,,,./stim/p05_syllable_1_pachialo_hit.wav,p05,pachialo,hit,pan-chia-lo,pa-chia-lo,pa-chi-a-lo, ,0.427083333,-0.102864583,1,0,0,1.4494,text_option_2,,0,197,197,92,1
5d5a7d896c04b2001a1edff8,63f3cfca20052e4ae7554ebf,6453ca62ea5aec566f0ac32d,2023-05-04_17h09.24.236,ga_syllabified_check,2022.2.5,Win32,60.07810153,,,,,,,,,,,,,,./stim/p03_syllable_1_falufaisto_hit.wav,p03,falufaisto,hit,fa-lu-fais-to,fa-lu-fais-to,fa-lu-fa-is-to, ,-0.352864583,-0.102864583,1,0,0,1.3,text_option_1,,0,198,198,3,1
5d5a7d896c04b2001a1edff8,63f3cfca20052e4ae7554ebf,6453ca62ea5aec566f0ac32d,2023-05-04_17h09.24.236,ga_syllabified_check,2022.2.5,Win32,60.07810153,,,,,,,,,,,,,,./stim/p03_syllable_1_palufauro_hit.wav,p03,palufauro,hit,pa-lu-fau-ro,pa-lu-fau-ro,pa-lu-fa-u-ro, ,-0.317708333,-0.106770833,1,0,0,1.0663,text_option_1,,0,199,199,25,1
5d5a7d896c04b2001a1edff8,63f3cfca20052e4ae7554ebf,6453ca62ea5aec566f0ac32d,2023-05-04_17h09.24.236,ga_syllabified_check,2022.2.5,Win32,60.07810153,,,,,,,,,,,,,,./stim/p04_syllable_1_lakatiaisto_hit.wav,p04,lakatiaisto,hit,la-ka-kiais-to,la-ka-tiais-to,la-ka-ti-ais-to,la-ka-tia-is-to,-0.317708333,-0.106770833,1,0,0,1.3496,text_option_1,,0,200,200,52,1
5d5a7d896c04b2001a1edff8,63f3cfca20052e4ae7554ebf,6453ca62ea5aec566f0ac32d,2023-05-04_17h09.24.236,ga_syllabified_check,2022.2.5,Win32,60.07810153,,,,,,,,,,,,,,./stim/p04_syllable_1_palutrauco_hit.wav,p04,palutrauco,hit,pa-lu-trau-co,pa-lu-trau-co,pa-lu-tra-u-co, ,-0.317708333,-0.106770833,1,0,0,0.7322,text_option_1,,0,201,201,63,1
5d5a7d896c04b2001a1edff8,63f3cfca20052e4ae7554ebf,6453ca62ea5aec566f0ac32d,2023-05-04_17h09.24.236,ga_syllabified_check,2022.2.5,Win32,60.07810153,,,,,,,,,,,,,,./stim/p04_syllable_1_lakafiaisto_hit.wav,p04,lakafiaisto,hit,la-ka-fiais-to,la-ka-fiais-to,la-ka-fi-ais-to,la-ka-fia-is-to,-0.317708333,-0.106770833,1,0,0,0.9173,text_option_1,,0,202,202,44,1
5d5a7d896c04b2001a1edff8,63f3cfca20052e4ae7554ebf,6453ca62ea5aec566f0ac32d,2023-05-04_17h09.24.236,ga_syllabified_check,2022.2.5,Win32,60.07810153,,,,,,,,,,,,,,./stim/p03_syllable_1_lakabiaisto_hit.wav,p03,lakabiaisto,hit,la-ka-biais-to,la-ka-biais-to,la-ka-bi-ais-to,la-ka-bia-is-to,-0.317708333,-0.106770833,1,0,0,0.9767,text_option_1,,0,203,203,6,1
5d5a7d896c04b2001a1edff8,63f3cfca20052e4ae7554ebf,6453ca62ea5aec566f0ac32d,2023-05-04_17h09.24.236,ga_syllabified_check,2022.2.5,Win32,60.07810153,,,,,,,,,,,,,,,,,,,,,,,,,,,,,,,,,,
