participant,study,session,date,expName,psychopyVersion,OS,frameRate,mouse_practice.x,mouse_practice.y,mouse_practice.leftButton,mouse_practice.midButton,mouse_practice.rightButton,mouse_practice.time,mouse_practice.clicked_name,textbox_followup_practice.text,trials_practice.thisRepN,trials_practice.thisTrialN,trials_practice.thisN,trials_practice.thisIndex,trials_practice.ran,file_path,id,item,status,response,op1,op2,op3,mouse.x,mouse.y,mouse.leftButton,mouse.midButton,mouse.rightButton,mouse.time,mouse.clicked_name,textbox_followup.text,trials.thisRepN,trials.thisTrialN,trials.thisN,trials.thisIndex,trials.ran
5d60061e45714d00019ad6a4,63f3cfca20052e4ae7554ebf,6453c95dbedf32e478ba18cc,2023-05-04_17h04.13.996,ga_syllabified_check,2022.2.5,Win32,8.177818485,,,,,,,,,,,,,,,,,,,,,,,,,,,,,,,,,,
5d60061e45714d00019ad6a4,63f3cfca20052e4ae7554ebf,6453c95dbedf32e478ba18cc,2023-05-04_17h04.13.996,ga_syllabified_check,2022.2.5,Win32,8.177818485,-0.388333333,-0.096111111,1,0,0,2.6564,text_option_1_practice,,0,0,0,0,1,./stim/p03_syllable_1_liamo_hit.wav,p03,liamo,hit,lia-mo,lia-mo,li-a-mo, ,,,,,,,,,,,,,
5d60061e45714d00019ad6a4,63f3cfca20052e4ae7554ebf,6453c95dbedf32e478ba18cc,2023-05-04_17h04.13.996,ga_syllabified_check,2022.2.5,Win32,8.177818485,-0.388333333,-0.096111111,1,0,0,0.723,text_option_1_practice,,0,1,1,1,1,./stim/p05_syllable_1_matio_hit.wav,p05,matio,hit,ma-tio,ma-tio,ma-ti-o, ,,,,,,,,,,,,,
5d60061e45714d00019ad6a4,63f3cfca20052e4ae7554ebf,6453c95dbedf32e478ba18cc,2023-05-04_17h04.13.996,ga_syllabified_check,2022.2.5,Win32,8.177818485,-0.394444444,-0.105555556,1,0,0,2.3114,text_option_1_practice,,0,2,2,2,1,./stim/p08_syllable_1_liamo_hit.wav,p08,liamo,hit,ja-mo,lia-mo,li-a-mo, ,,,,,,,,,,,,,
5d60061e45714d00019ad6a4,63f3cfca20052e4ae7554ebf,6453c95dbedf32e478ba18cc,2023-05-04_17h04.13.996,ga_syllabified_check,2022.2.5,Win32,8.177818485,,,,,,,,,,,,,,,,,,,,,,,,,,,,,,,,,,
5d60061e45714d00019ad6a4,63f3cfca20052e4ae7554ebf,6453c95dbedf32e478ba18cc,2023-05-04_17h04.13.996,ga_syllabified_check,2022.2.5,Win32,8.177818485,,,,,,,,,,,,,,./stim/p06_syllable_1_lakakiaisto_hit.wav,p06,lakakiaisto,hit,la-ka-kia-is-to,la-ka-kiais-to,la-ka-ki-ais-to,la-ka-kia-is-to,-0.023888889,-0.096666667,1,0,0,7.2771,text_option_3,,0,0,0,116,1
5d60061e45714d00019ad6a4,63f3cfca20052e4ae7554ebf,6453c95dbedf32e478ba18cc,2023-05-04_17h04.13.996,ga_syllabified_check,2022.2.5,Win32,8.177818485,,,,,,,,,,,,,,./stim/p04_syllable_1_palufauto_hit.wav,p04,palufauto,hit,pa-lu-fau-to,pa-lu-fau-to,pa-lu-fa-u-to, ,-0.338888889,-0.096111111,1,0,0,1.3158,text_option_1,,0,1,1,60,1
5d60061e45714d00019ad6a4,63f3cfca20052e4ae7554ebf,6453c95dbedf32e478ba18cc,2023-05-04_17h04.13.996,ga_syllabified_check,2022.2.5,Win32,8.177818485,,,,,,,,,,,,,,./stim/p04_syllable_1_lakakiaisto_hit.wav,p04,lakakiaisto,hit,la-ka-kiais-to,la-ka-kiais-to,la-ka-ki-ais-to,la-ka-kia-is-to,-0.458888889,-0.100555556,1,0,0,5.1418,text_option_1,,0,2,2,48,1
5d60061e45714d00019ad6a4,63f3cfca20052e4ae7554ebf,6453c95dbedf32e478ba18cc,2023-05-04_17h04.13.996,ga_syllabified_check,2022.2.5,Win32,8.177818485,,,,,,,,,,,,,,./stim/p03_syllable_1_pachialo_hit.wav,p03,pachialo,hit,pa-chia-lo,pa-chia-lo,pa-chi-a-lo, ,-0.365,-0.108333333,1,0,0,2.5159,text_option_1,,0,3,3,24,1
5d60061e45714d00019ad6a4,63f3cfca20052e4ae7554ebf,6453c95dbedf32e478ba18cc,2023-05-04_17h04.13.996,ga_syllabified_check,2022.2.5,Win32,8.177818485,,,,,,,,,,,,,,./stim/p04_syllable_1_flauro_hit.wav,p04,flauro,hit,flau-ro,flau-ro,fla-u-ro, ,-0.383888889,-0.108333333,1,0,0,0.7442,text_option_1,,0,4,4,39,1
5d60061e45714d00019ad6a4,63f3cfca20052e4ae7554ebf,6453c95dbedf32e478ba18cc,2023-05-04_17h04.13.996,ga_syllabified_check,2022.2.5,Win32,8.177818485,,,,,,,,,,,,,,./stim/p07_syllable_1_palufauro_hit.wav,p07,palufauro,hit,pa-lu-fau-ro,pa-lu-fau-ro,pa-lu-fa-u-ro, ,-0.383888889,-0.108333333,1,0,0,2.322,text_option_1,,0,5,5,161,1
5d60061e45714d00019ad6a4,63f3cfca20052e4ae7554ebf,6453c95dbedf32e478ba18cc,2023-05-04_17h04.13.996,ga_syllabified_check,2022.2.5,Win32,8.177818485,,,,,,,,,,,,,,./stim/p08_syllable_1_paluguato_hit.wav,p08,paluguato,hit,pa-lu-gua-to,pa-lu-gua-to,pa-lu-gu-a-to, ,-0.383888889,-0.108333333,1,0,0,2.3633,text_option_1,,0,6,6,197,1
5d60061e45714d00019ad6a4,63f3cfca20052e4ae7554ebf,6453c95dbedf32e478ba18cc,2023-05-04_17h04.13.996,ga_syllabified_check,2022.2.5,Win32,8.177818485,,,,,,,,,,,,,,./stim/p04_syllable_1_lakafuaisto_hit.wav,p04,lakafuaisto,hit,la-ka-fuais-to,la-ka-fuais-to,la-ka-fu-ais-to,la-ka-fua-is-to,-0.383888889,-0.108333333,1,0,0,1.0239,text_option_1,,0,7,7,45,1
5d60061e45714d00019ad6a4,63f3cfca20052e4ae7554ebf,6453c95dbedf32e478ba18cc,2023-05-04_17h04.13.996,ga_syllabified_check,2022.2.5,Win32,8.177818485,,,,,,,,,,,,,,./stim/p03_syllable_1_rausto_hit.wav,p03,rausto,hit,raus-to,raus-to,ra-us-to, ,-0.383888889,-0.108333333,1,0,0,1.1959,text_option_1,,0,8,8,31,1
5d60061e45714d00019ad6a4,63f3cfca20052e4ae7554ebf,6453c95dbedf32e478ba18cc,2023-05-04_17h04.13.996,ga_syllabified_check,2022.2.5,Win32,8.177818485,,,,,,,,,,,,,,./stim/p03_syllable_1_lakadiaisto_hit.wav,p03,lakadiaisto,hit,la-ka-diais-to,la-ka-diais-to,la-ka-di-ais-to,la-ka-dia-is-to,-0.383888889,-0.108333333,1,0,0,1.5383,text_option_1,,0,9,9,8,1
5d60061e45714d00019ad6a4,63f3cfca20052e4ae7554ebf,6453c95dbedf32e478ba18cc,2023-05-04_17h04.13.996,ga_syllabified_check,2022.2.5,Win32,8.177818485,,,,,,,,,,,,,,./stim/p06_syllable_1_lakafiaisto_hit.wav,p06,lakafiaisto,hit,la-ka-fia-is-to,la-ka-fiais-to,la-ka-fi-ais-to,la-ka-fia-is-to,0.055,-0.098888889,1,0,0,3.3022,text_option_3,,0,10,10,112,1
5d60061e45714d00019ad6a4,63f3cfca20052e4ae7554ebf,6453c95dbedf32e478ba18cc,2023-05-04_17h04.13.996,ga_syllabified_check,2022.2.5,Win32,8.177818485,,,,,,,,,,,,,,./stim/p07_syllable_1_palutrauco_hit.wav,p07,palutrauco,hit,pa-lu-trau-co,pa-lu-trau-co,pa-lu-tra-u-co, ,-0.348888889,-0.1,1,0,0,1.1817,text_option_1,,0,11,11,165,1
5d60061e45714d00019ad6a4,63f3cfca20052e4ae7554ebf,6453c95dbedf32e478ba18cc,2023-05-04_17h04.13.996,ga_syllabified_check,2022.2.5,Win32,8.177818485,,,,,,,,,,,,,,./stim/p08_syllable_1_lakakiaisto_hit.wav,p08,lakakiaisto,hit,la-ka-ki-jas-to,la-ka-kiais-to,la-ka-ki-ais-to,la-ka-kia-is-to,-0.447222222,-0.088333333,1,0,0,11.7377,text_option_1,,0,12,12,184,1
5d60061e45714d00019ad6a4,63f3cfca20052e4ae7554ebf,6453c95dbedf32e478ba18cc,2023-05-04_17h04.13.996,ga_syllabified_check,2022.2.5,Win32,8.177818485,,,,,,,,,,,,,,./stim/p03_syllable_1_faluduako_hit.wav,p03,faluduako,hit,fa-lu-dua-ko,fa-lu-dua-ko,fa-lu-du-a-ko, ,-0.395555556,-0.095,1,0,0,1.4886,text_option_1,,0,13,13,2,1
5d60061e45714d00019ad6a4,63f3cfca20052e4ae7554ebf,6453c95dbedf32e478ba18cc,2023-05-04_17h04.13.996,ga_syllabified_check,2022.2.5,Win32,8.177818485,,,,,,,,,,,,,,./stim/p05_syllable_1_rausto_hit.wav,p05,rausto,hit,raus-to,raus-to,ra-us-to, ,-0.395555556,-0.095,1,0,0,0.1441,text_option_1,,0,14,14,99,1
5d60061e45714d00019ad6a4,63f3cfca20052e4ae7554ebf,6453c95dbedf32e478ba18cc,2023-05-04_17h04.13.996,ga_syllabified_check,2022.2.5,Win32,8.177818485,,,,,,,,,,,,,,./stim/p06_syllable_1_lakatiaisto_hit.wav,p06,lakatiaisto,hit,la-ka-pia-is-to,la-ka-tiais-to,la-ka-ti-ais-to,la-ka-tia-is-to,0.001666667,-0.101111111,1,0,0,2.7059,text_option_3,,0,15,15,120,1
5d60061e45714d00019ad6a4,63f3cfca20052e4ae7554ebf,6453c95dbedf32e478ba18cc,2023-05-04_17h04.13.996,ga_syllabified_check,2022.2.5,Win32,8.177818485,,,,,,,,,,,,,,./stim/p05_syllable_1_paluguato_hit.wav,p05,paluguato,hit,pa-lu-gau-to,pa-lu-gua-to,pa-lu-gu-a-to, ,0.031111111,-0.295,1,0,0,4.0845,text_option_other,pa lu gau to,0,16,16,95,1
5d60061e45714d00019ad6a4,63f3cfca20052e4ae7554ebf,6453c95dbedf32e478ba18cc,2023-05-04_17h04.13.996,ga_syllabified_check,2022.2.5,Win32,8.177818485,,,,,,,,,,,,,,./stim/p08_syllable_1_palufauto_hit.wav,p08,palufauto,hit,pa-lu-fau-to,pa-lu-fau-to,pa-lu-fa-u-to, ,-0.347222222,-0.106111111,1,0,0,3.776,text_option_1,,0,17,17,196,1
5d60061e45714d00019ad6a4,63f3cfca20052e4ae7554ebf,6453c95dbedf32e478ba18cc,2023-05-04_17h04.13.996,ga_syllabified_check,2022.2.5,Win32,8.177818485,,,,,,,,,,,,,,./stim/p03_syllable_1_flauro_hit.wav,p03,flauro,hit,flau-ro,flau-ro,fla-u-ro, ,-0.382222222,-0.106666667,1,0,0,0.6045,text_option_1,,0,18,18,5,1
5d60061e45714d00019ad6a4,63f3cfca20052e4ae7554ebf,6453c95dbedf32e478ba18cc,2023-05-04_17h04.13.996,ga_syllabified_check,2022.2.5,Win32,8.177818485,,,,,,,,,,,,,,./stim/p05_syllable_1_palumaisto_hit.wav,p05,palumaisto,hit,pa-lu-mais-to,pa-lu-mais-to,pa-lu-ma-is-to, ,-0.382222222,-0.106666667,1,0,0,1.3604,text_option_1,,0,19,19,96,1
5d60061e45714d00019ad6a4,63f3cfca20052e4ae7554ebf,6453c95dbedf32e478ba18cc,2023-05-04_17h04.13.996,ga_syllabified_check,2022.2.5,Win32,8.177818485,,,,,,,,,,,,,,./stim/p03_syllable_1_manhiala_hit.wav,p03,mañiala,hit,ma-nhia-la,ma-ñia-la,ma-ñi-a-la, ,-0.380555556,-0.103888889,1,0,0,3.9682,text_option_1,,0,20,20,21,1
5d60061e45714d00019ad6a4,63f3cfca20052e4ae7554ebf,6453c95dbedf32e478ba18cc,2023-05-04_17h04.13.996,ga_syllabified_check,2022.2.5,Win32,8.177818485,,,,,,,,,,,,,,./stim/p08_syllable_1_lakatuaisto_hit.wav,p08,lakatuaisto,hit,la-ka-tu-i-jis,la-ka-tuais-to,la-ka-tu-ais-to,la-ka-tua-is-to,0.028888889,-0.112777778,1,0,0,6.7036,text_option_3,,0,21,21,189,1
5d60061e45714d00019ad6a4,63f3cfca20052e4ae7554ebf,6453c95dbedf32e478ba18cc,2023-05-04_17h04.13.996,ga_syllabified_check,2022.2.5,Win32,8.177818485,,,,,,,,,,,,,,./stim/p08_syllable_1_lakatiaisto_hit.wav,p08,lakatiaisto,hit,la-ka-ti-as-to,la-ka-tiais-to,la-ka-ti-ais-to,la-ka-tia-is-to,-0.343333333,-0.110555556,1,0,0,5.8042,text_option_1,,0,22,22,188,1
5d60061e45714d00019ad6a4,63f3cfca20052e4ae7554ebf,6453c95dbedf32e478ba18cc,2023-05-04_17h04.13.996,ga_syllabified_check,2022.2.5,Win32,8.177818485,,,,,,,,,,,,,,./stim/p08_syllable_1_palufauro_hit.wav,p08,palufauro,hit,pa-lu-fau-ro,pa-lu-fau-ro,pa-lu-fa-u-ro, ,-0.343333333,-0.110555556,1,0,0,2.4289,text_option_1,,0,23,23,195,1
5d60061e45714d00019ad6a4,63f3cfca20052e4ae7554ebf,6453c95dbedf32e478ba18cc,2023-05-04_17h04.13.996,ga_syllabified_check,2022.2.5,Win32,8.177818485,,,,,,,,,,,,,,./stim/p05_syllable_1_falufaisto_hit.wav,p05,falufaisto,hit,fa-lu-fais-to,fa-lu-fais-to,fa-lu-fa-is-to, ,-0.343333333,-0.110555556,1,0,0,0.7353,text_option_1,,0,24,24,71,1
5d60061e45714d00019ad6a4,63f3cfca20052e4ae7554ebf,6453c95dbedf32e478ba18cc,2023-05-04_17h04.13.996,ga_syllabified_check,2022.2.5,Win32,8.177818485,,,,,,,,,,,,,,./stim/p03_syllable_1_falufaisto_hit.wav,p03,falufaisto,hit,fa-lu-fais-to,fa-lu-fais-to,fa-lu-fa-is-to, ,-0.343333333,-0.110555556,1,0,0,0.9005,text_option_1,,0,25,25,3,1
5d60061e45714d00019ad6a4,63f3cfca20052e4ae7554ebf,6453c95dbedf32e478ba18cc,2023-05-04_17h04.13.996,ga_syllabified_check,2022.2.5,Win32,8.177818485,,,,,,,,,,,,,,./stim/p08_syllable_1_flauro_hit.wav,p08,flauro,hit,flau-ro,flau-ro,fla-u-ro, ,-0.368888889,-0.106111111,1,0,0,0.7725,text_option_1,,0,26,26,175,1
5d60061e45714d00019ad6a4,63f3cfca20052e4ae7554ebf,6453c95dbedf32e478ba18cc,2023-05-04_17h04.13.996,ga_syllabified_check,2022.2.5,Win32,8.177818485,,,,,,,,,,,,,,./stim/p07_syllable_1_tuliafo_hit.wav,p07,tuliafo,hit,tu-lia-fo,tu-lia-fo,tu-li-a-fo, ,-0.368888889,-0.106111111,1,0,0,0.3228,text_option_1,,0,27,27,169,1
5d60061e45714d00019ad6a4,63f3cfca20052e4ae7554ebf,6453c95dbedf32e478ba18cc,2023-05-04_17h04.13.996,ga_syllabified_check,2022.2.5,Win32,8.177818485,,,,,,,,,,,,,,./stim/p08_syllable_1_palutrauco_hit.wav,p08,palutrauco,hit,pa-lu-trau-ko,pa-lu-trau-co,pa-lu-tra-u-co, ,-0.368888889,-0.106111111,1,0,0,2.1322,text_option_1,,0,28,28,199,1
5d60061e45714d00019ad6a4,63f3cfca20052e4ae7554ebf,6453c95dbedf32e478ba18cc,2023-05-04_17h04.13.996,ga_syllabified_check,2022.2.5,Win32,8.177818485,,,,,,,,,,,,,,./stim/p04_syllable_1_lliape_hit.wav,p04,lliape,hit,lia-pe,llia-pe,lli-a-pe, ,-0.358888889,-0.106111111,1,0,0,0.6071,text_option_1,,0,29,29,54,1
5d60061e45714d00019ad6a4,63f3cfca20052e4ae7554ebf,6453c95dbedf32e478ba18cc,2023-05-04_17h04.13.996,ga_syllabified_check,2022.2.5,Win32,8.177818485,,,,,,,,,,,,,,./stim/p07_syllable_1_lakafuaisto_hit.wav,p07,lakafuaisto,hit,la-ka-fuais-to,la-ka-fuais-to,la-ka-fu-ais-to,la-ka-fua-is-to,-0.358888889,-0.106111111,1,0,0,2.1398,text_option_1,,0,30,30,147,1
5d60061e45714d00019ad6a4,63f3cfca20052e4ae7554ebf,6453c95dbedf32e478ba18cc,2023-05-04_17h04.13.996,ga_syllabified_check,2022.2.5,Win32,8.177818485,,,,,,,,,,,,,,./stim/p08_syllable_1_lakagiaisto_hit.wav,p08,lakagiaisto,hit,la-ka-gi-jas-to,la-ka-giais-to,la-ka-gi-ais-to,la-ka-gia-is-to,-0.350555556,-0.120555556,1,0,0,7.9722,text_option_1,,0,31,31,182,1
5d60061e45714d00019ad6a4,63f3cfca20052e4ae7554ebf,6453c95dbedf32e478ba18cc,2023-05-04_17h04.13.996,ga_syllabified_check,2022.2.5,Win32,8.177818485,,,,,,,,,,,,,,./stim/p05_syllable_1_costonhialo_hit.wav,p05,costoñialo,hit,cos-to-nhia-lo,cos-to-ñia-lo,cos-to-ñi-a-lo, ,-0.363888889,-0.106111111,1,0,0,11.3394,text_option_1,,0,32,32,69,1
5d60061e45714d00019ad6a4,63f3cfca20052e4ae7554ebf,6453c95dbedf32e478ba18cc,2023-05-04_17h04.13.996,ga_syllabified_check,2022.2.5,Win32,8.177818485,,,,,,,,,,,,,,./stim/p04_syllable_1_faluduako_hit.wav,p04,faluduako,hit,fa-lu-dua-ko,fa-lu-dua-ko,fa-lu-du-a-ko, ,-0.363888889,-0.106111111,1,0,0,4.2493,text_option_1,,0,33,33,36,1
5d60061e45714d00019ad6a4,63f3cfca20052e4ae7554ebf,6453c95dbedf32e478ba18cc,2023-05-04_17h04.13.996,ga_syllabified_check,2022.2.5,Win32,8.177818485,,,,,,,,,,,,,,./stim/p03_syllable_1_ruyiola_hit.wav,p03,ruyiola,hit,ru-yio-la,ru-yio-la,ru-yi-o-la, ,-0.363888889,-0.106111111,1,0,0,0.9537,text_option_1,,0,34,34,32,1
5d60061e45714d00019ad6a4,63f3cfca20052e4ae7554ebf,6453c95dbedf32e478ba18cc,2023-05-04_17h04.13.996,ga_syllabified_check,2022.2.5,Win32,8.177818485,,,,,,,,,,,,,,./stim/p07_syllable_1_lakabuaisto_hit.wav,p07,lakabuaisto,hit,la-ka-buais-to,la-ka-buais-to,la-ka-bu-ais-to,la-ka-bua-is-to,-0.363888889,-0.106111111,1,0,0,1.1473,text_option_1,,0,35,35,143,1
5d60061e45714d00019ad6a4,63f3cfca20052e4ae7554ebf,6453c95dbedf32e478ba18cc,2023-05-04_17h04.13.996,ga_syllabified_check,2022.2.5,Win32,8.177818485,,,,,,,,,,,,,,./stim/p07_syllable_1_paluguato_hit.wav,p07,paluguato,hit,pa-lu-gua-to,pa-lu-gua-to,pa-lu-gu-a-to, ,-0.363888889,-0.106111111,1,0,0,1.9453,text_option_1,,0,36,36,163,1
5d60061e45714d00019ad6a4,63f3cfca20052e4ae7554ebf,6453c95dbedf32e478ba18cc,2023-05-04_17h04.13.996,ga_syllabified_check,2022.2.5,Win32,8.177818485,,,,,,,,,,,,,,./stim/p04_syllable_1_paluguato_hit.wav,p04,paluguato,hit,pa-lu-gua,pa-lu-gua-to,pa-lu-gu-a-to, ,-0.363888889,-0.106111111,1,0,0,2.4165,text_option_1,,0,37,37,61,1
5d60061e45714d00019ad6a4,63f3cfca20052e4ae7554ebf,6453c95dbedf32e478ba18cc,2023-05-04_17h04.13.996,ga_syllabified_check,2022.2.5,Win32,8.177818485,,,,,,,,,,,,,,./stim/p03_syllable_1_costonhialo_hit.wav,p03,costoñialo,hit,cos-to-nhia-lo,cos-to-ñia-lo,cos-to-ñi-a-lo, ,-0.363888889,-0.106111111,1,0,0,1.4626,text_option_1,,0,38,38,1,1
5d60061e45714d00019ad6a4,63f3cfca20052e4ae7554ebf,6453c95dbedf32e478ba18cc,2023-05-04_17h04.13.996,ga_syllabified_check,2022.2.5,Win32,8.177818485,,,,,,,,,,,,,,./stim/p04_syllable_1_lakakuaisto_hit.wav,p04,lakakuaisto,hit,la-ka-kuais-to,la-ka-kuais-to,la-ka-ku-ais-to,la-ka-kua-is-to,-0.363888889,-0.106111111,1,0,0,1.2937,text_option_1,,0,39,39,49,1
5d60061e45714d00019ad6a4,63f3cfca20052e4ae7554ebf,6453c95dbedf32e478ba18cc,2023-05-04_17h04.13.996,ga_syllabified_check,2022.2.5,Win32,8.177818485,,,,,,,,,,,,,,./stim/p03_syllable_1_lakagiaisto_hit.wav,p03,lakagiaisto,hit,la-ka-giais-to,la-ka-giais-to,la-ka-gi-ais-to,la-ka-gia-is-to,-0.363888889,-0.106111111,1,0,0,0.9632,text_option_1,,0,40,40,12,1
5d60061e45714d00019ad6a4,63f3cfca20052e4ae7554ebf,6453c95dbedf32e478ba18cc,2023-05-04_17h04.13.996,ga_syllabified_check,2022.2.5,Win32,8.177818485,,,,,,,,,,,,,,./stim/p04_syllable_1_lakabuaisto_hit.wav,p04,lakabuaisto,hit,la-ka-buais-to,la-ka-buais-to,la-ka-bu-ais-to,la-ka-bua-is-to,-0.363888889,-0.106111111,1,0,0,0.6581,text_option_1,,0,41,41,41,1
5d60061e45714d00019ad6a4,63f3cfca20052e4ae7554ebf,6453c95dbedf32e478ba18cc,2023-05-04_17h04.13.996,ga_syllabified_check,2022.2.5,Win32,8.177818485,,,,,,,,,,,,,,./stim/p03_syllable_1_lakapiaisto_hit.wav,p03,lakapiaisto,hit,la-ka-piais-to,la-ka-piais-to,la-ka-pi-ais-to,la-ka-pia-is-to,-0.363888889,-0.106111111,1,0,0,0.9753,text_option_1,,0,42,42,16,1
5d60061e45714d00019ad6a4,63f3cfca20052e4ae7554ebf,6453c95dbedf32e478ba18cc,2023-05-04_17h04.13.996,ga_syllabified_check,2022.2.5,Win32,8.177818485,,,,,,,,,,,,,,./stim/p08_syllable_1_nhiape_hit.wav,p08,ñiape,hit,ni-a-pe,ñia-pe,ñi-a-pe, ,-0.416111111,-0.106111111,1,0,0,3.2389,text_option_1,,0,43,43,193,1
5d60061e45714d00019ad6a4,63f3cfca20052e4ae7554ebf,6453c95dbedf32e478ba18cc,2023-05-04_17h04.13.996,ga_syllabified_check,2022.2.5,Win32,8.177818485,,,,,,,,,,,,,,./stim/p06_syllable_1_tuliafo_hit.wav,p06,tuliafo,hit,tu-li-a-fo,tu-lia-fo,tu-li-a-fo, ,0.383888889,-0.111111111,1,0,0,3.236,text_option_2,,0,44,44,135,1
5d60061e45714d00019ad6a4,63f3cfca20052e4ae7554ebf,6453c95dbedf32e478ba18cc,2023-05-04_17h04.13.996,ga_syllabified_check,2022.2.5,Win32,8.177818485,,,,,,,,,,,,,,./stim/p06_syllable_1_lakafuaisto_hit.wav,p06,lakafuaisto,hit,la-ka-fu-a-is,la-ka-fuais-to,la-ka-fu-ais-to,la-ka-fua-is-to,0.025555556,-0.097777778,1,0,0,7.5427,text_option_3,,0,45,45,113,1
5d60061e45714d00019ad6a4,63f3cfca20052e4ae7554ebf,6453c95dbedf32e478ba18cc,2023-05-04_17h04.13.996,ga_syllabified_check,2022.2.5,Win32,8.177818485,,,,,,,,,,,,,,./stim/p05_syllable_1_lakafiaisto_hit.wav,p05,lakafiaisto,hit,la-ka-fi-ais-to,la-ka-fiais-to,la-ka-fi-ais-to,la-ka-fia-is-to,-0.007222222,-0.110555556,1,0,0,3.4143,text_option_3,,0,46,46,78,1
5d60061e45714d00019ad6a4,63f3cfca20052e4ae7554ebf,6453c95dbedf32e478ba18cc,2023-05-04_17h04.13.996,ga_syllabified_check,2022.2.5,Win32,8.177818485,,,,,,,,,,,,,,./stim/p05_syllable_1_pachialo_hit.wav,p05,pachialo,hit,pan-chia-lo,pa-chia-lo,pa-chi-a-lo, ,-0.361666667,-0.105,1,0,0,0.7903,text_option_1,,0,47,47,92,1
5d60061e45714d00019ad6a4,63f3cfca20052e4ae7554ebf,6453c95dbedf32e478ba18cc,2023-05-04_17h04.13.996,ga_syllabified_check,2022.2.5,Win32,8.177818485,,,,,,,,,,,,,,./stim/p07_syllable_1_falutraigo_hit.wav,p07,falutraigo,hit,fa-lu-trai-go,fa-lu-trai-go,fa-lu-tra-i-go, ,-0.361666667,-0.105,1,0,0,1.3339,text_option_1,,0,48,48,140,1
5d60061e45714d00019ad6a4,63f3cfca20052e4ae7554ebf,6453c95dbedf32e478ba18cc,2023-05-04_17h04.13.996,ga_syllabified_check,2022.2.5,Win32,8.177818485,,,,,,,,,,,,,,./stim/p08_syllable_1_lakafuaisto_hit.wav,p08,lakafuaisto,hit,la-ka-fju-ais-to,la-ka-fuais-to,la-ka-fu-ais-to,la-ka-fua-is-to,-0.000555556,-0.301666667,1,0,0,5.9919,text_option_other,la-ka-fiais-to,0,49,49,181,1
5d60061e45714d00019ad6a4,63f3cfca20052e4ae7554ebf,6453c95dbedf32e478ba18cc,2023-05-04_17h04.13.996,ga_syllabified_check,2022.2.5,Win32,8.177818485,,,,,,,,,,,,,,./stim/p08_syllable_1_payielo_hit.wav,p08,payielo,hit,pa-yie-lo,pa-yie-lo,pa-yi-e-lo, ,-0.382777778,-0.108333333,1,0,0,1.2966,text_option_1,,0,50,50,200,1
5d60061e45714d00019ad6a4,63f3cfca20052e4ae7554ebf,6453c95dbedf32e478ba18cc,2023-05-04_17h04.13.996,ga_syllabified_check,2022.2.5,Win32,8.177818485,,,,,,,,,,,,,,./stim/p05_syllable_1_palutrauco_hit.wav,p05,palutrauco,hit,pa-lu-trai-co,pa-lu-trau-co,pa-lu-tra-u-co, ,0.042777778,-0.313888889,1,0,0,2.2905,text_option_other,pa-lu-trai-co,0,51,51,97,1
5d60061e45714d00019ad6a4,63f3cfca20052e4ae7554ebf,6453c95dbedf32e478ba18cc,2023-05-04_17h04.13.996,ga_syllabified_check,2022.2.5,Win32,8.177818485,,,,,,,,,,,,,,./stim/p05_syllable_1_palufauro_hit.wav,p05,palufauro,hit,pa-lu-fau-ro,pa-lu-fau-ro,pa-lu-fa-u-ro, ,-0.343888889,-0.095555556,1,0,0,1.4428,text_option_1,,0,52,52,93,1
5d60061e45714d00019ad6a4,63f3cfca20052e4ae7554ebf,6453c95dbedf32e478ba18cc,2023-05-04_17h04.13.996,ga_syllabified_check,2022.2.5,Win32,8.177818485,,,,,,,,,,,,,,./stim/p03_syllable_1_payielo_hit.wav,p03,payielo,hit,pa-yie-lo,pa-yie-lo,pa-yi-e-lo, ,-0.369444444,-0.095555556,1,0,0,1.1104,text_option_1,,0,53,53,30,1
5d60061e45714d00019ad6a4,63f3cfca20052e4ae7554ebf,6453c95dbedf32e478ba18cc,2023-05-04_17h04.13.996,ga_syllabified_check,2022.2.5,Win32,8.177818485,,,,,,,,,,,,,,./stim/p04_syllable_1_lakagiaisto_hit.wav,p04,lakagiaisto,hit,la-ka-giais-to,la-ka-giais-to,la-ka-gi-ais-to,la-ka-gia-is-to,-0.346111111,-0.093888889,1,0,0,2.2998,text_option_1,,0,54,54,46,1
5d60061e45714d00019ad6a4,63f3cfca20052e4ae7554ebf,6453c95dbedf32e478ba18cc,2023-05-04_17h04.13.996,ga_syllabified_check,2022.2.5,Win32,8.177818485,,,,,,,,,,,,,,./stim/p06_syllable_1_lakadiaisto_hit.wav,p06,lakadiaisto,hit,la-ka-dia-is-to,la-ka-diais-to,la-ka-di-ais-to,la-ka-dia-is-to,-0.359444444,-0.102222222,1,0,0,259.6308,text_option_1,,0,55,55,110,1
5d60061e45714d00019ad6a4,63f3cfca20052e4ae7554ebf,6453c95dbedf32e478ba18cc,2023-05-04_17h04.13.996,ga_syllabified_check,2022.2.5,Win32,8.177818485,,,,,,,,,,,,,,./stim/p06_syllable_1_paluguato_hit.wav,p06,paluguato,hit,pa-lu-gua-to,pa-lu-gua-to,pa-lu-gu-a-to, ,0.019444444,-0.311111111,1,0,0,4.5839,text_option_other,pa-lu-gua,0,56,56,129,1
5d60061e45714d00019ad6a4,63f3cfca20052e4ae7554ebf,6453c95dbedf32e478ba18cc,2023-05-04_17h04.13.996,ga_syllabified_check,2022.2.5,Win32,8.177818485,,,,,,,,,,,,,,./stim/p04_syllable_1_lakapuaisto_hit.wav,p04,lakapuaisto,hit,la-ka-puais-to,la-ka-puais-to,la-ka-pu-ais-to,la-ka-pua-is-to,-0.337222222,-0.092222222,1,0,0,0.9673,text_option_1,,0,57,57,51,1
5d60061e45714d00019ad6a4,63f3cfca20052e4ae7554ebf,6453c95dbedf32e478ba18cc,2023-05-04_17h04.13.996,ga_syllabified_check,2022.2.5,Win32,8.177818485,,,,,,,,,,,,,,./stim/p08_syllable_1_lakakuaisto_hit.wav,p08,lakakuaisto,hit,la-ka-ku-ais-to,la-ka-kuais-to,la-ka-ku-ais-to,la-ka-kua-is-to,0.431666667,-0.105,1,0,0,5.0825,text_option_2,,0,58,58,185,1
5d60061e45714d00019ad6a4,63f3cfca20052e4ae7554ebf,6453c95dbedf32e478ba18cc,2023-05-04_17h04.13.996,ga_syllabified_check,2022.2.5,Win32,8.177818485,,,,,,,,,,,,,,./stim/p04_syllable_1_costonhialo_hit.wav,p04,costoñialo,hit,cos-to-nhia-lo,cos-to-ñia-lo,cos-to-ñi-a-lo, ,-0.464444444,-0.093333333,1,0,0,1.313,text_option_1,,0,59,59,35,1
5d60061e45714d00019ad6a4,63f3cfca20052e4ae7554ebf,6453c95dbedf32e478ba18cc,2023-05-04_17h04.13.996,ga_syllabified_check,2022.2.5,Win32,8.177818485,,,,,,,,,,,,,,./stim/p08_syllable_1_lakaguaisto_hit.wav,p08,lakaguaisto,hit,la-ka-gu-ais-to,la-ka-guais-to,la-ka-gu-ais-to,la-ka-gua-is-to,0.402222222,-0.095555556,1,0,0,2.4408,text_option_2,,0,60,60,183,1
5d60061e45714d00019ad6a4,63f3cfca20052e4ae7554ebf,6453c95dbedf32e478ba18cc,2023-05-04_17h04.13.996,ga_syllabified_check,2022.2.5,Win32,8.177818485,,,,,,,,,,,,,,./stim/p05_syllable_1_lakabiaisto_hit.wav,p05,lakabiaisto,hit,la-ka-bi-ais-to,la-ka-biais-to,la-ka-bi-ais-to,la-ka-bia-is-to,0.402222222,-0.095555556,1,0,0,1.1421,text_option_2,,0,61,61,74,1
5d60061e45714d00019ad6a4,63f3cfca20052e4ae7554ebf,6453c95dbedf32e478ba18cc,2023-05-04_17h04.13.996,ga_syllabified_check,2022.2.5,Win32,8.177818485,,,,,,,,,,,,,,./stim/p06_syllable_1_lakabiaisto_hit.wav,p06,lakabiaisto,hit,la-ka-bia-is-to,la-ka-biais-to,la-ka-bi-ais-to,la-ka-bia-is-to,0.056666667,-0.097777778,1,0,0,3.2934,text_option_3,,0,62,62,108,1
5d60061e45714d00019ad6a4,63f3cfca20052e4ae7554ebf,6453c95dbedf32e478ba18cc,2023-05-04_17h04.13.996,ga_syllabified_check,2022.2.5,Win32,8.177818485,,,,,,,,,,,,,,./stim/p05_syllable_1_lakadiaisto_hit.wav,p05,lakadiaisto,hit,la-ka-di-ais-to,la-ka-diais-to,la-ka-di-ais-to,la-ka-dia-is-to,-0.332777778,-0.103888889,1,0,0,1.8151,text_option_1,,0,63,63,76,1
5d60061e45714d00019ad6a4,63f3cfca20052e4ae7554ebf,6453c95dbedf32e478ba18cc,2023-05-04_17h04.13.996,ga_syllabified_check,2022.2.5,Win32,8.177818485,,,,,,,,,,,,,,./stim/p08_syllable_1_pachialo_hit.wav,p08,pachialo,hit,pa-chi-ja-lo,pa-chia-lo,pa-chi-a-lo, ,0.421666667,-0.111111111,1,0,0,1.9372,text_option_2,,0,64,64,194,1
5d60061e45714d00019ad6a4,63f3cfca20052e4ae7554ebf,6453c95dbedf32e478ba18cc,2023-05-04_17h04.13.996,ga_syllabified_check,2022.2.5,Win32,8.177818485,,,,,,,,,,,,,,./stim/p07_syllable_1_lakafiaisto_hit.wav,p07,lakafiaisto,hit,la-ka-fiais-to,la-ka-fiais-to,la-ka-fi-ais-to,la-ka-fia-is-to,-0.346111111,-0.096666667,1,0,0,1.4717,text_option_1,,0,65,65,146,1
5d60061e45714d00019ad6a4,63f3cfca20052e4ae7554ebf,6453c95dbedf32e478ba18cc,2023-05-04_17h04.13.996,ga_syllabified_check,2022.2.5,Win32,8.177818485,,,,,,,,,,,,,,./stim/p06_syllable_1_lakakuaisto_hit.wav,p06,lakakuaisto,hit,la-ka-ku-a-is,la-ka-kuais-to,la-ka-ku-ais-to,la-ka-kua-is-to,0.381666667,-0.101666667,1,0,0,5.4061,text_option_2,,0,66,66,117,1
5d60061e45714d00019ad6a4,63f3cfca20052e4ae7554ebf,6453c95dbedf32e478ba18cc,2023-05-04_17h04.13.996,ga_syllabified_check,2022.2.5,Win32,8.177818485,,,,,,,,,,,,,,./stim/p06_syllable_1_ruyiola_hit.wav,p06,ruyiola,hit,ru-yi-o-la,ru-yio-la,ru-yi-o-la, ,0.413888889,-0.102777778,1,0,0,1.1516,text_option_2,,0,67,67,134,1
5d60061e45714d00019ad6a4,63f3cfca20052e4ae7554ebf,6453c95dbedf32e478ba18cc,2023-05-04_17h04.13.996,ga_syllabified_check,2022.2.5,Win32,8.177818485,,,,,,,,,,,,,,./stim/p08_syllable_1_lliape_hit.wav,p08,lliape,hit,li-a-pe,llia-pe,lli-a-pe, ,0.415555556,-0.087222222,1,0,0,3.9632,text_option_2,,0,68,68,190,1
5d60061e45714d00019ad6a4,63f3cfca20052e4ae7554ebf,6453c95dbedf32e478ba18cc,2023-05-04_17h04.13.996,ga_syllabified_check,2022.2.5,Win32,8.177818485,,,,,,,,,,,,,,./stim/p03_syllable_1_lakafuaisto_hit.wav,p03,lakafuaisto,hit,la-ka-fuais-to,la-ka-fuais-to,la-ka-fu-ais-to,la-ka-fua-is-to,-0.403888889,-0.091666667,1,0,0,1.1362,text_option_1,,0,69,69,11,1
5d60061e45714d00019ad6a4,63f3cfca20052e4ae7554ebf,6453c95dbedf32e478ba18cc,2023-05-04_17h04.13.996,ga_syllabified_check,2022.2.5,Win32,8.177818485,,,,,,,,,,,,,,./stim/p04_syllable_1_manhiala_hit.wav,p04,mañiala,hit,ma-nhia-la,ma-ñia-la,ma-ñi-a-la, ,-0.386111111,-0.108888889,1,0,0,1.1212,text_option_1,,0,70,70,55,1
5d60061e45714d00019ad6a4,63f3cfca20052e4ae7554ebf,6453c95dbedf32e478ba18cc,2023-05-04_17h04.13.996,ga_syllabified_check,2022.2.5,Win32,8.177818485,,,,,,,,,,,,,,./stim/p08_syllable_1_falutraigo_hit.wav,p08,falutraigo,hit,fa-lu-trai-go,fa-lu-trai-go,fa-lu-tra-i-go, ,-0.386111111,-0.108888889,1,0,0,2.085,text_option_1,,0,71,71,174,1
5d60061e45714d00019ad6a4,63f3cfca20052e4ae7554ebf,6453c95dbedf32e478ba18cc,2023-05-04_17h04.13.996,ga_syllabified_check,2022.2.5,Win32,8.177818485,,,,,,,,,,,,,,./stim/p03_syllable_1_tuliafo_hit.wav,p03,tuliafo,hit,tu-lia-fo,tu-lia-fo,tu-li-a-fo, ,-0.386111111,-0.108888889,1,0,0,2.8987,text_option_1,,0,72,72,33,1
5d60061e45714d00019ad6a4,63f3cfca20052e4ae7554ebf,6453c95dbedf32e478ba18cc,2023-05-04_17h04.13.996,ga_syllabified_check,2022.2.5,Win32,8.177818485,,,,,,,,,,,,,,./stim/p04_syllable_1_mebochiana_hit.wav,p04,mebochiana,hit,me-bo-chia-na,me-bo-chia-na,me-bo-chi-a-na, ,-0.405,-0.105,1,0,0,2.0061,text_option_1,,0,73,73,56,1
5d60061e45714d00019ad6a4,63f3cfca20052e4ae7554ebf,6453c95dbedf32e478ba18cc,2023-05-04_17h04.13.996,ga_syllabified_check,2022.2.5,Win32,8.177818485,,,,,,,,,,,,,,./stim/p03_syllable_1_lakabiaisto_hit.wav,p03,lakabiaisto,hit,la-ka-biais-to,la-ka-biais-to,la-ka-bi-ais-to,la-ka-bia-is-to,-0.370555556,-0.097222222,1,0,0,1.501,text_option_1,,0,74,74,6,1
5d60061e45714d00019ad6a4,63f3cfca20052e4ae7554ebf,6453c95dbedf32e478ba18cc,2023-05-04_17h04.13.996,ga_syllabified_check,2022.2.5,Win32,8.177818485,,,,,,,,,,,,,,./stim/p06_syllable_1_palufauto_hit.wav,p06,palufauto,hit,pa-lu-fau-to,pa-lu-fau-to,pa-lu-fa-u-to, ,-0.351666667,-0.102777778,1,0,0,3.4211,text_option_1,,0,75,75,128,1
5d60061e45714d00019ad6a4,63f3cfca20052e4ae7554ebf,6453c95dbedf32e478ba18cc,2023-05-04_17h04.13.996,ga_syllabified_check,2022.2.5,Win32,8.177818485,,,,,,,,,,,,,,./stim/p04_syllable_1_lakabiaisto_hit.wav,p04,lakabiaisto,hit,la-ka-biais-to,la-ka-biais-to,la-ka-bi-ais-to,la-ka-bia-is-to,-0.351666667,-0.102777778,1,0,0,0.6309,text_option_1,,0,76,76,40,1
5d60061e45714d00019ad6a4,63f3cfca20052e4ae7554ebf,6453c95dbedf32e478ba18cc,2023-05-04_17h04.13.996,ga_syllabified_check,2022.2.5,Win32,8.177818485,,,,,,,,,,,,,,./stim/p08_syllable_1_lakafiaisto_hit.wav,p08,lakafiaisto,hit,la-ka-fi-as-to,la-ka-fiais-to,la-ka-fi-ais-to,la-ka-fia-is-to,-0.343333333,-0.101666667,1,0,0,4.7419,text_option_1,,0,77,77,180,1
5d60061e45714d00019ad6a4,63f3cfca20052e4ae7554ebf,6453c95dbedf32e478ba18cc,2023-05-04_17h04.13.996,ga_syllabified_check,2022.2.5,Win32,8.177818485,,,,,,,,,,,,,,./stim/p05_syllable_1_chiaba_hit.wav,p05,chiaba,hit,chia-ba,chia-ba,chi-a-ba, ,0.043333333,-0.300555556,1,0,0,8.4485,text_option_other,chai-ba,0,78,78,68,1
5d60061e45714d00019ad6a4,63f3cfca20052e4ae7554ebf,6453c95dbedf32e478ba18cc,2023-05-04_17h04.13.996,ga_syllabified_check,2022.2.5,Win32,8.177818485,,,,,,,,,,,,,,./stim/p06_syllable_1_lakagiaisto_hit.wav,p06,lakagiaisto,hit,la-ka-gia-is-to,la-ka-giais-to,la-ka-gi-ais-to,la-ka-gia-is-to,0.005,-0.097777778,1,0,0,4.2644,text_option_3,,0,79,79,114,1
5d60061e45714d00019ad6a4,63f3cfca20052e4ae7554ebf,6453c95dbedf32e478ba18cc,2023-05-04_17h04.13.996,ga_syllabified_check,2022.2.5,Win32,8.177818485,,,,,,,,,,,,,,./stim/p05_syllable_1_lakapuaisto_hit.wav,p05,lakapuaisto,hit,la-ka-pais-to,la-ka-puais-to,la-ka-pu-ais-to,la-ka-pua-is-to,0.037777778,-0.284444444,1,0,0,3.9303,text_option_other,la-ka-pais-to,0,80,80,85,1
5d60061e45714d00019ad6a4,63f3cfca20052e4ae7554ebf,6453c95dbedf32e478ba18cc,2023-05-04_17h04.13.996,ga_syllabified_check,2022.2.5,Win32,8.177818485,,,,,,,,,,,,,,./stim/p08_syllable_1_palumaisto_hit.wav,p08,palumaisto,hit,pa-lu-mais-to,pa-lu-mais-to,pa-lu-ma-is-to, ,-0.378333333,-0.111111111,1,0,0,1.9839,text_option_1,,0,81,81,198,1
5d60061e45714d00019ad6a4,63f3cfca20052e4ae7554ebf,6453c95dbedf32e478ba18cc,2023-05-04_17h04.13.996,ga_syllabified_check,2022.2.5,Win32,8.177818485,,,,,,,,,,,,,,./stim/p05_syllable_1_lakatuaisto_hit.wav,p05,lakatuaisto,hit,la-ka-tais-to,la-ka-tuais-to,la-ka-tu-ais-to,la-ka-tua-is-to,-0.012777778,-0.299444444,1,0,0,1.9687,text_option_other,la-ka-tais-to,0,82,82,87,1
5d60061e45714d00019ad6a4,63f3cfca20052e4ae7554ebf,6453c95dbedf32e478ba18cc,2023-05-04_17h04.13.996,ga_syllabified_check,2022.2.5,Win32,8.177818485,,,,,,,,,,,,,,./stim/p08_syllable_1_lakapuaisto_hit.wav,p08,lakapuaisto,hit,la-ka-pu-as-to,la-ka-puais-to,la-ka-pu-ais-to,la-ka-pua-is-to,0.007222222,-0.295,1,0,0,5.9417,text_option_other,la-ka-puas-to,0,83,83,187,1
5d60061e45714d00019ad6a4,63f3cfca20052e4ae7554ebf,6453c95dbedf32e478ba18cc,2023-05-04_17h04.13.996,ga_syllabified_check,2022.2.5,Win32,8.177818485,,,,,,,,,,,,,,./stim/p07_syllable_1_palufauto_hit.wav,p07,palufauto,hit,pa-lu-fau-to,pa-lu-fau-to,pa-lu-fa-u-to, ,-0.416666667,-0.098333333,1,0,0,1.1652,text_option_1,,0,84,84,162,1
5d60061e45714d00019ad6a4,63f3cfca20052e4ae7554ebf,6453c95dbedf32e478ba18cc,2023-05-04_17h04.13.996,ga_syllabified_check,2022.2.5,Win32,8.177818485,,,,,,,,,,,,,,./stim/p05_syllable_1_palufauto_hit.wav,p05,palufauto,hit,pa-lu-fau-to,pa-lu-fau-to,pa-lu-fa-u-to, ,-0.375555556,-0.098333333,1,0,0,0.8247,text_option_1,,0,85,85,94,1
5d60061e45714d00019ad6a4,63f3cfca20052e4ae7554ebf,6453c95dbedf32e478ba18cc,2023-05-04_17h04.13.996,ga_syllabified_check,2022.2.5,Win32,8.177818485,,,,,,,,,,,,,,./stim/p08_syllable_1_lakabiaisto_hit.wav,p08,lakabiaisto,hit,la-ka-bi-as-to,la-ka-biais-to,la-ka-bi-ais-to,la-ka-bia-is-to,0.383888889,-0.095,1,0,0,2.7607,text_option_2,,0,86,86,176,1
5d60061e45714d00019ad6a4,63f3cfca20052e4ae7554ebf,6453c95dbedf32e478ba18cc,2023-05-04_17h04.13.996,ga_syllabified_check,2022.2.5,Win32,8.177818485,,,,,,,,,,,,,,./stim/p03_syllable_1_palumaisto_hit.wav,p03,palumaisto,hit,pa-lu-mais-to,pa-lu-mais-to,pa-lu-ma-is-to, ,-0.357222222,-0.112222222,1,0,0,2.8961,text_option_1,,0,87,87,28,1
5d60061e45714d00019ad6a4,63f3cfca20052e4ae7554ebf,6453c95dbedf32e478ba18cc,2023-05-04_17h04.13.996,ga_syllabified_check,2022.2.5,Win32,8.177818485,,,,,,,,,,,,,,./stim/p05_syllable_1_lakakiaisto_hit.wav,p05,lakakiaisto,hit,la-ka-ki-ais-to,la-ka-kiais-to,la-ka-ki-ais-to,la-ka-kia-is-to,-0.357222222,-0.112222222,1,0,0,1.282,text_option_1,,0,88,88,82,1
5d60061e45714d00019ad6a4,63f3cfca20052e4ae7554ebf,6453c95dbedf32e478ba18cc,2023-05-04_17h04.13.996,ga_syllabified_check,2022.2.5,Win32,8.177818485,,,,,,,,,,,,,,./stim/p03_syllable_1_palutrauco_hit.wav,p03,palutrauco,hit,pa-lu-trau-co,pa-lu-trau-co,pa-lu-tra-u-co, ,-0.338888889,-0.101666667,1,0,0,1.4555,text_option_1,,0,89,89,29,1
5d60061e45714d00019ad6a4,63f3cfca20052e4ae7554ebf,6453c95dbedf32e478ba18cc,2023-05-04_17h04.13.996,ga_syllabified_check,2022.2.5,Win32,8.177818485,,,,,,,,,,,,,,./stim/p06_syllable_1_lliape_hit.wav,p06,lliape,hit,lli-lla-pe,llia-pe,lli-a-pe, ,0.423888889,-0.090555556,1,0,0,1.3332,text_option_2,,0,90,90,122,1
5d60061e45714d00019ad6a4,63f3cfca20052e4ae7554ebf,6453c95dbedf32e478ba18cc,2023-05-04_17h04.13.996,ga_syllabified_check,2022.2.5,Win32,8.177818485,,,,,,,,,,,,,,./stim/p03_syllable_1_palufauto_hit.wav,p03,palufauto,hit,pa-lu-fau,pa-lu-fau-to,pa-lu-fa-u-to, ,-0.428888889,-0.097222222,1,0,0,1.331,text_option_1,,0,91,91,26,1
5d60061e45714d00019ad6a4,63f3cfca20052e4ae7554ebf,6453c95dbedf32e478ba18cc,2023-05-04_17h04.13.996,ga_syllabified_check,2022.2.5,Win32,8.177818485,,,,,,,,,,,,,,./stim/p05_syllable_1_lakakuaisto_hit.wav,p05,lakakuaisto,hit,la-ka-kais-to,la-ka-kuais-to,la-ka-ku-ais-to,la-ka-kua-is-to,-0.031111111,-0.286111111,1,0,0,1.6657,text_option_other,la-ka-kais-to,0,92,92,83,1
5d60061e45714d00019ad6a4,63f3cfca20052e4ae7554ebf,6453c95dbedf32e478ba18cc,2023-05-04_17h04.13.996,ga_syllabified_check,2022.2.5,Win32,8.177818485,,,,,,,,,,,,,,./stim/p07_syllable_1_manhiala_hit.wav,p07,mañiala,hit,ma-nhia-la,ma-ñia-la,ma-ñi-a-la, ,-0.358333333,-0.111666667,1,0,0,1.4995,text_option_1,,0,93,93,157,1
5d60061e45714d00019ad6a4,63f3cfca20052e4ae7554ebf,6453c95dbedf32e478ba18cc,2023-05-04_17h04.13.996,ga_syllabified_check,2022.2.5,Win32,8.177818485,,,,,,,,,,,,,,./stim/p04_syllable_1_lakaduaisto_hit.wav,p04,lakaduaisto,hit,la-ka-duais-to,la-ka-duais-to,la-ka-du-ais-to,la-ka-dua-is-to,-0.401111111,-0.113333333,1,0,0,0.9981,text_option_1,,0,94,94,43,1
5d60061e45714d00019ad6a4,63f3cfca20052e4ae7554ebf,6453c95dbedf32e478ba18cc,2023-05-04_17h04.13.996,ga_syllabified_check,2022.2.5,Win32,8.177818485,,,,,,,,,,,,,,./stim/p07_syllable_1_lakagiaisto_hit.wav,p07,lakagiaisto,hit,la-ka-gais-to,la-ka-giais-to,la-ka-gi-ais-to,la-ka-gia-is-to,0.030555556,-0.301111111,1,0,0,3.6585,text_option_other,la-ca-gais-to,0,95,95,148,1
5d60061e45714d00019ad6a4,63f3cfca20052e4ae7554ebf,6453c95dbedf32e478ba18cc,2023-05-04_17h04.13.996,ga_syllabified_check,2022.2.5,Win32,8.177818485,,,,,,,,,,,,,,./stim/p05_syllable_1_manhiala_hit.wav,p05,mañiala,hit,ma-nhia-la,ma-ñia-la,ma-ñi-a-la, ,-0.363888889,-0.108888889,1,0,0,10.4386,text_option_1,,0,96,96,89,1
5d60061e45714d00019ad6a4,63f3cfca20052e4ae7554ebf,6453c95dbedf32e478ba18cc,2023-05-04_17h04.13.996,ga_syllabified_check,2022.2.5,Win32,8.177818485,,,,,,,,,,,,,,./stim/p08_syllable_1_lakaduaisto_hit.wav,p08,lakaduaisto,hit,la-ka-du-ais-to,la-ka-duais-to,la-ka-du-ais-to,la-ka-dua-is-to,0.338888889,-0.113333333,1,0,0,3.2524,text_option_2,,0,97,97,179,1
5d60061e45714d00019ad6a4,63f3cfca20052e4ae7554ebf,6453c95dbedf32e478ba18cc,2023-05-04_17h04.13.996,ga_syllabified_check,2022.2.5,Win32,8.177818485,,,,,,,,,,,,,,./stim/p06_syllable_1_falutraigo_hit.wav,p06,falutraigo,hit,fa-lu-tra-i-go,fa-lu-trai-go,fa-lu-tra-i-go, ,0.437777778,-0.098333333,1,0,0,3.8904,text_option_2,,0,98,98,106,1
5d60061e45714d00019ad6a4,63f3cfca20052e4ae7554ebf,6453c95dbedf32e478ba18cc,2023-05-04_17h04.13.996,ga_syllabified_check,2022.2.5,Win32,8.177818485,,,,,,,,,,,,,,./stim/p04_syllable_1_palumaisto_hit.wav,p04,palumaisto,hit,pa-lu-mais-to,pa-lu-mais-to,pa-lu-ma-is-to, ,-0.345,-0.111111111,1,0,0,0.7842,text_option_1,,0,99,99,62,1
5d60061e45714d00019ad6a4,63f3cfca20052e4ae7554ebf,6453c95dbedf32e478ba18cc,2023-05-04_17h04.13.996,ga_syllabified_check,2022.2.5,Win32,8.177818485,,,,,,,,,,,,,,./stim/p04_syllable_1_ruyiola_hit.wav,p04,ruyiola,hit,ru-yio-la,ru-yio-la,ru-yi-o-la, ,-0.371111111,-0.107777778,1,0,0,0.4701,text_option_1,,0,100,100,66,1
5d60061e45714d00019ad6a4,63f3cfca20052e4ae7554ebf,6453c95dbedf32e478ba18cc,2023-05-04_17h04.13.996,ga_syllabified_check,2022.2.5,Win32,8.177818485,,,,,,,,,,,,,,./stim/p03_syllable_1_lakaduaisto_hit.wav,p03,lakaduaisto,hit,la-ka-duais-to,la-ka-duais-to,la-ka-du-ais-to,la-ka-dua-is-to,-0.371111111,-0.107777778,1,0,0,2.1275,text_option_1,,0,101,101,9,1
5d60061e45714d00019ad6a4,63f3cfca20052e4ae7554ebf,6453c95dbedf32e478ba18cc,2023-05-04_17h04.13.996,ga_syllabified_check,2022.2.5,Win32,8.177818485,,,,,,,,,,,,,,./stim/p08_syllable_1_falufaisto_hit.wav,p08,falufaisto,hit,fa-lu-fais-to,fa-lu-fais-to,fa-lu-fa-is-to, ,-0.371111111,-0.107777778,1,0,0,1.9982,text_option_1,,0,102,102,173,1
5d60061e45714d00019ad6a4,63f3cfca20052e4ae7554ebf,6453c95dbedf32e478ba18cc,2023-05-04_17h04.13.996,ga_syllabified_check,2022.2.5,Win32,8.177818485,,,,,,,,,,,,,,./stim/p07_syllable_1_pachialo_hit.wav,p07,pachialo,hit,pa-cha-lo,pa-chia-lo,pa-chi-a-lo, ,-0.371111111,-0.107777778,1,0,0,1.0104,text_option_1,,0,103,103,160,1
5d60061e45714d00019ad6a4,63f3cfca20052e4ae7554ebf,6453c95dbedf32e478ba18cc,2023-05-04_17h04.13.996,ga_syllabified_check,2022.2.5,Win32,8.177818485,,,,,,,,,,,,,,./stim/p07_syllable_1_chiaba_hit.wav,p07,chiaba,hit,chia-ba,chia-ba,chi-a-ba, ,-0.371111111,-0.107777778,1,0,0,1.0052,text_option_1,,0,104,104,136,1
5d60061e45714d00019ad6a4,63f3cfca20052e4ae7554ebf,6453c95dbedf32e478ba18cc,2023-05-04_17h04.13.996,ga_syllabified_check,2022.2.5,Win32,8.177818485,,,,,,,,,,,,,,./stim/p06_syllable_1_lakabuaisto_hit.wav,p06,lakabuaisto,hit,la-ka-bu-a-is,la-ka-buais-to,la-ka-bu-ais-to,la-ka-bua-is-to,0.378888889,-0.097777778,1,0,0,3.7736,text_option_2,,0,105,105,109,1
5d60061e45714d00019ad6a4,63f3cfca20052e4ae7554ebf,6453c95dbedf32e478ba18cc,2023-05-04_17h04.13.996,ga_syllabified_check,2022.2.5,Win32,8.177818485,,,,,,,,,,,,,,./stim/p08_syllable_1_rausto_hit.wav,p08,rausto,hit,raus-to,raus-to,ra-us-to, ,-0.398888889,-0.117777778,1,0,0,0.8303,text_option_1,,0,106,106,201,1
5d60061e45714d00019ad6a4,63f3cfca20052e4ae7554ebf,6453c95dbedf32e478ba18cc,2023-05-04_17h04.13.996,ga_syllabified_check,2022.2.5,Win32,8.177818485,,,,,,,,,,,,,,./stim/p05_syllable_1_tuliafo_hit.wav,p05,tuliafo,hit,tu-lai-fo,tu-lia-fo,tu-li-a-fo, ,-0.048888889,-0.289444444,1,0,0,1.9823,text_option_other,tu-lai-fo,0,107,107,101,1
5d60061e45714d00019ad6a4,63f3cfca20052e4ae7554ebf,6453c95dbedf32e478ba18cc,2023-05-04_17h04.13.996,ga_syllabified_check,2022.2.5,Win32,8.177818485,,,,,,,,,,,,,,./stim/p05_syllable_1_nhiape_hit.wav,p05,ñiape,hit,nhia-pe,ñia-pe,ñi-a-pe, ,-0.437777778,-0.096111111,1,0,0,14.3256,text_option_1,,0,108,108,91,1
5d60061e45714d00019ad6a4,63f3cfca20052e4ae7554ebf,6453c95dbedf32e478ba18cc,2023-05-04_17h04.13.996,ga_syllabified_check,2022.2.5,Win32,8.177818485,,,,,,,,,,,,,,./stim/p06_syllable_1_payielo_hit.wav,p06,payielo,hit,pa-yi-e-lo,pa-yie-lo,pa-yi-e-lo, ,0.405,-0.103333333,1,0,0,1.3067,text_option_2,,0,109,109,132,1
5d60061e45714d00019ad6a4,63f3cfca20052e4ae7554ebf,6453c95dbedf32e478ba18cc,2023-05-04_17h04.13.996,ga_syllabified_check,2022.2.5,Win32,8.177818485,,,,,,,,,,,,,,./stim/p06_syllable_1_flauro_hit.wav,p06,flauro,hit,fla-u-ro,flau-ro,fla-u-ro, ,0.402777778,-0.102222222,1,0,0,1.7787,text_option_2,,0,110,110,107,1
5d60061e45714d00019ad6a4,63f3cfca20052e4ae7554ebf,6453c95dbedf32e478ba18cc,2023-05-04_17h04.13.996,ga_syllabified_check,2022.2.5,Win32,8.177818485,,,,,,,,,,,,,,./stim/p03_syllable_1_paluguato_hit.wav,p03,paluguato,hit,pa-lu-gua,pa-lu-gua-to,pa-lu-gu-a-to, ,-0.34,-0.113333333,1,0,0,1.1109,text_option_1,,0,111,111,27,1
5d60061e45714d00019ad6a4,63f3cfca20052e4ae7554ebf,6453c95dbedf32e478ba18cc,2023-05-04_17h04.13.996,ga_syllabified_check,2022.2.5,Win32,8.177818485,,,,,,,,,,,,,,./stim/p07_syllable_1_falufaisto_hit.wav,p07,falufaisto,hit,fa-lu-fais-to,fa-lu-fais-to,fa-lu-fa-is-to, ,-0.34,-0.113333333,1,0,0,1.4518,text_option_1,,0,112,112,139,1
5d60061e45714d00019ad6a4,63f3cfca20052e4ae7554ebf,6453c95dbedf32e478ba18cc,2023-05-04_17h04.13.996,ga_syllabified_check,2022.2.5,Win32,8.177818485,,,,,,,,,,,,,,./stim/p07_syllable_1_lakaguaisto_hit.wav,p07,lakaguaisto,hit,la-ka-guais-to,la-ka-guais-to,la-ka-gu-ais-to,la-ka-gua-is-to,-0.34,-0.113333333,1,0,0,1.1456,text_option_1,,0,113,113,149,1
5d60061e45714d00019ad6a4,63f3cfca20052e4ae7554ebf,6453c95dbedf32e478ba18cc,2023-05-04_17h04.13.996,ga_syllabified_check,2022.2.5,Win32,8.177818485,,,,,,,,,,,,,,./stim/p04_syllable_1_tuliafo_hit.wav,p04,tuliafo,hit,tu-lia-fo,tu-lia-fo,tu-li-a-fo, ,-0.386666667,-0.102777778,1,0,0,0.3725,text_option_1,,0,114,114,67,1
5d60061e45714d00019ad6a4,63f3cfca20052e4ae7554ebf,6453c95dbedf32e478ba18cc,2023-05-04_17h04.13.996,ga_syllabified_check,2022.2.5,Win32,8.177818485,,,,,,,,,,,,,,./stim/p05_syllable_1_lakaduaisto_hit.wav,p05,lakaduaisto,hit,la-ka-dais-to,la-ka-duais-to,la-ka-du-ais-to,la-ka-dua-is-to,-0.010555556,-0.306666667,1,0,0,1.336,text_option_other,la-ka-dais-to,0,115,115,77,1
5d60061e45714d00019ad6a4,63f3cfca20052e4ae7554ebf,6453c95dbedf32e478ba18cc,2023-05-04_17h04.13.996,ga_syllabified_check,2022.2.5,Win32,8.177818485,,,,,,,,,,,,,,./stim/p04_syllable_1_lakadiaisto_hit.wav,p04,lakadiaisto,hit,la-ka-dias-to,la-ka-diais-to,la-ka-di-ais-to,la-ka-dia-is-to,-0.327222222,-0.115,1,0,0,1.1398,text_option_1,,0,116,116,42,1
5d60061e45714d00019ad6a4,63f3cfca20052e4ae7554ebf,6453c95dbedf32e478ba18cc,2023-05-04_17h04.13.996,ga_syllabified_check,2022.2.5,Win32,8.177818485,,,,,,,,,,,,,,./stim/p07_syllable_1_lakatiaisto_hit.wav,p07,lakatiaisto,hit,la-ka-tiai-sto,la-ka-tiais-to,la-ka-ti-ais-to,la-ka-tia-is-to,-0.347222222,-0.111111111,1,0,0,1.4776,text_option_1,,0,117,117,154,1
5d60061e45714d00019ad6a4,63f3cfca20052e4ae7554ebf,6453c95dbedf32e478ba18cc,2023-05-04_17h04.13.996,ga_syllabified_check,2022.2.5,Win32,8.177818485,,,,,,,,,,,,,,./stim/p06_syllable_1_pachialo_hit.wav,p06,pachialo,hit,pa-shi-a-lo,pa-chia-lo,pa-chi-a-lo, ,0.417777778,-0.106111111,1,0,0,1.143,text_option_2,,0,118,118,126,1
5d60061e45714d00019ad6a4,63f3cfca20052e4ae7554ebf,6453c95dbedf32e478ba18cc,2023-05-04_17h04.13.996,ga_syllabified_check,2022.2.5,Win32,8.177818485,,,,,,,,,,,,,,./stim/p07_syllable_1_ruyiola_hit.wav,p07,ruyiola,hit,ru-yio-la,ru-yio-la,ru-yi-o-la, ,-0.343888889,-0.102777778,1,0,0,1.0383,text_option_1,,0,119,119,168,1
5d60061e45714d00019ad6a4,63f3cfca20052e4ae7554ebf,6453c95dbedf32e478ba18cc,2023-05-04_17h04.13.996,ga_syllabified_check,2022.2.5,Win32,8.177818485,,,,,,,,,,,,,,./stim/p07_syllable_1_lakaduaisto_hit.wav,p07,lakaduaisto,hit,la-ka-duais-to,la-ka-duais-to,la-ka-du-ais-to,la-ka-dua-is-to,-0.343888889,-0.102777778,1,0,0,1.4536,text_option_1,,0,120,120,145,1
5d60061e45714d00019ad6a4,63f3cfca20052e4ae7554ebf,6453c95dbedf32e478ba18cc,2023-05-04_17h04.13.996,ga_syllabified_check,2022.2.5,Win32,8.177818485,,,,,,,,,,,,,,./stim/p04_syllable_1_nhiape_hit.wav,p04,ñiape,hit,nhia-pe,ñia-pe,ñi-a-pe, ,-0.392777778,-0.104444444,1,0,0,0.5089,text_option_1,,0,121,121,57,1
5d60061e45714d00019ad6a4,63f3cfca20052e4ae7554ebf,6453c95dbedf32e478ba18cc,2023-05-04_17h04.13.996,ga_syllabified_check,2022.2.5,Win32,8.177818485,,,,,,,,,,,,,,./stim/p05_syllable_1_lliape_hit.wav,p05,lliape,hit,liai-pe,llia-pe,lli-a-pe, ,-0.392777778,-0.104444444,1,0,0,0.3388,text_option_1,,0,122,122,88,1
5d60061e45714d00019ad6a4,63f3cfca20052e4ae7554ebf,6453c95dbedf32e478ba18cc,2023-05-04_17h04.13.996,ga_syllabified_check,2022.2.5,Win32,8.177818485,,,,,,,,,,,,,,./stim/p08_syllable_1_faluduako_hit.wav,p08,faluduako,hit,fa-lu-duai-ko,fa-lu-dua-ko,fa-lu-du-a-ko, ,-0.379444444,-0.104444444,1,0,0,2.5914,text_option_1,,0,123,123,172,1
5d60061e45714d00019ad6a4,63f3cfca20052e4ae7554ebf,6453c95dbedf32e478ba18cc,2023-05-04_17h04.13.996,ga_syllabified_check,2022.2.5,Win32,8.177818485,,,,,,,,,,,,,,./stim/p06_syllable_1_lakaguaisto_hit.wav,p06,lakaguaisto,hit,la-ka-gu-a-is,la-ka-guais-to,la-ka-gu-ais-to,la-ka-gua-is-to,0.440555556,-0.12,1,0,0,4.338,text_option_2,,0,124,124,115,1
5d60061e45714d00019ad6a4,63f3cfca20052e4ae7554ebf,6453c95dbedf32e478ba18cc,2023-05-04_17h04.13.996,ga_syllabified_check,2022.2.5,Win32,8.177818485,,,,,,,,,,,,,,./stim/p04_syllable_1_chiaba_hit.wav,p04,chiaba,hit,chia-ba,chia-ba,chi-a-ba, ,-0.364444444,-0.097222222,1,0,0,14.0573,text_option_1,,0,125,125,34,1
5d60061e45714d00019ad6a4,63f3cfca20052e4ae7554ebf,6453c95dbedf32e478ba18cc,2023-05-04_17h04.13.996,ga_syllabified_check,2022.2.5,Win32,8.177818485,,,,,,,,,,,,,,./stim/p08_syllable_1_ruyiola_hit.wav,p08,ruyiola,hit,ru-yio-la,ru-yio-la,ru-yi-o-la, ,-0.364444444,-0.097222222,1,0,0,0.8022,text_option_1,,0,126,126,202,1
5d60061e45714d00019ad6a4,63f3cfca20052e4ae7554ebf,6453c95dbedf32e478ba18cc,2023-05-04_17h04.13.996,ga_syllabified_check,2022.2.5,Win32,8.177818485,,,,,,,,,,,,,,./stim/p07_syllable_1_faluduako_hit.wav,p07,faluduako,hit,fa-lu-dua-ko,fa-lu-dua-ko,fa-lu-du-a-ko, ,-0.364444444,-0.097222222,1,0,0,1.402,text_option_1,,0,127,127,138,1
5d60061e45714d00019ad6a4,63f3cfca20052e4ae7554ebf,6453c95dbedf32e478ba18cc,2023-05-04_17h04.13.996,ga_syllabified_check,2022.2.5,Win32,8.177818485,,,,,,,,,,,,,,./stim/p04_syllable_1_payielo_hit.wav,p04,payielo,hit,pa-yie-lo,pa-yie-lo,pa-yi-e-lo, ,-0.364444444,-0.097222222,1,0,0,0.614,text_option_1,,0,128,128,64,1
5d60061e45714d00019ad6a4,63f3cfca20052e4ae7554ebf,6453c95dbedf32e478ba18cc,2023-05-04_17h04.13.996,ga_syllabified_check,2022.2.5,Win32,8.177818485,,,,,,,,,,,,,,./stim/p08_syllable_1_lakapiaisto_hit.wav,p08,lakapiaisto,hit,la-ka-pi-as-to,la-ka-piais-to,la-ka-pi-ais-to,la-ka-pia-is-to,0.483333333,-0.116111111,1,0,0,3.8994,text_option_2,,0,129,129,186,1
5d60061e45714d00019ad6a4,63f3cfca20052e4ae7554ebf,6453c95dbedf32e478ba18cc,2023-05-04_17h04.13.996,ga_syllabified_check,2022.2.5,Win32,8.177818485,,,,,,,,,,,,,,./stim/p07_syllable_1_lakakuaisto_hit.wav,p07,lakakuaisto,hit,la-ka-kuais-to,la-ka-kuais-to,la-ka-ku-ais-to,la-ka-kua-is-to,-0.360555556,-0.113888889,1,0,0,1.9049,text_option_1,,0,130,130,151,1
5d60061e45714d00019ad6a4,63f3cfca20052e4ae7554ebf,6453c95dbedf32e478ba18cc,2023-05-04_17h04.13.996,ga_syllabified_check,2022.2.5,Win32,8.177818485,,,,,,,,,,,,,,./stim/p07_syllable_1_palumaisto_hit.wav,p07,palumaisto,hit,pa-lu-mais-to,pa-lu-mais-to,pa-lu-ma-is-to, ,-0.360555556,-0.113888889,1,0,0,2.2105,text_option_1,,0,131,131,164,1
5d60061e45714d00019ad6a4,63f3cfca20052e4ae7554ebf,6453c95dbedf32e478ba18cc,2023-05-04_17h04.13.996,ga_syllabified_check,2022.2.5,Win32,8.177818485,,,,,,,,,,,,,,./stim/p06_syllable_1_lakapiaisto_hit.wav,p06,lakapiaisto,hit,la-ka-pia-is-to,la-ka-piais-to,la-ka-pi-ais-to,la-ka-pia-is-to,0.333333333,-0.100555556,1,0,0,4.5593,text_option_2,,0,132,132,118,1
5d60061e45714d00019ad6a4,63f3cfca20052e4ae7554ebf,6453c95dbedf32e478ba18cc,2023-05-04_17h04.13.996,ga_syllabified_check,2022.2.5,Win32,8.177818485,,,,,,,,,,,,,,./stim/p03_syllable_1_lakatiaisto_hit.wav,p03,lakatiaisto,hit,la-ka-tiais-to,la-ka-tiais-to,la-ka-ti-ais-to,la-ka-tia-is-to,-0.420555556,-0.107222222,1,0,0,3.6378,text_option_1,,0,133,133,18,1
5d60061e45714d00019ad6a4,63f3cfca20052e4ae7554ebf,6453c95dbedf32e478ba18cc,2023-05-04_17h04.13.996,ga_syllabified_check,2022.2.5,Win32,8.177818485,,,,,,,,,,,,,,./stim/p08_syllable_1_chiaba_hit.wav,p08,chiaba,hit,chi-a-ba,chia-ba,chi-a-ba, ,0.430555556,-0.092222222,1,0,0,1.2881,text_option_2,,0,134,134,170,1
5d60061e45714d00019ad6a4,63f3cfca20052e4ae7554ebf,6453c95dbedf32e478ba18cc,2023-05-04_17h04.13.996,ga_syllabified_check,2022.2.5,Win32,8.177818485,,,,,,,,,,,,,,./stim/p07_syllable_1_lakabiaisto_hit.wav,p07,lakabiaisto,hit,la-ka-bais-to,la-ka-biais-to,la-ka-bi-ais-to,la-ka-bia-is-to,0.057777778,-0.308888889,1,0,0,3.4251,text_option_other,la-ka-bais-to,0,135,135,142,1
5d60061e45714d00019ad6a4,63f3cfca20052e4ae7554ebf,6453c95dbedf32e478ba18cc,2023-05-04_17h04.13.996,ga_syllabified_check,2022.2.5,Win32,8.177818485,,,,,,,,,,,,,,./stim/p05_syllable_1_faluduako_hit.wav,p05,faluduako,hit,fa-lu-ba-ko,fa-lu-dua-ko,fa-lu-du-a-ko, ,-0.422777778,-0.105,1,0,0,3.2893,text_option_1,,0,136,136,70,1
5d60061e45714d00019ad6a4,63f3cfca20052e4ae7554ebf,6453c95dbedf32e478ba18cc,2023-05-04_17h04.13.996,ga_syllabified_check,2022.2.5,Win32,8.177818485,,,,,,,,,,,,,,./stim/p03_syllable_1_lakafiaisto_hit.wav,p03,lakafiaisto,hit,la-ka-fiais-to,la-ka-fiais-to,la-ka-fi-ais-to,la-ka-fia-is-to,-0.368888889,-0.099444444,1,0,0,1.4739,text_option_1,,0,137,137,10,1
5d60061e45714d00019ad6a4,63f3cfca20052e4ae7554ebf,6453c95dbedf32e478ba18cc,2023-05-04_17h04.13.996,ga_syllabified_check,2022.2.5,Win32,8.177818485,,,,,,,,,,,,,,./stim/p05_syllable_1_lakatiaisto_hit.wav,p05,lakatiaisto,hit,la-ka-ti-ais-to,la-ka-tiais-to,la-ka-ti-ais-to,la-ka-tia-is-to,-0.368888889,-0.099444444,1,0,0,1.1214,text_option_1,,0,138,138,86,1
5d60061e45714d00019ad6a4,63f3cfca20052e4ae7554ebf,6453c95dbedf32e478ba18cc,2023-05-04_17h04.13.996,ga_syllabified_check,2022.2.5,Win32,8.177818485,,,,,,,,,,,,,,./stim/p04_syllable_1_palutrauco_hit.wav,p04,palutrauco,hit,pa-lu-trau-co,pa-lu-trau-co,pa-lu-tra-u-co, ,-0.340555556,-0.100555556,1,0,0,0.673,text_option_1,,0,139,139,63,1
5d60061e45714d00019ad6a4,63f3cfca20052e4ae7554ebf,6453c95dbedf32e478ba18cc,2023-05-04_17h04.13.996,ga_syllabified_check,2022.2.5,Win32,8.177818485,,,,,,,,,,,,,,./stim/p05_syllable_1_lakaguaisto_hit.wav,p05,lakaguaisto,hit,la-ka-gais,la-ka-guais-to,la-ka-gu-ais-to,la-ka-gua-is-to,0.001111111,-0.279444444,1,0,0,1.4819,text_option_other,la-ka-gais-to,0,140,140,81,1
5d60061e45714d00019ad6a4,63f3cfca20052e4ae7554ebf,6453c95dbedf32e478ba18cc,2023-05-04_17h04.13.996,ga_syllabified_check,2022.2.5,Win32,8.177818485,,,,,,,,,,,,,,./stim/p07_syllable_1_lliape_hit.wav,p07,lliape,hit,lliai-pe,llia-pe,lli-a-pe, ,-0.375,-0.112777778,1,0,0,1.6177,text_option_1,,0,141,141,156,1
5d60061e45714d00019ad6a4,63f3cfca20052e4ae7554ebf,6453c95dbedf32e478ba18cc,2023-05-04_17h04.13.996,ga_syllabified_check,2022.2.5,Win32,8.177818485,,,,,,,,,,,,,,./stim/p05_syllable_1_lakagiaisto_hit.wav,p05,lakagiaisto,hit,la-ka-ki-ais-to,la-ka-giais-to,la-ka-gi-ais-to,la-ka-gia-is-to,-0.362222222,-0.107777778,1,0,0,1.1216,text_option_1,,0,142,142,80,1
5d60061e45714d00019ad6a4,63f3cfca20052e4ae7554ebf,6453c95dbedf32e478ba18cc,2023-05-04_17h04.13.996,ga_syllabified_check,2022.2.5,Win32,8.177818485,,,,,,,,,,,,,,./stim/p06_syllable_1_rausto_hit.wav,p06,rausto,hit,ra-us-to,raus-to,ra-us-to, ,0.402222222,-0.095,1,0,0,1.3073,text_option_2,,0,143,143,133,1
5d60061e45714d00019ad6a4,63f3cfca20052e4ae7554ebf,6453c95dbedf32e478ba18cc,2023-05-04_17h04.13.996,ga_syllabified_check,2022.2.5,Win32,8.177818485,,,,,,,,,,,,,,./stim/p04_syllable_1_falutraigo_hit.wav,p04,falutraigo,hit,fa-lu-trai-go,fa-lu-trai-go,fa-lu-tra-i-go, ,-0.429444444,-0.112777778,1,0,0,0.3277,text_option_1,,0,144,144,38,1
5d60061e45714d00019ad6a4,63f3cfca20052e4ae7554ebf,6453c95dbedf32e478ba18cc,2023-05-04_17h04.13.996,ga_syllabified_check,2022.2.5,Win32,8.177818485,,,,,,,,,,,,,,./stim/p03_syllable_1_lakabuaisto_hit.wav,p03,lakabuaisto,hit,la-ka-buais-to,la-ka-buais-to,la-ka-bu-ais-to,la-ka-bua-is-to,-0.370555556,-0.102222222,1,0,0,0.6734,text_option_1,,0,145,145,7,1
5d60061e45714d00019ad6a4,63f3cfca20052e4ae7554ebf,6453c95dbedf32e478ba18cc,2023-05-04_17h04.13.996,ga_syllabified_check,2022.2.5,Win32,8.177818485,,,,,,,,,,,,,,./stim/p04_syllable_1_rausto_hit.wav,p04,rausto,hit,raus-to,raus-to,ra-us-to, ,-0.370555556,-0.102222222,1,0,0,0.1705,text_option_1,,0,146,146,65,1
5d60061e45714d00019ad6a4,63f3cfca20052e4ae7554ebf,6453c95dbedf32e478ba18cc,2023-05-04_17h04.13.996,ga_syllabified_check,2022.2.5,Win32,8.177818485,,,,,,,,,,,,,,./stim/p06_syllable_1_chiaba_hit.wav,p06,chiaba,hit,chi-a-ba,chia-ba,chi-a-ba, ,-0.381666667,-0.091666667,1,0,0,1.4512,text_option_1,,0,147,147,102,1
5d60061e45714d00019ad6a4,63f3cfca20052e4ae7554ebf,6453c95dbedf32e478ba18cc,2023-05-04_17h04.13.996,ga_syllabified_check,2022.2.5,Win32,8.177818485,,,,,,,,,,,,,,./stim/p03_syllable_1_mebochiana_hit.wav,p03,mebochiana,hit,me-bo-chia-na,me-bo-chia-na,me-bo-chi-a-na, ,-0.330555556,-0.107222222,1,0,0,0.9466,text_option_1,,0,148,148,22,1
5d60061e45714d00019ad6a4,63f3cfca20052e4ae7554ebf,6453c95dbedf32e478ba18cc,2023-05-04_17h04.13.996,ga_syllabified_check,2022.2.5,Win32,8.177818485,,,,,,,,,,,,,,./stim/p08_syllable_1_tuliafo_hit.wav,p08,tuliafo,hit,tu-li-a-fo,tu-lia-fo,tu-li-a-fo, ,0.416111111,-0.119444444,1,0,0,1.3258,text_option_2,,0,149,149,203,1
5d60061e45714d00019ad6a4,63f3cfca20052e4ae7554ebf,6453c95dbedf32e478ba18cc,2023-05-04_17h04.13.996,ga_syllabified_check,2022.2.5,Win32,8.177818485,,,,,,,,,,,,,,./stim/p07_syllable_1_payielo_hit.wav,p07,payielo,hit,pa-yie-lo,pa-yie-lo,pa-yi-e-lo, ,-0.38,-0.108333333,1,0,0,1.0031,text_option_1,,0,150,150,166,1
5d60061e45714d00019ad6a4,63f3cfca20052e4ae7554ebf,6453c95dbedf32e478ba18cc,2023-05-04_17h04.13.996,ga_syllabified_check,2022.2.5,Win32,8.177818485,,,,,,,,,,,,,,./stim/p06_syllable_1_palumaisto_hit.wav,p06,palumaisto,hit,pa-lu-ma-is-to,pa-lu-mais-to,pa-lu-ma-is-to, ,0.395555556,-0.1,1,0,0,1.4524,text_option_2,,0,151,151,130,1
5d60061e45714d00019ad6a4,63f3cfca20052e4ae7554ebf,6453c95dbedf32e478ba18cc,2023-05-04_17h04.13.996,ga_syllabified_check,2022.2.5,Win32,8.177818485,,,,,,,,,,,,,,./stim/p06_syllable_1_palutrauco_hit.wav,p06,palutrauco,hit,pa-lu-tra-u-co,pa-lu-trau-co,pa-lu-tra-u-co, ,0.388888889,-0.087777778,1,0,0,1.6405,text_option_2,,0,152,152,131,1
5d60061e45714d00019ad6a4,63f3cfca20052e4ae7554ebf,6453c95dbedf32e478ba18cc,2023-05-04_17h04.13.996,ga_syllabified_check,2022.2.5,Win32,8.177818485,,,,,,,,,,,,,,./stim/p05_syllable_1_ruyiola_hit.wav,p05,ruyiola,hit,ru-yio-la,ru-yio-la,ru-yi-o-la, ,-0.385555556,-0.103888889,1,0,0,0.3135,text_option_1,,0,153,153,100,1
5d60061e45714d00019ad6a4,63f3cfca20052e4ae7554ebf,6453c95dbedf32e478ba18cc,2023-05-04_17h04.13.996,ga_syllabified_check,2022.2.5,Win32,8.177818485,,,,,,,,,,,,,,./stim/p03_syllable_1_lakaguaisto_hit.wav,p03,lakaguaisto,hit,la-ka-guais-to,la-ka-guais-to,la-ka-gu-ais-to,la-ka-gua-is-to,-0.385555556,-0.103888889,1,0,0,1.1369,text_option_1,,0,154,154,13,1
5d60061e45714d00019ad6a4,63f3cfca20052e4ae7554ebf,6453c95dbedf32e478ba18cc,2023-05-04_17h04.13.996,ga_syllabified_check,2022.2.5,Win32,8.177818485,,,,,,,,,,,,,,./stim/p06_syllable_1_nhiape_hit.wav,p06,ñiape,hit,nhi-a-pe,ñia-pe,ñi-a-pe, ,0.387222222,-0.112222222,1,0,0,1.0096,text_option_2,,0,155,155,125,1
5d60061e45714d00019ad6a4,63f3cfca20052e4ae7554ebf,6453c95dbedf32e478ba18cc,2023-05-04_17h04.13.996,ga_syllabified_check,2022.2.5,Win32,8.177818485,,,,,,,,,,,,,,./stim/p05_syllable_1_mebochiana_hit.wav,p05,mebochiana,hit,me-cho-chai-na,me-bo-chia-na,me-bo-chi-a-na, ,0.076111111,-0.300555556,1,0,0,1.147,text_option_other,me-cho-chai-na,0,156,156,90,1
5d60061e45714d00019ad6a4,63f3cfca20052e4ae7554ebf,6453c95dbedf32e478ba18cc,2023-05-04_17h04.13.996,ga_syllabified_check,2022.2.5,Win32,8.177818485,,,,,,,,,,,,,,./stim/p03_syllable_1_falutraigo_hit.wav,p03,falutraigo,hit,fa-lu-trai-go,fa-lu-trai-go,fa-lu-tra-i-go, ,-0.337777778,-0.109444444,1,0,0,1.6866,text_option_1,,0,157,157,4,1
5d60061e45714d00019ad6a4,63f3cfca20052e4ae7554ebf,6453c95dbedf32e478ba18cc,2023-05-04_17h04.13.996,ga_syllabified_check,2022.2.5,Win32,8.177818485,,,,,,,,,,,,,,./stim/p08_syllable_1_manhiala_hit.wav,p08,mañiala,hit,ma-nhia-la,ma-ñia-la,ma-ñi-a-la, ,-0.393333333,-0.121111111,1,0,0,2.1166,text_option_1,,0,158,158,191,1
5d60061e45714d00019ad6a4,63f3cfca20052e4ae7554ebf,6453c95dbedf32e478ba18cc,2023-05-04_17h04.13.996,ga_syllabified_check,2022.2.5,Win32,8.177818485,,,,,,,,,,,,,,./stim/p03_syllable_1_lakakiaisto_hit.wav,p03,lakakiaisto,hit,la-ka-kiais-to,la-ka-kiais-to,la-ka-ki-ais-to,la-ka-kia-is-to,-0.350555556,-0.098888889,1,0,0,1.4486,text_option_1,,0,159,159,14,1
5d60061e45714d00019ad6a4,63f3cfca20052e4ae7554ebf,6453c95dbedf32e478ba18cc,2023-05-04_17h04.13.996,ga_syllabified_check,2022.2.5,Win32,8.177818485,,,,,,,,,,,,,,./stim/p07_syllable_1_mebochiana_hit.wav,p07,mebochiana,hit,me-bo-chia-na,me-bo-chia-na,me-bo-chi-a-na, ,-0.350555556,-0.098888889,1,0,0,1.8213,text_option_1,,0,160,160,158,1
5d60061e45714d00019ad6a4,63f3cfca20052e4ae7554ebf,6453c95dbedf32e478ba18cc,2023-05-04_17h04.13.996,ga_syllabified_check,2022.2.5,Win32,8.177818485,,,,,,,,,,,,,,./stim/p03_syllable_1_lliape_hit.wav,p03,lliape,hit,llia,llia-pe,lli-a-pe, ,-0.390555556,-0.098888889,1,0,0,1.1461,text_option_1,,0,161,161,20,1
5d60061e45714d00019ad6a4,63f3cfca20052e4ae7554ebf,6453c95dbedf32e478ba18cc,2023-05-04_17h04.13.996,ga_syllabified_check,2022.2.5,Win32,8.177818485,,,,,,,,,,,,,,./stim/p06_syllable_1_faluduako_hit.wav,p06,faluduako,hit,fa-lu-dua-ko,fa-lu-dua-ko,fa-lu-du-a-ko, ,-0.372222222,-0.096111111,1,0,0,4.5949,text_option_1,,0,162,162,104,1
5d60061e45714d00019ad6a4,63f3cfca20052e4ae7554ebf,6453c95dbedf32e478ba18cc,2023-05-04_17h04.13.996,ga_syllabified_check,2022.2.5,Win32,8.177818485,,,,,,,,,,,,,,./stim/p03_syllable_1_lakapuaisto_hit.wav,p03,lakapuaisto,hit,la-ka-puais-to,la-ka-puais-to,la-ka-pu-ais-to,la-ka-pua-is-to,-0.372222222,-0.096111111,1,0,0,2.2735,text_option_1,,0,163,163,17,1
5d60061e45714d00019ad6a4,63f3cfca20052e4ae7554ebf,6453c95dbedf32e478ba18cc,2023-05-04_17h04.13.996,ga_syllabified_check,2022.2.5,Win32,8.177818485,,,,,,,,,,,,,,./stim/p04_syllable_1_palufauro_hit.wav,p04,palufauro,hit,pa-lu-fau-ro,pa-lu-fau-ro,pa-lu-fa-u-ro, ,-0.372222222,-0.096111111,1,0,0,1.1588,text_option_1,,0,164,164,59,1
5d60061e45714d00019ad6a4,63f3cfca20052e4ae7554ebf,6453c95dbedf32e478ba18cc,2023-05-04_17h04.13.996,ga_syllabified_check,2022.2.5,Win32,8.177818485,,,,,,,,,,,,,,./stim/p05_syllable_1_falutraigo_hit.wav,p05,falutraigo,hit,fa-lu-trai-go,fa-lu-trai-go,fa-lu-tra-i-go, ,-0.372222222,-0.096111111,1,0,0,0.8222,text_option_1,,0,165,165,72,1
5d60061e45714d00019ad6a4,63f3cfca20052e4ae7554ebf,6453c95dbedf32e478ba18cc,2023-05-04_17h04.13.996,ga_syllabified_check,2022.2.5,Win32,8.177818485,,,,,,,,,,,,,,./stim/p05_syllable_1_lakabuaisto_hit.wav,p05,lakabuaisto,hit,la-ka-buais-to,la-ka-buais-to,la-ka-bu-ais-to,la-ka-bua-is-to,-0.372222222,-0.096111111,1,0,0,0.9639,text_option_1,,0,166,166,75,1
5d60061e45714d00019ad6a4,63f3cfca20052e4ae7554ebf,6453c95dbedf32e478ba18cc,2023-05-04_17h04.13.996,ga_syllabified_check,2022.2.5,Win32,8.177818485,,,,,,,,,,,,,,./stim/p06_syllable_1_lakapuaisto_hit.wav,p06,lakapuaisto,hit,la-ka-pu-a-is,la-ka-puais-to,la-ka-pu-ais-to,la-ka-pua-is-to,0.429444444,-0.097222222,1,0,0,3.0708,text_option_2,,0,167,167,119,1
5d60061e45714d00019ad6a4,63f3cfca20052e4ae7554ebf,6453c95dbedf32e478ba18cc,2023-05-04_17h04.13.996,ga_syllabified_check,2022.2.5,Win32,8.177818485,,,,,,,,,,,,,,./stim/p06_syllable_1_mebochiana_hit.wav,p06,mebochiana,hit,me-bo-shi-a-na,me-bo-chia-na,me-bo-chi-a-na, ,0.496666667,-0.086111111,1,0,0,2.9026,text_option_2,,0,168,168,124,1
5d60061e45714d00019ad6a4,63f3cfca20052e4ae7554ebf,6453c95dbedf32e478ba18cc,2023-05-04_17h04.13.996,ga_syllabified_check,2022.2.5,Win32,8.177818485,,,,,,,,,,,,,,./stim/p05_syllable_1_payielo_hit.wav,p05,payielo,hit,pai-yu-we-lo,pa-yie-lo,pa-yi-e-lo, ,-0.025,-0.295,1,0,0,1.3077,text_option_other,pa-yue-lo,0,169,169,98,1
5d60061e45714d00019ad6a4,63f3cfca20052e4ae7554ebf,6453c95dbedf32e478ba18cc,2023-05-04_17h04.13.996,ga_syllabified_check,2022.2.5,Win32,8.177818485,,,,,,,,,,,,,,./stim/p05_syllable_1_lakafuaisto_hit.wav,p05,lakafuaisto,hit,la-ka-fais-to,la-ka-fuais-to,la-ka-fu-ais-to,la-ka-fua-is-to,0.020555556,-0.297222222,1,0,0,2.1397,text_option_other,la-ka-fais-to,0,170,170,79,1
5d60061e45714d00019ad6a4,63f3cfca20052e4ae7554ebf,6453c95dbedf32e478ba18cc,2023-05-04_17h04.13.996,ga_syllabified_check,2022.2.5,Win32,8.177818485,,,,,,,,,,,,,,./stim/p03_syllable_1_palufauro_hit.wav,p03,palufauro,hit,pa-lu-fau-ro,pa-lu-fau-ro,pa-lu-fa-u-ro, ,-0.322777778,-0.108333333,1,0,0,0.9696,text_option_1,,0,171,171,25,1
5d60061e45714d00019ad6a4,63f3cfca20052e4ae7554ebf,6453c95dbedf32e478ba18cc,2023-05-04_17h04.13.996,ga_syllabified_check,2022.2.5,Win32,8.177818485,,,,,,,,,,,,,,./stim/p07_syllable_1_lakatuaisto_hit.wav,p07,lakatuaisto,hit,la-ka-tuais-to,la-ka-tuais-to,la-ka-tu-ais-to,la-ka-tua-is-to,-0.322777778,-0.108333333,1,0,0,1.635,text_option_1,,0,172,172,155,1
5d60061e45714d00019ad6a4,63f3cfca20052e4ae7554ebf,6453c95dbedf32e478ba18cc,2023-05-04_17h04.13.996,ga_syllabified_check,2022.2.5,Win32,8.177818485,,,,,,,,,,,,,,./stim/p07_syllable_1_rausto_hit.wav,p07,rausto,hit,raus-to,raus-to,ra-us-to, ,-0.365555556,-0.101666667,1,0,0,0.3267,text_option_1,,0,173,173,167,1
5d60061e45714d00019ad6a4,63f3cfca20052e4ae7554ebf,6453c95dbedf32e478ba18cc,2023-05-04_17h04.13.996,ga_syllabified_check,2022.2.5,Win32,8.177818485,,,,,,,,,,,,,,./stim/p06_syllable_1_lakaduaisto_hit.wav,p06,lakaduaisto,hit,la-ka-du-a-is,la-ka-duais-to,la-ka-du-ais-to,la-ka-dua-is-to,0.381666667,-0.104444444,1,0,0,3.1107,text_option_2,,0,174,174,111,1
5d60061e45714d00019ad6a4,63f3cfca20052e4ae7554ebf,6453c95dbedf32e478ba18cc,2023-05-04_17h04.13.996,ga_syllabified_check,2022.2.5,Win32,8.177818485,,,,,,,,,,,,,,./stim/p03_syllable_1_lakakuaisto_hit.wav,p03,lakakuaisto,hit,la-ka-kuais-to,la-ka-kuais-to,la-ka-ku-ais-to,la-ka-kua-is-to,-0.312222222,-0.108888889,1,0,0,0.7991,text_option_1,,0,175,175,15,1
5d60061e45714d00019ad6a4,63f3cfca20052e4ae7554ebf,6453c95dbedf32e478ba18cc,2023-05-04_17h04.13.996,ga_syllabified_check,2022.2.5,Win32,8.177818485,,,,,,,,,,,,,,./stim/p04_syllable_1_lakatiaisto_hit.wav,p04,lakatiaisto,hit,la-ka-kiais-to,la-ka-tiais-to,la-ka-ti-ais-to,la-ka-tia-is-to,-0.362222222,-0.110555556,1,0,0,0.8179,text_option_1,,0,176,176,52,1
5d60061e45714d00019ad6a4,63f3cfca20052e4ae7554ebf,6453c95dbedf32e478ba18cc,2023-05-04_17h04.13.996,ga_syllabified_check,2022.2.5,Win32,8.177818485,,,,,,,,,,,,,,./stim/p03_syllable_1_chiaba_hit.wav,p03,chiaba,hit,chia-ba,chia-ba,chi-a-ba, ,-0.362222222,-0.110555556,1,0,0,0.1667,text_option_1,,0,177,177,0,1
5d60061e45714d00019ad6a4,63f3cfca20052e4ae7554ebf,6453c95dbedf32e478ba18cc,2023-05-04_17h04.13.996,ga_syllabified_check,2022.2.5,Win32,8.177818485,,,,,,,,,,,,,,./stim/p04_syllable_1_lakaguaisto_hit.wav,p04,lakaguaisto,hit,la-ka-guais-to,la-ka-guais-to,la-ka-gu-ais-to,la-ka-gua-is-to,-0.345,-0.105,1,0,0,0.6494,text_option_1,,0,178,178,47,1
5d60061e45714d00019ad6a4,63f3cfca20052e4ae7554ebf,6453c95dbedf32e478ba18cc,2023-05-04_17h04.13.996,ga_syllabified_check,2022.2.5,Win32,8.177818485,,,,,,,,,,,,,,./stim/p06_syllable_1_falufaisto_hit.wav,p06,falufaisto,hit,fa-lu-fa-is-to,fa-lu-fais-to,fa-lu-fa-is-to, ,0.412222222,-0.090555556,1,0,0,1.0097,text_option_2,,0,179,179,105,1
5d60061e45714d00019ad6a4,63f3cfca20052e4ae7554ebf,6453c95dbedf32e478ba18cc,2023-05-04_17h04.13.996,ga_syllabified_check,2022.2.5,Win32,8.177818485,,,,,,,,,,,,,,./stim/p03_syllable_1_nhiape_hit.wav,p03,ñiape,hit,nhia-pe,ñia-pe,ñi-a-pe, ,-0.382222222,-0.113888889,1,0,0,1.0001,text_option_1,,0,180,180,23,1
5d60061e45714d00019ad6a4,63f3cfca20052e4ae7554ebf,6453c95dbedf32e478ba18cc,2023-05-04_17h04.13.996,ga_syllabified_check,2022.2.5,Win32,8.177818485,,,,,,,,,,,,,,./stim/p06_syllable_1_lakatuaisto_hit.wav,p06,lakatuaisto,hit,la-ka-tu-a-is,la-ka-tuais-to,la-ka-tu-ais-to,la-ka-tua-is-to,0.336111111,-0.102222222,1,0,0,1.6447,text_option_2,,0,181,181,121,1
5d60061e45714d00019ad6a4,63f3cfca20052e4ae7554ebf,6453c95dbedf32e478ba18cc,2023-05-04_17h04.13.996,ga_syllabified_check,2022.2.5,Win32,8.177818485,,,,,,,,,,,,,,./stim/p08_syllable_1_lakabuaisto_hit.wav,p08,lakabuaisto,hit,la-ka-bu-ais-to,la-ka-buais-to,la-ka-bu-ais-to,la-ka-bua-is-to,-0.37,-0.117222222,1,0,0,2.3298,text_option_1,,0,182,182,177,1
5d60061e45714d00019ad6a4,63f3cfca20052e4ae7554ebf,6453c95dbedf32e478ba18cc,2023-05-04_17h04.13.996,ga_syllabified_check,2022.2.5,Win32,8.177818485,,,,,,,,,,,,,,./stim/p07_syllable_1_nhiape_hit.wav,p07,ñiape,hit,nhia-pe,ñia-pe,ñi-a-pe, ,-0.379444444,-0.111666667,1,0,0,0.3112,text_option_1,,0,183,183,159,1
5d60061e45714d00019ad6a4,63f3cfca20052e4ae7554ebf,6453c95dbedf32e478ba18cc,2023-05-04_17h04.13.996,ga_syllabified_check,2022.2.5,Win32,8.177818485,,,,,,,,,,,,,,./stim/p07_syllable_1_lakadiaisto_hit.wav,p07,lakadiaisto,hit,la-ka-dia-is-to,la-ka-diais-to,la-ka-di-ais-to,la-ka-dia-is-to,0.096666667,-0.100555556,1,0,0,2.137,text_option_3,,0,184,184,144,1
5d60061e45714d00019ad6a4,63f3cfca20052e4ae7554ebf,6453c95dbedf32e478ba18cc,2023-05-04_17h04.13.996,ga_syllabified_check,2022.2.5,Win32,8.177818485,,,,,,,,,,,,,,./stim/p08_syllable_1_costonhialo_hit.wav,p08,costoñialo,hit,cos-to-nhia-lo,cos-to-ñia-lo,cos-to-ñi-a-lo, ,-0.36,-0.111111111,1,0,0,1.1306,text_option_1,,0,185,185,171,1
5d60061e45714d00019ad6a4,63f3cfca20052e4ae7554ebf,6453c95dbedf32e478ba18cc,2023-05-04_17h04.13.996,ga_syllabified_check,2022.2.5,Win32,8.177818485,,,,,,,,,,,,,,./stim/p06_syllable_1_manhiala_hit.wav,p06,mañiala,hit,ma-nhi-a-la,ma-ñia-la,ma-ñi-a-la, ,0.413333333,-0.101666667,1,0,0,1.4843,text_option_2,,0,186,186,123,1
5d60061e45714d00019ad6a4,63f3cfca20052e4ae7554ebf,6453c95dbedf32e478ba18cc,2023-05-04_17h04.13.996,ga_syllabified_check,2022.2.5,Win32,8.177818485,,,,,,,,,,,,,,./stim/p05_syllable_1_flauro_hit.wav,p05,flauro,hit,fa-lu-ro,flau-ro,fla-u-ro, ,-0.002777778,-0.291666667,1,0,0,1.3389,text_option_other,fa-lu-ro,0,187,187,73,1
5d60061e45714d00019ad6a4,63f3cfca20052e4ae7554ebf,6453c95dbedf32e478ba18cc,2023-05-04_17h04.13.996,ga_syllabified_check,2022.2.5,Win32,8.177818485,,,,,,,,,,,,,,./stim/p04_syllable_1_lakafiaisto_hit.wav,p04,lakafiaisto,hit,la-ka-fiais-to,la-ka-fiais-to,la-ka-fi-ais-to,la-ka-fia-is-to,-0.390555556,-0.117222222,1,0,0,0.8283,text_option_1,,0,188,188,44,1
5d60061e45714d00019ad6a4,63f3cfca20052e4ae7554ebf,6453c95dbedf32e478ba18cc,2023-05-04_17h04.13.996,ga_syllabified_check,2022.2.5,Win32,8.177818485,,,,,,,,,,,,,,./stim/p04_syllable_1_lakatuaisto_hit.wav,p04,lakatuaisto,hit,la-ka-kuais-to,la-ka-tuais-to,la-ka-tu-ais-to,la-ka-tua-is-to,-0.357222222,-0.108888889,1,0,0,0.534,text_option_1,,0,189,189,53,1
5d60061e45714d00019ad6a4,63f3cfca20052e4ae7554ebf,6453c95dbedf32e478ba18cc,2023-05-04_17h04.13.996,ga_syllabified_check,2022.2.5,Win32,8.177818485,,,,,,,,,,,,,,./stim/p03_syllable_1_lakatuaisto_hit.wav,p03,lakatuaisto,hit,la-ka-tuais-to,la-ka-tuais-to,la-ka-tu-ais-to,la-ka-tua-is-to,-0.357222222,-0.108888889,1,0,0,0.818,text_option_1,,0,190,190,19,1
5d60061e45714d00019ad6a4,63f3cfca20052e4ae7554ebf,6453c95dbedf32e478ba18cc,2023-05-04_17h04.13.996,ga_syllabified_check,2022.2.5,Win32,8.177818485,,,,,,,,,,,,,,./stim/p06_syllable_1_palufauro_hit.wav,p06,palufauro,hit,pa-lu-fau-ro,pa-lu-fau-ro,pa-lu-fa-u-ro, ,0.426666667,-0.095,1,0,0,1.1494,text_option_2,,0,191,191,127,1
5d60061e45714d00019ad6a4,63f3cfca20052e4ae7554ebf,6453c95dbedf32e478ba18cc,2023-05-04_17h04.13.996,ga_syllabified_check,2022.2.5,Win32,8.177818485,,,,,,,,,,,,,,./stim/p04_syllable_1_lakapiaisto_hit.wav,p04,lakapiaisto,hit,la-ka-piais-to,la-ka-piais-to,la-ka-pi-ais-to,la-ka-pia-is-to,-0.352222222,-0.103888889,1,0,0,0.9876,text_option_1,,0,192,192,50,1
5d60061e45714d00019ad6a4,63f3cfca20052e4ae7554ebf,6453c95dbedf32e478ba18cc,2023-05-04_17h04.13.996,ga_syllabified_check,2022.2.5,Win32,8.177818485,,,,,,,,,,,,,,./stim/p06_syllable_1_costonhialo_hit.wav,p06,costoñialo,hit,cos-to-nhia-lo,cos-to-ñia-lo,cos-to-ñi-a-lo, ,0.363888889,-0.096666667,1,0,0,1.1838,text_option_2,,0,193,193,103,1
5d60061e45714d00019ad6a4,63f3cfca20052e4ae7554ebf,6453c95dbedf32e478ba18cc,2023-05-04_17h04.13.996,ga_syllabified_check,2022.2.5,Win32,8.177818485,,,,,,,,,,,,,,./stim/p04_syllable_1_falufaisto_hit.wav,p04,falufaisto,hit,fa-lu-fais-to,fa-lu-fais-to,fa-lu-fa-is-to, ,-0.320555556,-0.105,1,0,0,0.1789,text_option_1,,0,194,194,37,1
5d60061e45714d00019ad6a4,63f3cfca20052e4ae7554ebf,6453c95dbedf32e478ba18cc,2023-05-04_17h04.13.996,ga_syllabified_check,2022.2.5,Win32,8.177818485,,,,,,,,,,,,,,./stim/p08_syllable_1_lakadiaisto_hit.wav,p08,lakadiaisto,hit,la-ka-di-jas-to,la-ka-diais-to,la-ka-di-ais-to,la-ka-dia-is-to,0.495555556,-0.120555556,1,0,0,3.9486,text_option_2,,0,195,195,178,1
5d60061e45714d00019ad6a4,63f3cfca20052e4ae7554ebf,6453c95dbedf32e478ba18cc,2023-05-04_17h04.13.996,ga_syllabified_check,2022.2.5,Win32,8.177818485,,,,,,,,,,,,,,./stim/p07_syllable_1_lakapiaisto_hit.wav,p07,lakapiaisto,hit,la-ka-pia-sto,la-ka-piais-to,la-ka-pi-ais-to,la-ka-pia-is-to,-0.350555556,-0.117777778,1,0,0,3.6257,text_option_1,,0,196,196,152,1
5d60061e45714d00019ad6a4,63f3cfca20052e4ae7554ebf,6453c95dbedf32e478ba18cc,2023-05-04_17h04.13.996,ga_syllabified_check,2022.2.5,Win32,8.177818485,,,,,,,,,,,,,,./stim/p07_syllable_1_lakapuaisto_hit.wav,p07,lakapuaisto,hit,la-ka-puais-to,la-ka-puais-to,la-ka-pu-ais-to,la-ka-pua-is-to,-0.350555556,-0.117777778,1,0,0,1.4934,text_option_1,,0,197,197,153,1
5d60061e45714d00019ad6a4,63f3cfca20052e4ae7554ebf,6453c95dbedf32e478ba18cc,2023-05-04_17h04.13.996,ga_syllabified_check,2022.2.5,Win32,8.177818485,,,,,,,,,,,,,,./stim/p07_syllable_1_lakakiaisto_hit.wav,p07,lakakiaisto,hit,la-ka-kais-to,la-ka-kiais-to,la-ka-ki-ais-to,la-ka-kia-is-to,-0.332222222,-0.098888889,1,0,0,0.8257,text_option_1,,0,198,198,150,1
5d60061e45714d00019ad6a4,63f3cfca20052e4ae7554ebf,6453c95dbedf32e478ba18cc,2023-05-04_17h04.13.996,ga_syllabified_check,2022.2.5,Win32,8.177818485,,,,,,,,,,,,,,./stim/p04_syllable_1_pachialo_hit.wav,p04,pachialo,hit,pa-chia-lo,pa-chia-lo,pa-chi-a-lo, ,-0.332222222,-0.098888889,1,0,0,0.1586,text_option_1,,0,199,199,58,1
5d60061e45714d00019ad6a4,63f3cfca20052e4ae7554ebf,6453c95dbedf32e478ba18cc,2023-05-04_17h04.13.996,ga_syllabified_check,2022.2.5,Win32,8.177818485,,,,,,,,,,,,,,./stim/p07_syllable_1_costonhialo_hit.wav,p07,costoñialo,hit,cos-to-nhia-lo,cos-to-ñia-lo,cos-to-ñi-a-lo, ,-0.332222222,-0.098888889,1,0,0,1.1601,text_option_1,,0,200,200,137,1
5d60061e45714d00019ad6a4,63f3cfca20052e4ae7554ebf,6453c95dbedf32e478ba18cc,2023-05-04_17h04.13.996,ga_syllabified_check,2022.2.5,Win32,8.177818485,,,,,,,,,,,,,,./stim/p05_syllable_1_lakapiaisto_hit.wav,p05,lakapiaisto,hit,la-ka-pais-to,la-ka-piais-to,la-ka-pi-ais-to,la-ka-pia-is-to,0.396111111,-0.108333333,1,0,0,3.7433,text_option_2,,0,201,201,84,1
5d60061e45714d00019ad6a4,63f3cfca20052e4ae7554ebf,6453c95dbedf32e478ba18cc,2023-05-04_17h04.13.996,ga_syllabified_check,2022.2.5,Win32,8.177818485,,,,,,,,,,,,,,./stim/p07_syllable_1_flauro_hit.wav,p07,flauro,hit,flau-ro,flau-ro,fla-u-ro, ,-0.38,-0.087777778,1,0,0,0.5283,text_option_1,,0,202,202,141,1
5d60061e45714d00019ad6a4,63f3cfca20052e4ae7554ebf,6453c95dbedf32e478ba18cc,2023-05-04_17h04.13.996,ga_syllabified_check,2022.2.5,Win32,8.177818485,,,,,,,,,,,,,,./stim/p08_syllable_1_mebochiana_hit.wav,p08,mebochiana,hit,me-bo-chi-a-na,me-bo-chia-na,me-bo-chi-a-na, ,0.445,-0.106666667,1,0,0,2.1412,text_option_2,,0,203,203,192,1
5d60061e45714d00019ad6a4,63f3cfca20052e4ae7554ebf,6453c95dbedf32e478ba18cc,2023-05-04_17h04.13.996,ga_syllabified_check,2022.2.5,Win32,8.177818485,,,,,,,,,,,,,,,,,,,,,,,,,,,,,,,,,,
