participant,study,session,date,expName,psychopyVersion,OS,frameRate,mouse_practice.x,mouse_practice.y,mouse_practice.leftButton,mouse_practice.midButton,mouse_practice.rightButton,mouse_practice.time,mouse_practice.clicked_name,textbox_followup_practice.text,trials_practice.thisRepN,trials_practice.thisTrialN,trials_practice.thisN,trials_practice.thisIndex,trials_practice.ran,file_path,id,item,status,response,op1,op2,op3,mouse.x,mouse.y,mouse.leftButton,mouse.midButton,mouse.rightButton,mouse.time,mouse.clicked_name,textbox_followup.text,trials.thisRepN,trials.thisTrialN,trials.thisN,trials.thisIndex,trials.ran
5e13814a1e2e589ca3a4aec2,63f3cfca20052e4ae7554ebf,6453cbc5ffd1e27fda820a93,2023-05-04_17h15.31.063,ga_syllabified_check,2022.2.5,Win32,60.26637739,,,,,,,,,,,,,,,,,,,,,,,,,,,,,,,,,,
5e13814a1e2e589ca3a4aec2,63f3cfca20052e4ae7554ebf,6453cbc5ffd1e27fda820a93,2023-05-04_17h15.31.063,ga_syllabified_check,2022.2.5,Win32,60.26637739,-0.392592593,-0.109259259,1,0,0,2.1503,text_option_1_practice,,0,0,0,0,1,./stim/p03_syllable_1_liamo_hit.wav,p03,liamo,hit,lia-mo,lia-mo,li-a-mo, ,,,,,,,,,,,,,
5e13814a1e2e589ca3a4aec2,63f3cfca20052e4ae7554ebf,6453cbc5ffd1e27fda820a93,2023-05-04_17h15.31.063,ga_syllabified_check,2022.2.5,Win32,60.26637739,-0.392592593,-0.109259259,1,0,0,1.2833,text_option_1_practice,,0,1,1,1,1,./stim/p05_syllable_1_matio_hit.wav,p05,matio,hit,ma-tio,ma-tio,ma-ti-o, ,,,,,,,,,,,,,
5e13814a1e2e589ca3a4aec2,63f3cfca20052e4ae7554ebf,6453cbc5ffd1e27fda820a93,2023-05-04_17h15.31.063,ga_syllabified_check,2022.2.5,Win32,60.26637739,0.414814815,-0.12037037,1,0,0,4.0672,text_option_2_practice,,0,2,2,2,1,./stim/p08_syllable_1_liamo_hit.wav,p08,liamo,hit,ja-mo,lia-mo,li-a-mo, ,,,,,,,,,,,,,
5e13814a1e2e589ca3a4aec2,63f3cfca20052e4ae7554ebf,6453cbc5ffd1e27fda820a93,2023-05-04_17h15.31.063,ga_syllabified_check,2022.2.5,Win32,60.26637739,,,,,,,,,,,,,,,,,,,,,,,,,,,,,,,,,,
5e13814a1e2e589ca3a4aec2,63f3cfca20052e4ae7554ebf,6453cbc5ffd1e27fda820a93,2023-05-04_17h15.31.063,ga_syllabified_check,2022.2.5,Win32,60.26637739,,,,,,,,,,,,,,./stim/p06_syllable_1_manhiala_hit.wav,p06,mañiala,hit,ma-nhi-a-la,ma-ñia-la,ma-ñi-a-la, ,0.410185185,-0.096296296,1,0,0,3.0841,text_option_2,,0,0,0,123,1
5e13814a1e2e589ca3a4aec2,63f3cfca20052e4ae7554ebf,6453cbc5ffd1e27fda820a93,2023-05-04_17h15.31.063,ga_syllabified_check,2022.2.5,Win32,60.26637739,,,,,,,,,,,,,,./stim/p07_syllable_1_faluduako_hit.wav,p07,faluduako,hit,fa-lu-dua-ko,fa-lu-dua-ko,fa-lu-du-a-ko, ,-0.384259259,-0.097222222,1,0,0,3.534,text_option_1,,0,1,1,138,1
5e13814a1e2e589ca3a4aec2,63f3cfca20052e4ae7554ebf,6453cbc5ffd1e27fda820a93,2023-05-04_17h15.31.063,ga_syllabified_check,2022.2.5,Win32,60.26637739,,,,,,,,,,,,,,./stim/p05_syllable_1_palufauto_hit.wav,p05,palufauto,hit,pa-lu-fau-to,pa-lu-fau-to,pa-lu-fa-u-to, ,-0.384259259,-0.097222222,1,0,0,3.1342,text_option_1,,0,2,2,94,1
5e13814a1e2e589ca3a4aec2,63f3cfca20052e4ae7554ebf,6453cbc5ffd1e27fda820a93,2023-05-04_17h15.31.063,ga_syllabified_check,2022.2.5,Win32,60.26637739,,,,,,,,,,,,,,./stim/p03_syllable_1_lakabiaisto_hit.wav,p03,lakabiaisto,hit,la-ka-biais-to,la-ka-biais-to,la-ka-bi-ais-to,la-ka-bia-is-to,-0.406481481,-0.105555556,1,0,0,4.4009,text_option_1,,0,3,3,6,1
5e13814a1e2e589ca3a4aec2,63f3cfca20052e4ae7554ebf,6453cbc5ffd1e27fda820a93,2023-05-04_17h15.31.063,ga_syllabified_check,2022.2.5,Win32,60.26637739,,,,,,,,,,,,,,./stim/p07_syllable_1_tuliafo_hit.wav,p07,tuliafo,hit,tu-lia-fo,tu-lia-fo,tu-li-a-fo, ,-0.406481481,-0.105555556,1,0,0,2.0538,text_option_1,,0,4,4,169,1
5e13814a1e2e589ca3a4aec2,63f3cfca20052e4ae7554ebf,6453cbc5ffd1e27fda820a93,2023-05-04_17h15.31.063,ga_syllabified_check,2022.2.5,Win32,60.26637739,,,,,,,,,,,,,,./stim/p06_syllable_1_lakatiaisto_hit.wav,p06,lakatiaisto,hit,la-ka-pia-is-to,la-ka-tiais-to,la-ka-ti-ais-to,la-ka-tia-is-to,-0.006481481,-0.099074074,1,0,0,5.6011,text_option_3,,0,5,5,120,1
5e13814a1e2e589ca3a4aec2,63f3cfca20052e4ae7554ebf,6453cbc5ffd1e27fda820a93,2023-05-04_17h15.31.063,ga_syllabified_check,2022.2.5,Win32,60.26637739,,,,,,,,,,,,,,./stim/p06_syllable_1_palufauro_hit.wav,p06,palufauro,hit,pa-lu-fau-ro,pa-lu-fau-ro,pa-lu-fa-u-ro, ,0.416666667,-0.102777778,1,0,0,5.2005,text_option_2,,0,6,6,127,1
5e13814a1e2e589ca3a4aec2,63f3cfca20052e4ae7554ebf,6453cbc5ffd1e27fda820a93,2023-05-04_17h15.31.063,ga_syllabified_check,2022.2.5,Win32,60.26637739,,,,,,,,,,,,,,./stim/p08_syllable_1_lakatuaisto_hit.wav,p08,lakatuaisto,hit,la-ka-tu-i-jis,la-ka-tuais-to,la-ka-tu-ais-to,la-ka-tua-is-to,-0.007407407,-0.1,1,0,0,6.3847,text_option_3,,0,7,7,189,1
5e13814a1e2e589ca3a4aec2,63f3cfca20052e4ae7554ebf,6453cbc5ffd1e27fda820a93,2023-05-04_17h15.31.063,ga_syllabified_check,2022.2.5,Win32,60.26637739,,,,,,,,,,,,,,./stim/p08_syllable_1_lliape_hit.wav,p08,lliape,hit,li-a-pe,llia-pe,lli-a-pe, ,-0.397222222,-0.087037037,1,0,0,2.3972,text_option_1,,0,8,8,190,1
5e13814a1e2e589ca3a4aec2,63f3cfca20052e4ae7554ebf,6453cbc5ffd1e27fda820a93,2023-05-04_17h15.31.063,ga_syllabified_check,2022.2.5,Win32,60.26637739,,,,,,,,,,,,,,./stim/p08_syllable_1_palufauro_hit.wav,p08,palufauro,hit,pa-lu-fau-ro,pa-lu-fau-ro,pa-lu-fa-u-ro, ,-0.407407407,-0.107407407,1,0,0,3.8669,text_option_1,,0,9,9,195,1
5e13814a1e2e589ca3a4aec2,63f3cfca20052e4ae7554ebf,6453cbc5ffd1e27fda820a93,2023-05-04_17h15.31.063,ga_syllabified_check,2022.2.5,Win32,60.26637739,,,,,,,,,,,,,,./stim/p08_syllable_1_lakafiaisto_hit.wav,p08,lakafiaisto,hit,la-ka-fi-as-to,la-ka-fiais-to,la-ka-fi-ais-to,la-ka-fia-is-to,-0.356481481,-0.10462963,1,0,0,4.6672,text_option_1,,0,10,10,180,1
5e13814a1e2e589ca3a4aec2,63f3cfca20052e4ae7554ebf,6453cbc5ffd1e27fda820a93,2023-05-04_17h15.31.063,ga_syllabified_check,2022.2.5,Win32,60.26637739,,,,,,,,,,,,,,./stim/p07_syllable_1_lakatiaisto_hit.wav,p07,lakatiaisto,hit,la-ka-tiai-sto,la-ka-tiais-to,la-ka-ti-ais-to,la-ka-tia-is-to,-0.387037037,-0.107407407,1,0,0,4.6838,text_option_1,,0,11,11,154,1
5e13814a1e2e589ca3a4aec2,63f3cfca20052e4ae7554ebf,6453cbc5ffd1e27fda820a93,2023-05-04_17h15.31.063,ga_syllabified_check,2022.2.5,Win32,60.26637739,,,,,,,,,,,,,,./stim/p05_syllable_1_paluguato_hit.wav,p05,paluguato,hit,pa-lu-gau-to,pa-lu-gua-to,pa-lu-gu-a-to, ,-0.428703704,-0.094444444,1,0,0,2.7337,text_option_1,,0,12,12,95,1
5e13814a1e2e589ca3a4aec2,63f3cfca20052e4ae7554ebf,6453cbc5ffd1e27fda820a93,2023-05-04_17h15.31.063,ga_syllabified_check,2022.2.5,Win32,60.26637739,,,,,,,,,,,,,,./stim/p05_syllable_1_palufauro_hit.wav,p05,palufauro,hit,pa-lu-fau-ro,pa-lu-fau-ro,pa-lu-fa-u-ro, ,-0.377777778,-0.097222222,1,0,0,2.3502,text_option_1,,0,13,13,93,1
5e13814a1e2e589ca3a4aec2,63f3cfca20052e4ae7554ebf,6453cbc5ffd1e27fda820a93,2023-05-04_17h15.31.063,ga_syllabified_check,2022.2.5,Win32,60.26637739,,,,,,,,,,,,,,./stim/p05_syllable_1_lakabiaisto_hit.wav,p05,lakabiaisto,hit,la-ka-bi-ais-to,la-ka-biais-to,la-ka-bi-ais-to,la-ka-bia-is-to,-0.037037037,-0.100925926,1,0,0,5.7676,text_option_3,,0,14,14,74,1
5e13814a1e2e589ca3a4aec2,63f3cfca20052e4ae7554ebf,6453cbc5ffd1e27fda820a93,2023-05-04_17h15.31.063,ga_syllabified_check,2022.2.5,Win32,60.26637739,,,,,,,,,,,,,,./stim/p07_syllable_1_falufaisto_hit.wav,p07,falufaisto,hit,fa-lu-fais-to,fa-lu-fais-to,fa-lu-fa-is-to, ,-0.396296296,-0.09537037,1,0,0,2.8206,text_option_1,,0,15,15,139,1
5e13814a1e2e589ca3a4aec2,63f3cfca20052e4ae7554ebf,6453cbc5ffd1e27fda820a93,2023-05-04_17h15.31.063,ga_syllabified_check,2022.2.5,Win32,60.26637739,,,,,,,,,,,,,,./stim/p03_syllable_1_ruyiola_hit.wav,p03,ruyiola,hit,ru-yio-la,ru-yio-la,ru-yi-o-la, ,-0.396296296,-0.10462963,1,0,0,1.6843,text_option_1,,0,16,16,32,1
5e13814a1e2e589ca3a4aec2,63f3cfca20052e4ae7554ebf,6453cbc5ffd1e27fda820a93,2023-05-04_17h15.31.063,ga_syllabified_check,2022.2.5,Win32,60.26637739,,,,,,,,,,,,,,./stim/p05_syllable_1_pachialo_hit.wav,p05,pachialo,hit,pan-chia-lo,pa-chia-lo,pa-chi-a-lo, ,-0.397222222,-0.097222222,1,0,0,1.5675,text_option_1,,0,17,17,92,1
5e13814a1e2e589ca3a4aec2,63f3cfca20052e4ae7554ebf,6453cbc5ffd1e27fda820a93,2023-05-04_17h15.31.063,ga_syllabified_check,2022.2.5,Win32,60.26637739,,,,,,,,,,,,,,./stim/p03_syllable_1_palufauto_hit.wav,p03,palufauto,hit,pa-lu-fau,pa-lu-fau-to,pa-lu-fa-u-to, ,-0.390740741,-0.10462963,1,0,0,3.1,text_option_1,,0,18,18,26,1
5e13814a1e2e589ca3a4aec2,63f3cfca20052e4ae7554ebf,6453cbc5ffd1e27fda820a93,2023-05-04_17h15.31.063,ga_syllabified_check,2022.2.5,Win32,60.26637739,,,,,,,,,,,,,,./stim/p03_syllable_1_lakaduaisto_hit.wav,p03,lakaduaisto,hit,la-ka-duais-to,la-ka-duais-to,la-ka-du-ais-to,la-ka-dua-is-to,-0.393518519,-0.096296296,1,0,0,2.6837,text_option_1,,0,19,19,9,1
5e13814a1e2e589ca3a4aec2,63f3cfca20052e4ae7554ebf,6453cbc5ffd1e27fda820a93,2023-05-04_17h15.31.063,ga_syllabified_check,2022.2.5,Win32,60.26637739,,,,,,,,,,,,,,./stim/p05_syllable_1_lakapuaisto_hit.wav,p05,lakapuaisto,hit,la-ka-pais-to,la-ka-puais-to,la-ka-pu-ais-to,la-ka-pua-is-to,-0.342592593,-0.103703704,1,0,0,6.2342,text_option_1,,0,20,20,85,1
5e13814a1e2e589ca3a4aec2,63f3cfca20052e4ae7554ebf,6453cbc5ffd1e27fda820a93,2023-05-04_17h15.31.063,ga_syllabified_check,2022.2.5,Win32,60.26637739,,,,,,,,,,,,,,./stim/p07_syllable_1_lakafuaisto_hit.wav,p07,lakafuaisto,hit,la-ka-fuais-to,la-ka-fuais-to,la-ka-fu-ais-to,la-ka-fua-is-to,-0.365740741,-0.099074074,1,0,0,3.134,text_option_1,,0,21,21,147,1
5e13814a1e2e589ca3a4aec2,63f3cfca20052e4ae7554ebf,6453cbc5ffd1e27fda820a93,2023-05-04_17h15.31.063,ga_syllabified_check,2022.2.5,Win32,60.26637739,,,,,,,,,,,,,,./stim/p04_syllable_1_mebochiana_hit.wav,p04,mebochiana,hit,me-bo-chia-na,me-bo-chia-na,me-bo-chi-a-na, ,-0.375,-0.09537037,1,0,0,2.9175,text_option_1,,0,22,22,56,1
5e13814a1e2e589ca3a4aec2,63f3cfca20052e4ae7554ebf,6453cbc5ffd1e27fda820a93,2023-05-04_17h15.31.063,ga_syllabified_check,2022.2.5,Win32,60.26637739,,,,,,,,,,,,,,./stim/p04_syllable_1_lakakiaisto_hit.wav,p04,lakakiaisto,hit,la-ka-kiais-to,la-ka-kiais-to,la-ka-ki-ais-to,la-ka-kia-is-to,-0.340740741,-0.099074074,1,0,0,2.3171,text_option_1,,0,23,23,48,1
5e13814a1e2e589ca3a4aec2,63f3cfca20052e4ae7554ebf,6453cbc5ffd1e27fda820a93,2023-05-04_17h15.31.063,ga_syllabified_check,2022.2.5,Win32,60.26637739,,,,,,,,,,,,,,./stim/p07_syllable_1_lakakuaisto_hit.wav,p07,lakakuaisto,hit,la-ka-kuais-to,la-ka-kuais-to,la-ka-ku-ais-to,la-ka-kua-is-to,-0.390740741,-0.099074074,1,0,0,3.1203,text_option_1,,0,24,24,151,1
5e13814a1e2e589ca3a4aec2,63f3cfca20052e4ae7554ebf,6453cbc5ffd1e27fda820a93,2023-05-04_17h15.31.063,ga_syllabified_check,2022.2.5,Win32,60.26637739,,,,,,,,,,,,,,./stim/p04_syllable_1_palutrauco_hit.wav,p04,palutrauco,hit,pa-lu-trau-co,pa-lu-trau-co,pa-lu-tra-u-co, ,-0.405555556,-0.101851852,1,0,0,2.1666,text_option_1,,0,25,25,63,1
5e13814a1e2e589ca3a4aec2,63f3cfca20052e4ae7554ebf,6453cbc5ffd1e27fda820a93,2023-05-04_17h15.31.063,ga_syllabified_check,2022.2.5,Win32,60.26637739,,,,,,,,,,,,,,./stim/p06_syllable_1_falutraigo_hit.wav,p06,falutraigo,hit,fa-lu-tra-i-go,fa-lu-trai-go,fa-lu-tra-i-go, ,0.400925926,-0.105555556,1,0,0,4.8344,text_option_2,,0,26,26,106,1
5e13814a1e2e589ca3a4aec2,63f3cfca20052e4ae7554ebf,6453cbc5ffd1e27fda820a93,2023-05-04_17h15.31.063,ga_syllabified_check,2022.2.5,Win32,60.26637739,,,,,,,,,,,,,,./stim/p03_syllable_1_flauro_hit.wav,p03,flauro,hit,flau-ro,flau-ro,fla-u-ro, ,-0.402777778,-0.100925926,1,0,0,1.2833,text_option_1,,0,27,27,5,1
5e13814a1e2e589ca3a4aec2,63f3cfca20052e4ae7554ebf,6453cbc5ffd1e27fda820a93,2023-05-04_17h15.31.063,ga_syllabified_check,2022.2.5,Win32,60.26637739,,,,,,,,,,,,,,./stim/p08_syllable_1_costonhialo_hit.wav,p08,costoñialo,hit,cos-to-nhia-lo,cos-to-ñia-lo,cos-to-ñi-a-lo, ,-0.382407407,-0.093518519,1,0,0,4.3839,text_option_1,,0,28,28,171,1
5e13814a1e2e589ca3a4aec2,63f3cfca20052e4ae7554ebf,6453cbc5ffd1e27fda820a93,2023-05-04_17h15.31.063,ga_syllabified_check,2022.2.5,Win32,60.26637739,,,,,,,,,,,,,,./stim/p04_syllable_1_palufauto_hit.wav,p04,palufauto,hit,pa-lu-fau-to,pa-lu-fau-to,pa-lu-fa-u-to, ,-0.341666667,-0.093518519,1,0,0,4.1508,text_option_1,,0,29,29,60,1
5e13814a1e2e589ca3a4aec2,63f3cfca20052e4ae7554ebf,6453cbc5ffd1e27fda820a93,2023-05-04_17h15.31.063,ga_syllabified_check,2022.2.5,Win32,60.26637739,,,,,,,,,,,,,,./stim/p04_syllable_1_paluguato_hit.wav,p04,paluguato,hit,pa-lu-gua,pa-lu-gua-to,pa-lu-gu-a-to, ,-0.049074074,-0.293518519,1,0,0,4.651,text_option_other,palugua,0,30,30,61,1
5e13814a1e2e589ca3a4aec2,63f3cfca20052e4ae7554ebf,6453cbc5ffd1e27fda820a93,2023-05-04_17h15.31.063,ga_syllabified_check,2022.2.5,Win32,60.26637739,,,,,,,,,,,,,,./stim/p03_syllable_1_faluduako_hit.wav,p03,faluduako,hit,fa-lu-dua-ko,fa-lu-dua-ko,fa-lu-du-a-ko, ,-0.375925926,-0.1,1,0,0,3.1012,text_option_1,,0,31,31,2,1
5e13814a1e2e589ca3a4aec2,63f3cfca20052e4ae7554ebf,6453cbc5ffd1e27fda820a93,2023-05-04_17h15.31.063,ga_syllabified_check,2022.2.5,Win32,60.26637739,,,,,,,,,,,,,,./stim/p04_syllable_1_rausto_hit.wav,p04,rausto,hit,raus-to,raus-to,ra-us-to, ,-0.385185185,-0.098148148,1,0,0,1.1965,text_option_1,,0,32,32,65,1
5e13814a1e2e589ca3a4aec2,63f3cfca20052e4ae7554ebf,6453cbc5ffd1e27fda820a93,2023-05-04_17h15.31.063,ga_syllabified_check,2022.2.5,Win32,60.26637739,,,,,,,,,,,,,,./stim/p05_syllable_1_lakabuaisto_hit.wav,p05,lakabuaisto,hit,la-ka-buais-to,la-ka-buais-to,la-ka-bu-ais-to,la-ka-bua-is-to,-0.384259259,-0.102777778,1,0,0,3.6186,text_option_1,,0,33,33,75,1
5e13814a1e2e589ca3a4aec2,63f3cfca20052e4ae7554ebf,6453cbc5ffd1e27fda820a93,2023-05-04_17h15.31.063,ga_syllabified_check,2022.2.5,Win32,60.26637739,,,,,,,,,,,,,,./stim/p07_syllable_1_paluguato_hit.wav,p07,paluguato,hit,pa-lu-gua-to,pa-lu-gua-to,pa-lu-gu-a-to, ,-0.387037037,-0.110185185,1,0,0,4.2998,text_option_1,,0,34,34,163,1
5e13814a1e2e589ca3a4aec2,63f3cfca20052e4ae7554ebf,6453cbc5ffd1e27fda820a93,2023-05-04_17h15.31.063,ga_syllabified_check,2022.2.5,Win32,60.26637739,,,,,,,,,,,,,,./stim/p06_syllable_1_lakatuaisto_hit.wav,p06,lakatuaisto,hit,la-ka-tu-a-is,la-ka-tuais-to,la-ka-tu-ais-to,la-ka-tua-is-to,0.021296296,-0.105555556,1,0,0,4.8171,text_option_3,,0,35,35,121,1
5e13814a1e2e589ca3a4aec2,63f3cfca20052e4ae7554ebf,6453cbc5ffd1e27fda820a93,2023-05-04_17h15.31.063,ga_syllabified_check,2022.2.5,Win32,60.26637739,,,,,,,,,,,,,,./stim/p03_syllable_1_chiaba_hit.wav,p03,chiaba,hit,chia-ba,chia-ba,chi-a-ba, ,-0.386111111,-0.100925926,1,0,0,1.2969,text_option_1,,0,36,36,0,1
5e13814a1e2e589ca3a4aec2,63f3cfca20052e4ae7554ebf,6453cbc5ffd1e27fda820a93,2023-05-04_17h15.31.063,ga_syllabified_check,2022.2.5,Win32,60.26637739,,,,,,,,,,,,,,./stim/p05_syllable_1_lakafiaisto_hit.wav,p05,lakafiaisto,hit,la-ka-fi-ais-to,la-ka-fiais-to,la-ka-fi-ais-to,la-ka-fia-is-to,-0.380555556,-0.097222222,1,0,0,5.7838,text_option_1,,0,37,37,78,1
5e13814a1e2e589ca3a4aec2,63f3cfca20052e4ae7554ebf,6453cbc5ffd1e27fda820a93,2023-05-04_17h15.31.063,ga_syllabified_check,2022.2.5,Win32,60.26637739,,,,,,,,,,,,,,./stim/p08_syllable_1_palumaisto_hit.wav,p08,palumaisto,hit,pa-lu-mais-to,pa-lu-mais-to,pa-lu-ma-is-to, ,-0.381481481,-0.107407407,1,0,0,3.6503,text_option_1,,0,38,38,198,1
5e13814a1e2e589ca3a4aec2,63f3cfca20052e4ae7554ebf,6453cbc5ffd1e27fda820a93,2023-05-04_17h15.31.063,ga_syllabified_check,2022.2.5,Win32,60.26637739,,,,,,,,,,,,,,./stim/p08_syllable_1_chiaba_hit.wav,p08,chiaba,hit,chi-a-ba,chia-ba,chi-a-ba, ,0.389814815,-0.103703704,1,0,0,4.0848,text_option_2,,0,39,39,170,1
5e13814a1e2e589ca3a4aec2,63f3cfca20052e4ae7554ebf,6453cbc5ffd1e27fda820a93,2023-05-04_17h15.31.063,ga_syllabified_check,2022.2.5,Win32,60.26637739,,,,,,,,,,,,,,./stim/p08_syllable_1_falutraigo_hit.wav,p08,falutraigo,hit,fa-lu-trai-go,fa-lu-trai-go,fa-lu-tra-i-go, ,0.469444444,-0.108333333,1,0,0,5.0173,text_option_2,,0,40,40,174,1
5e13814a1e2e589ca3a4aec2,63f3cfca20052e4ae7554ebf,6453cbc5ffd1e27fda820a93,2023-05-04_17h15.31.063,ga_syllabified_check,2022.2.5,Win32,60.26637739,,,,,,,,,,,,,,./stim/p04_syllable_1_chiaba_hit.wav,p04,chiaba,hit,chia-ba,chia-ba,chi-a-ba, ,-0.392592593,-0.096296296,1,0,0,1.3666,text_option_1,,0,41,41,34,1
5e13814a1e2e589ca3a4aec2,63f3cfca20052e4ae7554ebf,6453cbc5ffd1e27fda820a93,2023-05-04_17h15.31.063,ga_syllabified_check,2022.2.5,Win32,60.26637739,,,,,,,,,,,,,,./stim/p07_syllable_1_rausto_hit.wav,p07,rausto,hit,raus-to,raus-to,ra-us-to, ,-0.40462963,-0.107407407,1,0,0,1.9132,text_option_1,,0,42,42,167,1
5e13814a1e2e589ca3a4aec2,63f3cfca20052e4ae7554ebf,6453cbc5ffd1e27fda820a93,2023-05-04_17h15.31.063,ga_syllabified_check,2022.2.5,Win32,60.26637739,,,,,,,,,,,,,,./stim/p08_syllable_1_faluduako_hit.wav,p08,faluduako,hit,fa-lu-duai-ko,fa-lu-dua-ko,fa-lu-du-a-ko, ,0.024074074,-0.311111111,1,0,0,6.1504,text_option_other,faluduaiko,0,43,43,172,1
5e13814a1e2e589ca3a4aec2,63f3cfca20052e4ae7554ebf,6453cbc5ffd1e27fda820a93,2023-05-04_17h15.31.063,ga_syllabified_check,2022.2.5,Win32,60.26637739,,,,,,,,,,,,,,./stim/p06_syllable_1_flauro_hit.wav,p06,flauro,hit,fla-u-ro,flau-ro,fla-u-ro, ,0.412037037,-0.101851852,1,0,0,2.268,text_option_2,,0,44,44,107,1
5e13814a1e2e589ca3a4aec2,63f3cfca20052e4ae7554ebf,6453cbc5ffd1e27fda820a93,2023-05-04_17h15.31.063,ga_syllabified_check,2022.2.5,Win32,60.26637739,,,,,,,,,,,,,,./stim/p03_syllable_1_costonhialo_hit.wav,p03,costoñialo,hit,cos-to-nhia-lo,cos-to-ñia-lo,cos-to-ñi-a-lo, ,-0.349074074,-0.111111111,1,0,0,6.1513,text_option_1,,0,45,45,1,1
5e13814a1e2e589ca3a4aec2,63f3cfca20052e4ae7554ebf,6453cbc5ffd1e27fda820a93,2023-05-04_17h15.31.063,ga_syllabified_check,2022.2.5,Win32,60.26637739,,,,,,,,,,,,,,./stim/p06_syllable_1_chiaba_hit.wav,p06,chiaba,hit,chi-a-ba,chia-ba,chi-a-ba, ,0.366666667,-0.106481481,1,0,0,2.8671,text_option_2,,0,46,46,102,1
5e13814a1e2e589ca3a4aec2,63f3cfca20052e4ae7554ebf,6453cbc5ffd1e27fda820a93,2023-05-04_17h15.31.063,ga_syllabified_check,2022.2.5,Win32,60.26637739,,,,,,,,,,,,,,./stim/p05_syllable_1_nhiape_hit.wav,p05,ñiape,hit,nhia-pe,ñia-pe,ñi-a-pe, ,-0.390740741,-0.098148148,1,0,0,1.5039,text_option_1,,0,47,47,91,1
5e13814a1e2e589ca3a4aec2,63f3cfca20052e4ae7554ebf,6453cbc5ffd1e27fda820a93,2023-05-04_17h15.31.063,ga_syllabified_check,2022.2.5,Win32,60.26637739,,,,,,,,,,,,,,./stim/p08_syllable_1_tuliafo_hit.wav,p08,tuliafo,hit,tu-li-a-fo,tu-lia-fo,tu-li-a-fo, ,0.39537037,-0.096296296,1,0,0,2.4837,text_option_2,,0,48,48,203,1
5e13814a1e2e589ca3a4aec2,63f3cfca20052e4ae7554ebf,6453cbc5ffd1e27fda820a93,2023-05-04_17h15.31.063,ga_syllabified_check,2022.2.5,Win32,60.26637739,,,,,,,,,,,,,,./stim/p05_syllable_1_palumaisto_hit.wav,p05,palumaisto,hit,pa-lu-mais-to,pa-lu-mais-to,pa-lu-ma-is-to, ,-0.355555556,-0.106481481,1,0,0,5.7175,text_option_1,,0,49,49,96,1
5e13814a1e2e589ca3a4aec2,63f3cfca20052e4ae7554ebf,6453cbc5ffd1e27fda820a93,2023-05-04_17h15.31.063,ga_syllabified_check,2022.2.5,Win32,60.26637739,,,,,,,,,,,,,,./stim/p04_syllable_1_manhiala_hit.wav,p04,mañiala,hit,ma-nhia-la,ma-ñia-la,ma-ñi-a-la, ,-0.407407407,-0.093518519,1,0,0,3.0668,text_option_1,,0,50,50,55,1
5e13814a1e2e589ca3a4aec2,63f3cfca20052e4ae7554ebf,6453cbc5ffd1e27fda820a93,2023-05-04_17h15.31.063,ga_syllabified_check,2022.2.5,Win32,60.26637739,,,,,,,,,,,,,,./stim/p06_syllable_1_mebochiana_hit.wav,p06,mebochiana,hit,me-bo-shi-a-na,me-bo-chia-na,me-bo-chi-a-na, ,0.434259259,-0.10462963,1,0,0,3.8631,text_option_2,,0,51,51,124,1
5e13814a1e2e589ca3a4aec2,63f3cfca20052e4ae7554ebf,6453cbc5ffd1e27fda820a93,2023-05-04_17h15.31.063,ga_syllabified_check,2022.2.5,Win32,60.26637739,,,,,,,,,,,,,,./stim/p06_syllable_1_lakagiaisto_hit.wav,p06,lakagiaisto,hit,la-ka-gia-is-to,la-ka-giais-to,la-ka-gi-ais-to,la-ka-gia-is-to,-0.037962963,-0.096296296,1,0,0,5.6007,text_option_3,,0,52,52,114,1
5e13814a1e2e589ca3a4aec2,63f3cfca20052e4ae7554ebf,6453cbc5ffd1e27fda820a93,2023-05-04_17h15.31.063,ga_syllabified_check,2022.2.5,Win32,60.26637739,,,,,,,,,,,,,,./stim/p06_syllable_1_lakadiaisto_hit.wav,p06,lakadiaisto,hit,la-ka-dia-is-to,la-ka-diais-to,la-ka-di-ais-to,la-ka-dia-is-to,-0.010185185,-0.101851852,1,0,0,3.3876,text_option_3,,0,53,53,110,1
5e13814a1e2e589ca3a4aec2,63f3cfca20052e4ae7554ebf,6453cbc5ffd1e27fda820a93,2023-05-04_17h15.31.063,ga_syllabified_check,2022.2.5,Win32,60.26637739,,,,,,,,,,,,,,./stim/p08_syllable_1_lakapuaisto_hit.wav,p08,lakapuaisto,hit,la-ka-pu-as-to,la-ka-puais-to,la-ka-pu-ais-to,la-ka-pua-is-to,-0.057407407,-0.301851852,1,0,0,5.7839,text_option_other,lakapuasto,0,54,54,187,1
5e13814a1e2e589ca3a4aec2,63f3cfca20052e4ae7554ebf,6453cbc5ffd1e27fda820a93,2023-05-04_17h15.31.063,ga_syllabified_check,2022.2.5,Win32,60.26637739,,,,,,,,,,,,,,./stim/p03_syllable_1_paluguato_hit.wav,p03,paluguato,hit,pa-lu-gua,pa-lu-gua-to,pa-lu-gu-a-to, ,-0.364814815,-0.103703704,1,0,0,3.1141,text_option_1,,0,55,55,27,1
5e13814a1e2e589ca3a4aec2,63f3cfca20052e4ae7554ebf,6453cbc5ffd1e27fda820a93,2023-05-04_17h15.31.063,ga_syllabified_check,2022.2.5,Win32,60.26637739,,,,,,,,,,,,,,./stim/p06_syllable_1_lakapiaisto_hit.wav,p06,lakapiaisto,hit,la-ka-pia-is-to,la-ka-piais-to,la-ka-pi-ais-to,la-ka-pia-is-to,0.000925926,-0.098148148,1,0,0,5.5637,text_option_3,,0,56,56,118,1
5e13814a1e2e589ca3a4aec2,63f3cfca20052e4ae7554ebf,6453cbc5ffd1e27fda820a93,2023-05-04_17h15.31.063,ga_syllabified_check,2022.2.5,Win32,60.26637739,,,,,,,,,,,,,,./stim/p07_syllable_1_nhiape_hit.wav,p07,ñiape,hit,nhia-pe,ñia-pe,ñi-a-pe, ,-0.403703704,-0.102777778,1,0,0,1.4185,text_option_1,,0,57,57,159,1
5e13814a1e2e589ca3a4aec2,63f3cfca20052e4ae7554ebf,6453cbc5ffd1e27fda820a93,2023-05-04_17h15.31.063,ga_syllabified_check,2022.2.5,Win32,60.26637739,,,,,,,,,,,,,,./stim/p07_syllable_1_lakadiaisto_hit.wav,p07,lakadiaisto,hit,la-ka-dia-is-to,la-ka-diais-to,la-ka-di-ais-to,la-ka-dia-is-to,0.000925926,-0.101851852,1,0,0,3.1475,text_option_3,,0,58,58,144,1
5e13814a1e2e589ca3a4aec2,63f3cfca20052e4ae7554ebf,6453cbc5ffd1e27fda820a93,2023-05-04_17h15.31.063,ga_syllabified_check,2022.2.5,Win32,60.26637739,,,,,,,,,,,,,,./stim/p08_syllable_1_lakatiaisto_hit.wav,p08,lakatiaisto,hit,la-ka-ti-as-to,la-ka-tiais-to,la-ka-ti-ais-to,la-ka-tia-is-to,0.012962963,-0.29537037,1,0,0,5.1477,text_option_other,lakatiasto,0,59,59,188,1
5e13814a1e2e589ca3a4aec2,63f3cfca20052e4ae7554ebf,6453cbc5ffd1e27fda820a93,2023-05-04_17h15.31.063,ga_syllabified_check,2022.2.5,Win32,60.26637739,,,,,,,,,,,,,,./stim/p07_syllable_1_lakaguaisto_hit.wav,p07,lakaguaisto,hit,la-ka-guais-to,la-ka-guais-to,la-ka-gu-ais-to,la-ka-gua-is-to,-0.394444444,-0.109259259,1,0,0,4.2161,text_option_1,,0,60,60,149,1
5e13814a1e2e589ca3a4aec2,63f3cfca20052e4ae7554ebf,6453cbc5ffd1e27fda820a93,2023-05-04_17h15.31.063,ga_syllabified_check,2022.2.5,Win32,60.26637739,,,,,,,,,,,,,,./stim/p05_syllable_1_lakagiaisto_hit.wav,p05,lakagiaisto,hit,la-ka-ki-ais-to,la-ka-giais-to,la-ka-gi-ais-to,la-ka-gia-is-to,-0.375925926,-0.102777778,1,0,0,1.8665,text_option_1,,0,61,61,80,1
5e13814a1e2e589ca3a4aec2,63f3cfca20052e4ae7554ebf,6453cbc5ffd1e27fda820a93,2023-05-04_17h15.31.063,ga_syllabified_check,2022.2.5,Win32,60.26637739,,,,,,,,,,,,,,./stim/p07_syllable_1_mebochiana_hit.wav,p07,mebochiana,hit,me-bo-chia-na,me-bo-chia-na,me-bo-chi-a-na, ,-0.375925926,-0.10462963,1,0,0,4.217,text_option_1,,0,62,62,158,1
5e13814a1e2e589ca3a4aec2,63f3cfca20052e4ae7554ebf,6453cbc5ffd1e27fda820a93,2023-05-04_17h15.31.063,ga_syllabified_check,2022.2.5,Win32,60.26637739,,,,,,,,,,,,,,./stim/p08_syllable_1_pachialo_hit.wav,p08,pachialo,hit,pa-chi-ja-lo,pa-chia-lo,pa-chi-a-lo, ,0.392592593,-0.110185185,1,0,0,2.167,text_option_2,,0,63,63,194,1
5e13814a1e2e589ca3a4aec2,63f3cfca20052e4ae7554ebf,6453cbc5ffd1e27fda820a93,2023-05-04_17h15.31.063,ga_syllabified_check,2022.2.5,Win32,60.26637739,,,,,,,,,,,,,,./stim/p04_syllable_1_falutraigo_hit.wav,p04,falutraigo,hit,fa-lu-trai-go,fa-lu-trai-go,fa-lu-tra-i-go, ,-0.382407407,-0.109259259,1,0,0,2.8679,text_option_1,,0,64,64,38,1
5e13814a1e2e589ca3a4aec2,63f3cfca20052e4ae7554ebf,6453cbc5ffd1e27fda820a93,2023-05-04_17h15.31.063,ga_syllabified_check,2022.2.5,Win32,60.26637739,,,,,,,,,,,,,,./stim/p05_syllable_1_lakadiaisto_hit.wav,p05,lakadiaisto,hit,la-ka-di-ais-to,la-ka-diais-to,la-ka-di-ais-to,la-ka-dia-is-to,-0.365740741,-0.102777778,1,0,0,2.4993,text_option_1,,0,65,65,76,1
5e13814a1e2e589ca3a4aec2,63f3cfca20052e4ae7554ebf,6453cbc5ffd1e27fda820a93,2023-05-04_17h15.31.063,ga_syllabified_check,2022.2.5,Win32,60.26637739,,,,,,,,,,,,,,./stim/p07_syllable_1_manhiala_hit.wav,p07,mañiala,hit,ma-nhia-la,ma-ñia-la,ma-ñi-a-la, ,-0.367592593,-0.108333333,1,0,0,2.1836,text_option_1,,0,66,66,157,1
5e13814a1e2e589ca3a4aec2,63f3cfca20052e4ae7554ebf,6453cbc5ffd1e27fda820a93,2023-05-04_17h15.31.063,ga_syllabified_check,2022.2.5,Win32,60.26637739,,,,,,,,,,,,,,./stim/p08_syllable_1_palufauto_hit.wav,p08,palufauto,hit,pa-lu-fau-to,pa-lu-fau-to,pa-lu-fa-u-to, ,-0.375925926,-0.103703704,1,0,0,3.2335,text_option_1,,0,67,67,196,1
5e13814a1e2e589ca3a4aec2,63f3cfca20052e4ae7554ebf,6453cbc5ffd1e27fda820a93,2023-05-04_17h15.31.063,ga_syllabified_check,2022.2.5,Win32,60.26637739,,,,,,,,,,,,,,./stim/p07_syllable_1_lakabuaisto_hit.wav,p07,lakabuaisto,hit,la-ka-buais-to,la-ka-buais-to,la-ka-bu-ais-to,la-ka-bua-is-to,-0.383333333,-0.083333333,1,0,0,4.1339,text_option_1,,0,68,68,143,1
5e13814a1e2e589ca3a4aec2,63f3cfca20052e4ae7554ebf,6453cbc5ffd1e27fda820a93,2023-05-04_17h15.31.063,ga_syllabified_check,2022.2.5,Win32,60.26637739,,,,,,,,,,,,,,./stim/p05_syllable_1_ruyiola_hit.wav,p05,ruyiola,hit,ru-yio-la,ru-yio-la,ru-yi-o-la, ,-0.437037037,-0.099074074,1,0,0,1.6836,text_option_1,,0,69,69,100,1
5e13814a1e2e589ca3a4aec2,63f3cfca20052e4ae7554ebf,6453cbc5ffd1e27fda820a93,2023-05-04_17h15.31.063,ga_syllabified_check,2022.2.5,Win32,60.26637739,,,,,,,,,,,,,,./stim/p08_syllable_1_rausto_hit.wav,p08,rausto,hit,raus-to,raus-to,ra-us-to, ,-0.367592593,-0.106481481,1,0,0,2.0832,text_option_1,,0,70,70,201,1
5e13814a1e2e589ca3a4aec2,63f3cfca20052e4ae7554ebf,6453cbc5ffd1e27fda820a93,2023-05-04_17h15.31.063,ga_syllabified_check,2022.2.5,Win32,60.26637739,,,,,,,,,,,,,,./stim/p07_syllable_1_ruyiola_hit.wav,p07,ruyiola,hit,ru-yio-la,ru-yio-la,ru-yi-o-la, ,-0.387037037,-0.1,1,0,0,2.0505,text_option_1,,0,71,71,168,1
5e13814a1e2e589ca3a4aec2,63f3cfca20052e4ae7554ebf,6453cbc5ffd1e27fda820a93,2023-05-04_17h15.31.063,ga_syllabified_check,2022.2.5,Win32,60.26637739,,,,,,,,,,,,,,./stim/p08_syllable_1_manhiala_hit.wav,p08,mañiala,hit,ma-nhia-la,ma-ñia-la,ma-ñi-a-la, ,-0.377777778,-0.103703704,1,0,0,2.7837,text_option_1,,0,72,72,191,1
5e13814a1e2e589ca3a4aec2,63f3cfca20052e4ae7554ebf,6453cbc5ffd1e27fda820a93,2023-05-04_17h15.31.063,ga_syllabified_check,2022.2.5,Win32,60.26637739,,,,,,,,,,,,,,./stim/p06_syllable_1_lakakiaisto_hit.wav,p06,lakakiaisto,hit,la-ka-kia-is-to,la-ka-kiais-to,la-ka-ki-ais-to,la-ka-kia-is-to,-0.002777778,-0.106481481,1,0,0,4.8498,text_option_3,,0,73,73,116,1
5e13814a1e2e589ca3a4aec2,63f3cfca20052e4ae7554ebf,6453cbc5ffd1e27fda820a93,2023-05-04_17h15.31.063,ga_syllabified_check,2022.2.5,Win32,60.26637739,,,,,,,,,,,,,,./stim/p03_syllable_1_lakafuaisto_hit.wav,p03,lakafuaisto,hit,la-ka-fuais-to,la-ka-fuais-to,la-ka-fu-ais-to,la-ka-fua-is-to,-0.415740741,-0.099074074,1,0,0,2.167,text_option_1,,0,74,74,11,1
5e13814a1e2e589ca3a4aec2,63f3cfca20052e4ae7554ebf,6453cbc5ffd1e27fda820a93,2023-05-04_17h15.31.063,ga_syllabified_check,2022.2.5,Win32,60.26637739,,,,,,,,,,,,,,./stim/p05_syllable_1_lakakuaisto_hit.wav,p05,lakakuaisto,hit,la-ka-kais-to,la-ka-kuais-to,la-ka-ku-ais-to,la-ka-kua-is-to,-0.012962963,-0.30462963,1,0,0,4.0007,text_option_other,lakakaisto,0,75,75,83,1
5e13814a1e2e589ca3a4aec2,63f3cfca20052e4ae7554ebf,6453cbc5ffd1e27fda820a93,2023-05-04_17h15.31.063,ga_syllabified_check,2022.2.5,Win32,60.26637739,,,,,,,,,,,,,,./stim/p05_syllable_1_payielo_hit.wav,p05,payielo,hit,pai-yu-we-lo,pa-yie-lo,pa-yi-e-lo, ,0.026851852,-0.294444444,1,0,0,1.4835,text_option_other,payuelo,0,76,76,98,1
5e13814a1e2e589ca3a4aec2,63f3cfca20052e4ae7554ebf,6453cbc5ffd1e27fda820a93,2023-05-04_17h15.31.063,ga_syllabified_check,2022.2.5,Win32,60.26637739,,,,,,,,,,,,,,./stim/p04_syllable_1_lakaguaisto_hit.wav,p04,lakaguaisto,hit,la-ka-guais-to,la-ka-guais-to,la-ka-gu-ais-to,la-ka-gua-is-to,-0.378703704,-0.109259259,1,0,0,2.4166,text_option_1,,0,77,77,47,1
5e13814a1e2e589ca3a4aec2,63f3cfca20052e4ae7554ebf,6453cbc5ffd1e27fda820a93,2023-05-04_17h15.31.063,ga_syllabified_check,2022.2.5,Win32,60.26637739,,,,,,,,,,,,,,./stim/p07_syllable_1_lakafiaisto_hit.wav,p07,lakafiaisto,hit,la-ka-fiais-to,la-ka-fiais-to,la-ka-fi-ais-to,la-ka-fia-is-to,-0.373148148,-0.096296296,1,0,0,2.2501,text_option_1,,0,78,78,146,1
5e13814a1e2e589ca3a4aec2,63f3cfca20052e4ae7554ebf,6453cbc5ffd1e27fda820a93,2023-05-04_17h15.31.063,ga_syllabified_check,2022.2.5,Win32,60.26637739,,,,,,,,,,,,,,./stim/p03_syllable_1_palumaisto_hit.wav,p03,palumaisto,hit,pa-lu-mais-to,pa-lu-mais-to,pa-lu-ma-is-to, ,-0.415740741,-0.105555556,1,0,0,2.5503,text_option_1,,0,79,79,28,1
5e13814a1e2e589ca3a4aec2,63f3cfca20052e4ae7554ebf,6453cbc5ffd1e27fda820a93,2023-05-04_17h15.31.063,ga_syllabified_check,2022.2.5,Win32,60.26637739,,,,,,,,,,,,,,./stim/p07_syllable_1_lakapiaisto_hit.wav,p07,lakapiaisto,hit,la-ka-pia-sto,la-ka-piais-to,la-ka-pi-ais-to,la-ka-pia-is-to,0.002777778,-0.108333333,1,0,0,6.3338,text_option_3,,0,80,80,152,1
5e13814a1e2e589ca3a4aec2,63f3cfca20052e4ae7554ebf,6453cbc5ffd1e27fda820a93,2023-05-04_17h15.31.063,ga_syllabified_check,2022.2.5,Win32,60.26637739,,,,,,,,,,,,,,./stim/p06_syllable_1_lakafuaisto_hit.wav,p06,lakafuaisto,hit,la-ka-fu-a-is,la-ka-fuais-to,la-ka-fu-ais-to,la-ka-fua-is-to,0.039814815,-0.109259259,1,0,0,6.951,text_option_3,,0,81,81,113,1
5e13814a1e2e589ca3a4aec2,63f3cfca20052e4ae7554ebf,6453cbc5ffd1e27fda820a93,2023-05-04_17h15.31.063,ga_syllabified_check,2022.2.5,Win32,60.26637739,,,,,,,,,,,,,,./stim/p04_syllable_1_lakagiaisto_hit.wav,p04,lakagiaisto,hit,la-ka-giais-to,la-ka-giais-to,la-ka-gi-ais-to,la-ka-gia-is-to,-0.387962963,-0.108333333,1,0,0,3.6843,text_option_1,,0,82,82,46,1
5e13814a1e2e589ca3a4aec2,63f3cfca20052e4ae7554ebf,6453cbc5ffd1e27fda820a93,2023-05-04_17h15.31.063,ga_syllabified_check,2022.2.5,Win32,60.26637739,,,,,,,,,,,,,,./stim/p04_syllable_1_pachialo_hit.wav,p04,pachialo,hit,pa-chia-lo,pa-chia-lo,pa-chi-a-lo, ,-0.367592593,-0.103703704,1,0,0,1.9665,text_option_1,,0,83,83,58,1
5e13814a1e2e589ca3a4aec2,63f3cfca20052e4ae7554ebf,6453cbc5ffd1e27fda820a93,2023-05-04_17h15.31.063,ga_syllabified_check,2022.2.5,Win32,60.26637739,,,,,,,,,,,,,,./stim/p08_syllable_1_lakadiaisto_hit.wav,p08,lakadiaisto,hit,la-ka-di-jas-to,la-ka-diais-to,la-ka-di-ais-to,la-ka-dia-is-to,0.005555556,-0.105555556,1,0,0,5.5841,text_option_3,,0,84,84,178,1
5e13814a1e2e589ca3a4aec2,63f3cfca20052e4ae7554ebf,6453cbc5ffd1e27fda820a93,2023-05-04_17h15.31.063,ga_syllabified_check,2022.2.5,Win32,60.26637739,,,,,,,,,,,,,,./stim/p06_syllable_1_lakakuaisto_hit.wav,p06,lakakuaisto,hit,la-ka-ku-a-is,la-ka-kuais-to,la-ka-ku-ais-to,la-ka-kua-is-to,0.052777778,-0.10462963,1,0,0,6.9844,text_option_3,,0,85,85,117,1
5e13814a1e2e589ca3a4aec2,63f3cfca20052e4ae7554ebf,6453cbc5ffd1e27fda820a93,2023-05-04_17h15.31.063,ga_syllabified_check,2022.2.5,Win32,60.26637739,,,,,,,,,,,,,,./stim/p03_syllable_1_falufaisto_hit.wav,p03,falufaisto,hit,fa-lu-fais-to,fa-lu-fais-to,fa-lu-fa-is-to, ,-0.347222222,-0.092592593,1,0,0,2.567,text_option_1,,0,86,86,3,1
5e13814a1e2e589ca3a4aec2,63f3cfca20052e4ae7554ebf,6453cbc5ffd1e27fda820a93,2023-05-04_17h15.31.063,ga_syllabified_check,2022.2.5,Win32,60.26637739,,,,,,,,,,,,,,./stim/p04_syllable_1_lakafiaisto_hit.wav,p04,lakafiaisto,hit,la-ka-fiais-to,la-ka-fiais-to,la-ka-fi-ais-to,la-ka-fia-is-to,-0.364814815,-0.094444444,1,0,0,2.1506,text_option_1,,0,87,87,44,1
5e13814a1e2e589ca3a4aec2,63f3cfca20052e4ae7554ebf,6453cbc5ffd1e27fda820a93,2023-05-04_17h15.31.063,ga_syllabified_check,2022.2.5,Win32,60.26637739,,,,,,,,,,,,,,./stim/p04_syllable_1_costonhialo_hit.wav,p04,costoñialo,hit,cos-to-nhia-lo,cos-to-ñia-lo,cos-to-ñi-a-lo, ,-0.387962963,-0.110185185,1,0,0,3.2005,text_option_1,,0,88,88,35,1
5e13814a1e2e589ca3a4aec2,63f3cfca20052e4ae7554ebf,6453cbc5ffd1e27fda820a93,2023-05-04_17h15.31.063,ga_syllabified_check,2022.2.5,Win32,60.26637739,,,,,,,,,,,,,,./stim/p08_syllable_1_lakaduaisto_hit.wav,p08,lakaduaisto,hit,la-ka-du-ais-to,la-ka-duais-to,la-ka-du-ais-to,la-ka-dua-is-to,-0.39537037,-0.09537037,1,0,0,4.9516,text_option_1,,0,89,89,179,1
5e13814a1e2e589ca3a4aec2,63f3cfca20052e4ae7554ebf,6453cbc5ffd1e27fda820a93,2023-05-04_17h15.31.063,ga_syllabified_check,2022.2.5,Win32,60.26637739,,,,,,,,,,,,,,./stim/p05_syllable_1_faluduako_hit.wav,p05,faluduako,hit,fa-lu-ba-ko,fa-lu-dua-ko,fa-lu-du-a-ko, ,-0.333333333,-0.106481481,1,0,0,2.3994,text_option_1,,0,90,90,70,1
5e13814a1e2e589ca3a4aec2,63f3cfca20052e4ae7554ebf,6453cbc5ffd1e27fda820a93,2023-05-04_17h15.31.063,ga_syllabified_check,2022.2.5,Win32,60.26637739,,,,,,,,,,,,,,./stim/p03_syllable_1_rausto_hit.wav,p03,rausto,hit,raus-to,raus-to,ra-us-to, ,-0.411111111,-0.10462963,1,0,0,1.3507,text_option_1,,0,91,91,31,1
5e13814a1e2e589ca3a4aec2,63f3cfca20052e4ae7554ebf,6453cbc5ffd1e27fda820a93,2023-05-04_17h15.31.063,ga_syllabified_check,2022.2.5,Win32,60.26637739,,,,,,,,,,,,,,./stim/p04_syllable_1_lakakuaisto_hit.wav,p04,lakakuaisto,hit,la-ka-kuais-to,la-ka-kuais-to,la-ka-ku-ais-to,la-ka-kua-is-to,-0.376851852,-0.101851852,1,0,0,2.483,text_option_1,,0,92,92,49,1
5e13814a1e2e589ca3a4aec2,63f3cfca20052e4ae7554ebf,6453cbc5ffd1e27fda820a93,2023-05-04_17h15.31.063,ga_syllabified_check,2022.2.5,Win32,60.26637739,,,,,,,,,,,,,,./stim/p06_syllable_1_tuliafo_hit.wav,p06,tuliafo,hit,tu-li-a-fo,tu-lia-fo,tu-li-a-fo, ,0.407407407,-0.102777778,1,0,0,2.3339,text_option_2,,0,93,93,135,1
5e13814a1e2e589ca3a4aec2,63f3cfca20052e4ae7554ebf,6453cbc5ffd1e27fda820a93,2023-05-04_17h15.31.063,ga_syllabified_check,2022.2.5,Win32,60.26637739,,,,,,,,,,,,,,./stim/p08_syllable_1_ruyiola_hit.wav,p08,ruyiola,hit,ru-yio-la,ru-yio-la,ru-yi-o-la, ,-0.349074074,-0.106481481,1,0,0,3.4173,text_option_1,,0,94,94,202,1
5e13814a1e2e589ca3a4aec2,63f3cfca20052e4ae7554ebf,6453cbc5ffd1e27fda820a93,2023-05-04_17h15.31.063,ga_syllabified_check,2022.2.5,Win32,60.26637739,,,,,,,,,,,,,,./stim/p05_syllable_1_flauro_hit.wav,p05,flauro,hit,fa-lu-ro,flau-ro,fla-u-ro, ,0.412037037,-0.105555556,1,0,0,1.5005,text_option_2,,0,95,95,73,1
5e13814a1e2e589ca3a4aec2,63f3cfca20052e4ae7554ebf,6453cbc5ffd1e27fda820a93,2023-05-04_17h15.31.063,ga_syllabified_check,2022.2.5,Win32,60.26637739,,,,,,,,,,,,,,./stim/p03_syllable_1_payielo_hit.wav,p03,payielo,hit,pa-yie-lo,pa-yie-lo,pa-yi-e-lo, ,-0.402777778,-0.1,1,0,0,1.7841,text_option_1,,0,96,96,30,1
5e13814a1e2e589ca3a4aec2,63f3cfca20052e4ae7554ebf,6453cbc5ffd1e27fda820a93,2023-05-04_17h15.31.063,ga_syllabified_check,2022.2.5,Win32,60.26637739,,,,,,,,,,,,,,./stim/p03_syllable_1_lakafiaisto_hit.wav,p03,lakafiaisto,hit,la-ka-fiais-to,la-ka-fiais-to,la-ka-fi-ais-to,la-ka-fia-is-to,-0.371296296,-0.100925926,1,0,0,2.05,text_option_1,,0,97,97,10,1
5e13814a1e2e589ca3a4aec2,63f3cfca20052e4ae7554ebf,6453cbc5ffd1e27fda820a93,2023-05-04_17h15.31.063,ga_syllabified_check,2022.2.5,Win32,60.26637739,,,,,,,,,,,,,,./stim/p04_syllable_1_ruyiola_hit.wav,p04,ruyiola,hit,ru-yio-la,ru-yio-la,ru-yi-o-la, ,-0.377777778,-0.101851852,1,0,0,1.2175,text_option_1,,0,98,98,66,1
5e13814a1e2e589ca3a4aec2,63f3cfca20052e4ae7554ebf,6453cbc5ffd1e27fda820a93,2023-05-04_17h15.31.063,ga_syllabified_check,2022.2.5,Win32,60.26637739,,,,,,,,,,,,,,./stim/p05_syllable_1_lliape_hit.wav,p05,lliape,hit,liai-pe,llia-pe,lli-a-pe, ,-0.432407407,-0.091666667,1,0,0,2.6834,text_option_1,,0,99,99,88,1
5e13814a1e2e589ca3a4aec2,63f3cfca20052e4ae7554ebf,6453cbc5ffd1e27fda820a93,2023-05-04_17h15.31.063,ga_syllabified_check,2022.2.5,Win32,60.26637739,,,,,,,,,,,,,,./stim/p07_syllable_1_lakagiaisto_hit.wav,p07,lakagiaisto,hit,la-ka-gais-to,la-ka-giais-to,la-ka-gi-ais-to,la-ka-gia-is-to,-0.380555556,-0.106481481,1,0,0,5.4333,text_option_1,,0,100,100,148,1
5e13814a1e2e589ca3a4aec2,63f3cfca20052e4ae7554ebf,6453cbc5ffd1e27fda820a93,2023-05-04_17h15.31.063,ga_syllabified_check,2022.2.5,Win32,60.26637739,,,,,,,,,,,,,,./stim/p08_syllable_1_lakafuaisto_hit.wav,p08,lakafuaisto,hit,la-ka-fju-ais-to,la-ka-fuais-to,la-ka-fu-ais-to,la-ka-fua-is-to,-0.382407407,-0.107407407,1,0,0,3.8336,text_option_1,,0,101,101,181,1
5e13814a1e2e589ca3a4aec2,63f3cfca20052e4ae7554ebf,6453cbc5ffd1e27fda820a93,2023-05-04_17h15.31.063,ga_syllabified_check,2022.2.5,Win32,60.26637739,,,,,,,,,,,,,,./stim/p06_syllable_1_ruyiola_hit.wav,p06,ruyiola,hit,ru-yi-o-la,ru-yio-la,ru-yi-o-la, ,0.383333333,-0.100925926,1,0,0,2.5038,text_option_2,,0,102,102,134,1
5e13814a1e2e589ca3a4aec2,63f3cfca20052e4ae7554ebf,6453cbc5ffd1e27fda820a93,2023-05-04_17h15.31.063,ga_syllabified_check,2022.2.5,Win32,60.26637739,,,,,,,,,,,,,,./stim/p07_syllable_1_flauro_hit.wav,p07,flauro,hit,flau-ro,flau-ro,fla-u-ro, ,-0.390740741,-0.098148148,1,0,0,1.8002,text_option_1,,0,103,103,141,1
5e13814a1e2e589ca3a4aec2,63f3cfca20052e4ae7554ebf,6453cbc5ffd1e27fda820a93,2023-05-04_17h15.31.063,ga_syllabified_check,2022.2.5,Win32,60.26637739,,,,,,,,,,,,,,./stim/p04_syllable_1_lakatiaisto_hit.wav,p04,lakatiaisto,hit,la-ka-kiais-to,la-ka-tiais-to,la-ka-ti-ais-to,la-ka-tia-is-to,-0.372222222,-0.109259259,1,0,0,3.4203,text_option_1,,0,104,104,52,1
5e13814a1e2e589ca3a4aec2,63f3cfca20052e4ae7554ebf,6453cbc5ffd1e27fda820a93,2023-05-04_17h15.31.063,ga_syllabified_check,2022.2.5,Win32,60.26637739,,,,,,,,,,,,,,./stim/p06_syllable_1_lakafiaisto_hit.wav,p06,lakafiaisto,hit,la-ka-fia-is-to,la-ka-fiais-to,la-ka-fi-ais-to,la-ka-fia-is-to,0.062962963,-0.093518519,1,0,0,3.8508,text_option_3,,0,105,105,112,1
5e13814a1e2e589ca3a4aec2,63f3cfca20052e4ae7554ebf,6453cbc5ffd1e27fda820a93,2023-05-04_17h15.31.063,ga_syllabified_check,2022.2.5,Win32,60.26637739,,,,,,,,,,,,,,./stim/p06_syllable_1_payielo_hit.wav,p06,payielo,hit,pa-yi-e-lo,pa-yie-lo,pa-yi-e-lo, ,0.414814815,-0.103703704,1,0,0,2.9165,text_option_2,,0,106,106,132,1
5e13814a1e2e589ca3a4aec2,63f3cfca20052e4ae7554ebf,6453cbc5ffd1e27fda820a93,2023-05-04_17h15.31.063,ga_syllabified_check,2022.2.5,Win32,60.26637739,,,,,,,,,,,,,,./stim/p05_syllable_1_manhiala_hit.wav,p05,mañiala,hit,ma-nhia-la,ma-ñia-la,ma-ñi-a-la, ,-0.37037037,-0.100925926,1,0,0,1.4503,text_option_1,,0,107,107,89,1
5e13814a1e2e589ca3a4aec2,63f3cfca20052e4ae7554ebf,6453cbc5ffd1e27fda820a93,2023-05-04_17h15.31.063,ga_syllabified_check,2022.2.5,Win32,60.26637739,,,,,,,,,,,,,,./stim/p03_syllable_1_falutraigo_hit.wav,p03,falutraigo,hit,fa-lu-trai-go,fa-lu-trai-go,fa-lu-tra-i-go, ,-0.352777778,-0.112962963,1,0,0,2.3338,text_option_1,,0,108,108,4,1
5e13814a1e2e589ca3a4aec2,63f3cfca20052e4ae7554ebf,6453cbc5ffd1e27fda820a93,2023-05-04_17h15.31.063,ga_syllabified_check,2022.2.5,Win32,60.26637739,,,,,,,,,,,,,,./stim/p05_syllable_1_lakatiaisto_hit.wav,p05,lakatiaisto,hit,la-ka-ti-ais-to,la-ka-tiais-to,la-ka-ti-ais-to,la-ka-tia-is-to,-0.353703704,-0.103703704,1,0,0,2.604,text_option_1,,0,109,109,86,1
5e13814a1e2e589ca3a4aec2,63f3cfca20052e4ae7554ebf,6453cbc5ffd1e27fda820a93,2023-05-04_17h15.31.063,ga_syllabified_check,2022.2.5,Win32,60.26637739,,,,,,,,,,,,,,./stim/p03_syllable_1_lakadiaisto_hit.wav,p03,lakadiaisto,hit,la-ka-diais-to,la-ka-diais-to,la-ka-di-ais-to,la-ka-dia-is-to,-0.378703704,-0.103703704,1,0,0,2.1509,text_option_1,,0,110,110,8,1
5e13814a1e2e589ca3a4aec2,63f3cfca20052e4ae7554ebf,6453cbc5ffd1e27fda820a93,2023-05-04_17h15.31.063,ga_syllabified_check,2022.2.5,Win32,60.26637739,,,,,,,,,,,,,,./stim/p03_syllable_1_lakagiaisto_hit.wav,p03,lakagiaisto,hit,la-ka-giais-to,la-ka-giais-to,la-ka-gi-ais-to,la-ka-gia-is-to,-0.392592593,-0.109259259,1,0,0,1.7999,text_option_1,,0,111,111,12,1
5e13814a1e2e589ca3a4aec2,63f3cfca20052e4ae7554ebf,6453cbc5ffd1e27fda820a93,2023-05-04_17h15.31.063,ga_syllabified_check,2022.2.5,Win32,60.26637739,,,,,,,,,,,,,,./stim/p03_syllable_1_lakakiaisto_hit.wav,p03,lakakiaisto,hit,la-ka-kiais-to,la-ka-kiais-to,la-ka-ki-ais-to,la-ka-kia-is-to,-0.392592593,-0.109259259,1,0,0,1.9839,text_option_1,,0,112,112,14,1
5e13814a1e2e589ca3a4aec2,63f3cfca20052e4ae7554ebf,6453cbc5ffd1e27fda820a93,2023-05-04_17h15.31.063,ga_syllabified_check,2022.2.5,Win32,60.26637739,,,,,,,,,,,,,,./stim/p06_syllable_1_palufauto_hit.wav,p06,palufauto,hit,pa-lu-fau-to,pa-lu-fau-to,pa-lu-fa-u-to, ,-0.390740741,-0.107407407,1,0,0,3.4171,text_option_1,,0,113,113,128,1
5e13814a1e2e589ca3a4aec2,63f3cfca20052e4ae7554ebf,6453cbc5ffd1e27fda820a93,2023-05-04_17h15.31.063,ga_syllabified_check,2022.2.5,Win32,60.26637739,,,,,,,,,,,,,,./stim/p04_syllable_1_falufaisto_hit.wav,p04,falufaisto,hit,fa-lu-fais-to,fa-lu-fais-to,fa-lu-fa-is-to, ,-0.390740741,-0.107407407,1,0,0,2.1182,text_option_1,,0,114,114,37,1
5e13814a1e2e589ca3a4aec2,63f3cfca20052e4ae7554ebf,6453cbc5ffd1e27fda820a93,2023-05-04_17h15.31.063,ga_syllabified_check,2022.2.5,Win32,60.26637739,,,,,,,,,,,,,,./stim/p06_syllable_1_lakabuaisto_hit.wav,p06,lakabuaisto,hit,la-ka-bu-a-is,la-ka-buais-to,la-ka-bu-ais-to,la-ka-bua-is-to,0.358333333,-0.101851852,1,0,0,5.1501,text_option_2,,0,115,115,109,1
5e13814a1e2e589ca3a4aec2,63f3cfca20052e4ae7554ebf,6453cbc5ffd1e27fda820a93,2023-05-04_17h15.31.063,ga_syllabified_check,2022.2.5,Win32,60.26637739,,,,,,,,,,,,,,./stim/p05_syllable_1_lakakiaisto_hit.wav,p05,lakakiaisto,hit,la-ka-ki-ais-to,la-ka-kiais-to,la-ka-ki-ais-to,la-ka-kia-is-to,-0.372222222,-0.110185185,1,0,0,3.3838,text_option_1,,0,116,116,82,1
5e13814a1e2e589ca3a4aec2,63f3cfca20052e4ae7554ebf,6453cbc5ffd1e27fda820a93,2023-05-04_17h15.31.063,ga_syllabified_check,2022.2.5,Win32,60.26637739,,,,,,,,,,,,,,./stim/p04_syllable_1_lliape_hit.wav,p04,lliape,hit,lia-pe,llia-pe,lli-a-pe, ,-0.372222222,-0.110185185,1,0,0,1.0335,text_option_1,,0,117,117,54,1
5e13814a1e2e589ca3a4aec2,63f3cfca20052e4ae7554ebf,6453cbc5ffd1e27fda820a93,2023-05-04_17h15.31.063,ga_syllabified_check,2022.2.5,Win32,60.26637739,,,,,,,,,,,,,,./stim/p08_syllable_1_mebochiana_hit.wav,p08,mebochiana,hit,me-bo-chi-a-na,me-bo-chia-na,me-bo-chi-a-na, ,0.408333333,-0.108333333,1,0,0,2.7337,text_option_2,,0,118,118,192,1
5e13814a1e2e589ca3a4aec2,63f3cfca20052e4ae7554ebf,6453cbc5ffd1e27fda820a93,2023-05-04_17h15.31.063,ga_syllabified_check,2022.2.5,Win32,60.26637739,,,,,,,,,,,,,,./stim/p04_syllable_1_lakapuaisto_hit.wav,p04,lakapuaisto,hit,la-ka-puais-to,la-ka-puais-to,la-ka-pu-ais-to,la-ka-pua-is-to,-0.406481481,-0.105555556,1,0,0,1.6168,text_option_1,,0,119,119,51,1
5e13814a1e2e589ca3a4aec2,63f3cfca20052e4ae7554ebf,6453cbc5ffd1e27fda820a93,2023-05-04_17h15.31.063,ga_syllabified_check,2022.2.5,Win32,60.26637739,,,,,,,,,,,,,,./stim/p07_syllable_1_lakaduaisto_hit.wav,p07,lakaduaisto,hit,la-ka-duais-to,la-ka-duais-to,la-ka-du-ais-to,la-ka-dua-is-to,-0.397222222,-0.108333333,1,0,0,2.6005,text_option_1,,0,120,120,145,1
5e13814a1e2e589ca3a4aec2,63f3cfca20052e4ae7554ebf,6453cbc5ffd1e27fda820a93,2023-05-04_17h15.31.063,ga_syllabified_check,2022.2.5,Win32,60.26637739,,,,,,,,,,,,,,./stim/p08_syllable_1_palutrauco_hit.wav,p08,palutrauco,hit,pa-lu-trau-ko,pa-lu-trau-co,pa-lu-tra-u-co, ,-0.397222222,-0.108333333,1,0,0,4.0672,text_option_1,,0,121,121,199,1
5e13814a1e2e589ca3a4aec2,63f3cfca20052e4ae7554ebf,6453cbc5ffd1e27fda820a93,2023-05-04_17h15.31.063,ga_syllabified_check,2022.2.5,Win32,60.26637739,,,,,,,,,,,,,,./stim/p04_syllable_1_lakadiaisto_hit.wav,p04,lakadiaisto,hit,la-ka-dias-to,la-ka-diais-to,la-ka-di-ais-to,la-ka-dia-is-to,-0.397222222,-0.108333333,1,0,0,1.4008,text_option_1,,0,122,122,42,1
5e13814a1e2e589ca3a4aec2,63f3cfca20052e4ae7554ebf,6453cbc5ffd1e27fda820a93,2023-05-04_17h15.31.063,ga_syllabified_check,2022.2.5,Win32,60.26637739,,,,,,,,,,,,,,./stim/p06_syllable_1_rausto_hit.wav,p06,rausto,hit,ra-us-to,raus-to,ra-us-to, ,0.412037037,-0.10462963,1,0,0,2.6666,text_option_2,,0,123,123,133,1
5e13814a1e2e589ca3a4aec2,63f3cfca20052e4ae7554ebf,6453cbc5ffd1e27fda820a93,2023-05-04_17h15.31.063,ga_syllabified_check,2022.2.5,Win32,60.26637739,,,,,,,,,,,,,,./stim/p03_syllable_1_lakapiaisto_hit.wav,p03,lakapiaisto,hit,la-ka-piais-to,la-ka-piais-to,la-ka-pi-ais-to,la-ka-pia-is-to,-0.426851852,-0.107407407,1,0,0,3.7339,text_option_1,,0,124,124,16,1
5e13814a1e2e589ca3a4aec2,63f3cfca20052e4ae7554ebf,6453cbc5ffd1e27fda820a93,2023-05-04_17h15.31.063,ga_syllabified_check,2022.2.5,Win32,60.26637739,,,,,,,,,,,,,,./stim/p07_syllable_1_lakabiaisto_hit.wav,p07,lakabiaisto,hit,la-ka-bais-to,la-ka-biais-to,la-ka-bi-ais-to,la-ka-bia-is-to,0.051851852,-0.294444444,1,0,0,2.8672,text_option_other,lakabaisto,0,125,125,142,1
5e13814a1e2e589ca3a4aec2,63f3cfca20052e4ae7554ebf,6453cbc5ffd1e27fda820a93,2023-05-04_17h15.31.063,ga_syllabified_check,2022.2.5,Win32,60.26637739,,,,,,,,,,,,,,./stim/p08_syllable_1_flauro_hit.wav,p08,flauro,hit,flau-ro,flau-ro,fla-u-ro, ,-0.410185185,-0.094444444,1,0,0,1.5499,text_option_1,,0,126,126,175,1
5e13814a1e2e589ca3a4aec2,63f3cfca20052e4ae7554ebf,6453cbc5ffd1e27fda820a93,2023-05-04_17h15.31.063,ga_syllabified_check,2022.2.5,Win32,60.26637739,,,,,,,,,,,,,,./stim/p06_syllable_1_lakapuaisto_hit.wav,p06,lakapuaisto,hit,la-ka-pu-a-is,la-ka-puais-to,la-ka-pu-ais-to,la-ka-pua-is-to,0.382407407,-0.110185185,1,0,0,5.5326,text_option_2,,0,127,127,119,1
5e13814a1e2e589ca3a4aec2,63f3cfca20052e4ae7554ebf,6453cbc5ffd1e27fda820a93,2023-05-04_17h15.31.063,ga_syllabified_check,2022.2.5,Win32,60.26637739,,,,,,,,,,,,,,./stim/p08_syllable_1_payielo_hit.wav,p08,payielo,hit,pa-yie-lo,pa-yie-lo,pa-yi-e-lo, ,-0.35,-0.113888889,1,0,0,1.9372,text_option_1,,0,128,128,200,1
5e13814a1e2e589ca3a4aec2,63f3cfca20052e4ae7554ebf,6453cbc5ffd1e27fda820a93,2023-05-04_17h15.31.063,ga_syllabified_check,2022.2.5,Win32,60.26637739,,,,,,,,,,,,,,./stim/p08_syllable_1_lakakuaisto_hit.wav,p08,lakakuaisto,hit,la-ka-ku-ais-to,la-ka-kuais-to,la-ka-ku-ais-to,la-ka-kua-is-to,0.008333333,-0.102777778,1,0,0,5.067,text_option_3,,0,129,129,185,1
5e13814a1e2e589ca3a4aec2,63f3cfca20052e4ae7554ebf,6453cbc5ffd1e27fda820a93,2023-05-04_17h15.31.063,ga_syllabified_check,2022.2.5,Win32,60.26637739,,,,,,,,,,,,,,./stim/p06_syllable_1_costonhialo_hit.wav,p06,costoñialo,hit,cos-to-nhia-lo,cos-to-ñia-lo,cos-to-ñi-a-lo, ,-0.389814815,-0.105555556,1,0,0,2.8971,text_option_1,,0,130,130,103,1
5e13814a1e2e589ca3a4aec2,63f3cfca20052e4ae7554ebf,6453cbc5ffd1e27fda820a93,2023-05-04_17h15.31.063,ga_syllabified_check,2022.2.5,Win32,60.26637739,,,,,,,,,,,,,,./stim/p08_syllable_1_lakaguaisto_hit.wav,p08,lakaguaisto,hit,la-ka-gu-ais-to,la-ka-guais-to,la-ka-gu-ais-to,la-ka-gua-is-to,0.396296296,-0.112962963,1,0,0,6.3854,text_option_2,,0,131,131,183,1
5e13814a1e2e589ca3a4aec2,63f3cfca20052e4ae7554ebf,6453cbc5ffd1e27fda820a93,2023-05-04_17h15.31.063,ga_syllabified_check,2022.2.5,Win32,60.26637739,,,,,,,,,,,,,,./stim/p06_syllable_1_nhiape_hit.wav,p06,ñiape,hit,nhi-a-pe,ñia-pe,ñi-a-pe, ,0.398148148,-0.099074074,1,0,0,2.2842,text_option_2,,0,132,132,125,1
5e13814a1e2e589ca3a4aec2,63f3cfca20052e4ae7554ebf,6453cbc5ffd1e27fda820a93,2023-05-04_17h15.31.063,ga_syllabified_check,2022.2.5,Win32,60.26637739,,,,,,,,,,,,,,./stim/p03_syllable_1_lakatuaisto_hit.wav,p03,lakatuaisto,hit,la-ka-tuais-to,la-ka-tuais-to,la-ka-tu-ais-to,la-ka-tua-is-to,-0.459259259,-0.099074074,1,0,0,1.8871,text_option_1,,0,133,133,19,1
5e13814a1e2e589ca3a4aec2,63f3cfca20052e4ae7554ebf,6453cbc5ffd1e27fda820a93,2023-05-04_17h15.31.063,ga_syllabified_check,2022.2.5,Win32,60.26637739,,,,,,,,,,,,,,./stim/p07_syllable_1_falutraigo_hit.wav,p07,falutraigo,hit,fa-lu-trai-go,fa-lu-trai-go,fa-lu-tra-i-go, ,-0.39537037,-0.102777778,1,0,0,2.8172,text_option_1,,0,134,134,140,1
5e13814a1e2e589ca3a4aec2,63f3cfca20052e4ae7554ebf,6453cbc5ffd1e27fda820a93,2023-05-04_17h15.31.063,ga_syllabified_check,2022.2.5,Win32,60.26637739,,,,,,,,,,,,,,./stim/p06_syllable_1_lakaguaisto_hit.wav,p06,lakaguaisto,hit,la-ka-gu-a-is,la-ka-guais-to,la-ka-gu-ais-to,la-ka-gua-is-to,0.403703704,-0.106481481,1,0,0,5.3537,text_option_2,,0,135,135,115,1
5e13814a1e2e589ca3a4aec2,63f3cfca20052e4ae7554ebf,6453cbc5ffd1e27fda820a93,2023-05-04_17h15.31.063,ga_syllabified_check,2022.2.5,Win32,60.26637739,,,,,,,,,,,,,,./stim/p06_syllable_1_falufaisto_hit.wav,p06,falufaisto,hit,fa-lu-fa-is-to,fa-lu-fais-to,fa-lu-fa-is-to, ,0.425925926,-0.101851852,1,0,0,2.8339,text_option_2,,0,136,136,105,1
5e13814a1e2e589ca3a4aec2,63f3cfca20052e4ae7554ebf,6453cbc5ffd1e27fda820a93,2023-05-04_17h15.31.063,ga_syllabified_check,2022.2.5,Win32,60.26637739,,,,,,,,,,,,,,./stim/p04_syllable_1_lakafuaisto_hit.wav,p04,lakafuaisto,hit,la-ka-fuais-to,la-ka-fuais-to,la-ka-fu-ais-to,la-ka-fua-is-to,-0.362037037,-0.094444444,1,0,0,2.9338,text_option_1,,0,137,137,45,1
5e13814a1e2e589ca3a4aec2,63f3cfca20052e4ae7554ebf,6453cbc5ffd1e27fda820a93,2023-05-04_17h15.31.063,ga_syllabified_check,2022.2.5,Win32,60.26637739,,,,,,,,,,,,,,./stim/p07_syllable_1_chiaba_hit.wav,p07,chiaba,hit,chia-ba,chia-ba,chi-a-ba, ,-0.392592593,-0.097222222,1,0,0,1.3662,text_option_1,,0,138,138,136,1
5e13814a1e2e589ca3a4aec2,63f3cfca20052e4ae7554ebf,6453cbc5ffd1e27fda820a93,2023-05-04_17h15.31.063,ga_syllabified_check,2022.2.5,Win32,60.26637739,,,,,,,,,,,,,,./stim/p05_syllable_1_rausto_hit.wav,p05,rausto,hit,raus-to,raus-to,ra-us-to, ,-0.398148148,-0.10462963,1,0,0,1.0002,text_option_1,,0,139,139,99,1
5e13814a1e2e589ca3a4aec2,63f3cfca20052e4ae7554ebf,6453cbc5ffd1e27fda820a93,2023-05-04_17h15.31.063,ga_syllabified_check,2022.2.5,Win32,60.26637739,,,,,,,,,,,,,,./stim/p04_syllable_1_lakaduaisto_hit.wav,p04,lakaduaisto,hit,la-ka-duais-to,la-ka-duais-to,la-ka-du-ais-to,la-ka-dua-is-to,-0.37962963,-0.111111111,1,0,0,2.9184,text_option_1,,0,140,140,43,1
5e13814a1e2e589ca3a4aec2,63f3cfca20052e4ae7554ebf,6453cbc5ffd1e27fda820a93,2023-05-04_17h15.31.063,ga_syllabified_check,2022.2.5,Win32,60.26637739,,,,,,,,,,,,,,./stim/p06_syllable_1_lakaduaisto_hit.wav,p06,lakaduaisto,hit,la-ka-du-a-is,la-ka-duais-to,la-ka-du-ais-to,la-ka-dua-is-to,0.057407407,-0.098148148,1,0,0,3.4498,text_option_3,,0,141,141,111,1
5e13814a1e2e589ca3a4aec2,63f3cfca20052e4ae7554ebf,6453cbc5ffd1e27fda820a93,2023-05-04_17h15.31.063,ga_syllabified_check,2022.2.5,Win32,60.26637739,,,,,,,,,,,,,,./stim/p08_syllable_1_lakabiaisto_hit.wav,p08,lakabiaisto,hit,la-ka-bi-as-to,la-ka-biais-to,la-ka-bi-ais-to,la-ka-bia-is-to,-0.397222222,-0.105555556,1,0,0,3.8038,text_option_1,,0,142,142,176,1
5e13814a1e2e589ca3a4aec2,63f3cfca20052e4ae7554ebf,6453cbc5ffd1e27fda820a93,2023-05-04_17h15.31.063,ga_syllabified_check,2022.2.5,Win32,60.26637739,,,,,,,,,,,,,,./stim/p07_syllable_1_costonhialo_hit.wav,p07,costoñialo,hit,cos-to-nhia-lo,cos-to-ñia-lo,cos-to-ñi-a-lo, ,-0.37962963,-0.101851852,1,0,0,4.6374,text_option_1,,0,143,143,137,1
5e13814a1e2e589ca3a4aec2,63f3cfca20052e4ae7554ebf,6453cbc5ffd1e27fda820a93,2023-05-04_17h15.31.063,ga_syllabified_check,2022.2.5,Win32,60.26637739,,,,,,,,,,,,,,./stim/p03_syllable_1_lakatiaisto_hit.wav,p03,lakatiaisto,hit,la-ka-tiais-to,la-ka-tiais-to,la-ka-ti-ais-to,la-ka-tia-is-to,-0.375,-0.099074074,1,0,0,2.7501,text_option_1,,0,144,144,18,1
5e13814a1e2e589ca3a4aec2,63f3cfca20052e4ae7554ebf,6453cbc5ffd1e27fda820a93,2023-05-04_17h15.31.063,ga_syllabified_check,2022.2.5,Win32,60.26637739,,,,,,,,,,,,,,./stim/p05_syllable_1_falufaisto_hit.wav,p05,falufaisto,hit,fa-lu-fais-to,fa-lu-fais-to,fa-lu-fa-is-to, ,-0.382407407,-0.106481481,1,0,0,3.2011,text_option_1,,0,145,145,71,1
5e13814a1e2e589ca3a4aec2,63f3cfca20052e4ae7554ebf,6453cbc5ffd1e27fda820a93,2023-05-04_17h15.31.063,ga_syllabified_check,2022.2.5,Win32,60.26637739,,,,,,,,,,,,,,./stim/p06_syllable_1_lliape_hit.wav,p06,lliape,hit,lli-lla-pe,llia-pe,lli-a-pe, ,0.417592593,-0.108333333,1,0,0,1.6511,text_option_2,,0,146,146,122,1
5e13814a1e2e589ca3a4aec2,63f3cfca20052e4ae7554ebf,6453cbc5ffd1e27fda820a93,2023-05-04_17h15.31.063,ga_syllabified_check,2022.2.5,Win32,60.26637739,,,,,,,,,,,,,,./stim/p04_syllable_1_nhiape_hit.wav,p04,ñiape,hit,nhia-pe,ñia-pe,ñi-a-pe, ,-0.384259259,-0.101851852,1,0,0,1.004,text_option_1,,0,147,147,57,1
5e13814a1e2e589ca3a4aec2,63f3cfca20052e4ae7554ebf,6453cbc5ffd1e27fda820a93,2023-05-04_17h15.31.063,ga_syllabified_check,2022.2.5,Win32,60.26637739,,,,,,,,,,,,,,./stim/p08_syllable_1_lakabuaisto_hit.wav,p08,lakabuaisto,hit,la-ka-bu-ais-to,la-ka-buais-to,la-ka-bu-ais-to,la-ka-bua-is-to,0.010185185,-0.102777778,1,0,0,3.0835,text_option_3,,0,148,148,177,1
5e13814a1e2e589ca3a4aec2,63f3cfca20052e4ae7554ebf,6453cbc5ffd1e27fda820a93,2023-05-04_17h15.31.063,ga_syllabified_check,2022.2.5,Win32,60.26637739,,,,,,,,,,,,,,./stim/p06_syllable_1_faluduako_hit.wav,p06,faluduako,hit,fa-lu-dua-ko,fa-lu-dua-ko,fa-lu-du-a-ko, ,-0.40462963,-0.097222222,1,0,0,3.497,text_option_1,,0,149,149,104,1
5e13814a1e2e589ca3a4aec2,63f3cfca20052e4ae7554ebf,6453cbc5ffd1e27fda820a93,2023-05-04_17h15.31.063,ga_syllabified_check,2022.2.5,Win32,60.26637739,,,,,,,,,,,,,,./stim/p03_syllable_1_tuliafo_hit.wav,p03,tuliafo,hit,tu-lia-fo,tu-lia-fo,tu-li-a-fo, ,-0.417592593,-0.106481481,1,0,0,1.3802,text_option_1,,0,150,150,33,1
5e13814a1e2e589ca3a4aec2,63f3cfca20052e4ae7554ebf,6453cbc5ffd1e27fda820a93,2023-05-04_17h15.31.063,ga_syllabified_check,2022.2.5,Win32,60.26637739,,,,,,,,,,,,,,./stim/p03_syllable_1_palutrauco_hit.wav,p03,palutrauco,hit,pa-lu-trau-co,pa-lu-trau-co,pa-lu-tra-u-co, ,-0.368518519,-0.102777778,1,0,0,1.7131,text_option_1,,0,151,151,29,1
5e13814a1e2e589ca3a4aec2,63f3cfca20052e4ae7554ebf,6453cbc5ffd1e27fda820a93,2023-05-04_17h15.31.063,ga_syllabified_check,2022.2.5,Win32,60.26637739,,,,,,,,,,,,,,./stim/p07_syllable_1_lakatuaisto_hit.wav,p07,lakatuaisto,hit,la-ka-tuais-to,la-ka-tuais-to,la-ka-tu-ais-to,la-ka-tua-is-to,-0.405555556,-0.101851852,1,0,0,2.8,text_option_1,,0,152,152,155,1
5e13814a1e2e589ca3a4aec2,63f3cfca20052e4ae7554ebf,6453cbc5ffd1e27fda820a93,2023-05-04_17h15.31.063,ga_syllabified_check,2022.2.5,Win32,60.26637739,,,,,,,,,,,,,,./stim/p08_syllable_1_lakagiaisto_hit.wav,p08,lakagiaisto,hit,la-ka-gi-jas-to,la-ka-giais-to,la-ka-gi-ais-to,la-ka-gia-is-to,-0.325925926,-0.115740741,1,0,0,5.3351,text_option_1,,0,153,153,182,1
5e13814a1e2e589ca3a4aec2,63f3cfca20052e4ae7554ebf,6453cbc5ffd1e27fda820a93,2023-05-04_17h15.31.063,ga_syllabified_check,2022.2.5,Win32,60.26637739,,,,,,,,,,,,,,./stim/p05_syllable_1_tuliafo_hit.wav,p05,tuliafo,hit,tu-lai-fo,tu-lia-fo,tu-li-a-fo, ,-0.005555556,-0.287037037,1,0,0,1.4376,text_option_other,tulaifo,0,154,154,101,1
5e13814a1e2e589ca3a4aec2,63f3cfca20052e4ae7554ebf,6453cbc5ffd1e27fda820a93,2023-05-04_17h15.31.063,ga_syllabified_check,2022.2.5,Win32,60.26637739,,,,,,,,,,,,,,./stim/p06_syllable_1_pachialo_hit.wav,p06,pachialo,hit,pa-shi-a-lo,pa-chia-lo,pa-chi-a-lo, ,0.386111111,-0.102777778,1,0,0,2.3795,text_option_2,,0,155,155,126,1
5e13814a1e2e589ca3a4aec2,63f3cfca20052e4ae7554ebf,6453cbc5ffd1e27fda820a93,2023-05-04_17h15.31.063,ga_syllabified_check,2022.2.5,Win32,60.26637739,,,,,,,,,,,,,,./stim/p03_syllable_1_lliape_hit.wav,p03,lliape,hit,llia,llia-pe,lli-a-pe, ,-0.42037037,-0.10462963,1,0,0,1.6462,text_option_1,,0,156,156,20,1
5e13814a1e2e589ca3a4aec2,63f3cfca20052e4ae7554ebf,6453cbc5ffd1e27fda820a93,2023-05-04_17h15.31.063,ga_syllabified_check,2022.2.5,Win32,60.26637739,,,,,,,,,,,,,,./stim/p08_syllable_1_falufaisto_hit.wav,p08,falufaisto,hit,fa-lu-fais-to,fa-lu-fais-to,fa-lu-fa-is-to, ,-0.434259259,-0.116666667,1,0,0,2.4013,text_option_1,,0,157,157,173,1
5e13814a1e2e589ca3a4aec2,63f3cfca20052e4ae7554ebf,6453cbc5ffd1e27fda820a93,2023-05-04_17h15.31.063,ga_syllabified_check,2022.2.5,Win32,60.26637739,,,,,,,,,,,,,,./stim/p08_syllable_1_lakapiaisto_hit.wav,p08,lakapiaisto,hit,la-ka-pi-as-to,la-ka-piais-to,la-ka-pi-ais-to,la-ka-pia-is-to,0.064814815,-0.315740741,1,0,0,3.566,text_option_other,lakapiasto,0,158,158,186,1
5e13814a1e2e589ca3a4aec2,63f3cfca20052e4ae7554ebf,6453cbc5ffd1e27fda820a93,2023-05-04_17h15.31.063,ga_syllabified_check,2022.2.5,Win32,60.26637739,,,,,,,,,,,,,,./stim/p07_syllable_1_palufauro_hit.wav,p07,palufauro,hit,pa-lu-fau-ro,pa-lu-fau-ro,pa-lu-fa-u-ro, ,-0.401851852,-0.100925926,1,0,0,1.9501,text_option_1,,0,159,159,161,1
5e13814a1e2e589ca3a4aec2,63f3cfca20052e4ae7554ebf,6453cbc5ffd1e27fda820a93,2023-05-04_17h15.31.063,ga_syllabified_check,2022.2.5,Win32,60.26637739,,,,,,,,,,,,,,./stim/p08_syllable_1_paluguato_hit.wav,p08,paluguato,hit,pa-lu-gua-to,pa-lu-gua-to,pa-lu-gu-a-to, ,-0.369444444,-0.094444444,1,0,0,2.2506,text_option_1,,0,160,160,197,1
5e13814a1e2e589ca3a4aec2,63f3cfca20052e4ae7554ebf,6453cbc5ffd1e27fda820a93,2023-05-04_17h15.31.063,ga_syllabified_check,2022.2.5,Win32,60.26637739,,,,,,,,,,,,,,./stim/p06_syllable_1_palutrauco_hit.wav,p06,palutrauco,hit,pa-lu-tra-u-co,pa-lu-trau-co,pa-lu-tra-u-co, ,0.417592593,-0.099074074,1,0,0,3.1849,text_option_2,,0,161,161,131,1
5e13814a1e2e589ca3a4aec2,63f3cfca20052e4ae7554ebf,6453cbc5ffd1e27fda820a93,2023-05-04_17h15.31.063,ga_syllabified_check,2022.2.5,Win32,60.26637739,,,,,,,,,,,,,,./stim/p04_syllable_1_lakapiaisto_hit.wav,p04,lakapiaisto,hit,la-ka-piais-to,la-ka-piais-to,la-ka-pi-ais-to,la-ka-pia-is-to,-0.409259259,-0.100925926,1,0,0,1.9002,text_option_1,,0,162,162,50,1
5e13814a1e2e589ca3a4aec2,63f3cfca20052e4ae7554ebf,6453cbc5ffd1e27fda820a93,2023-05-04_17h15.31.063,ga_syllabified_check,2022.2.5,Win32,60.26637739,,,,,,,,,,,,,,./stim/p04_syllable_1_flauro_hit.wav,p04,flauro,hit,flau-ro,flau-ro,fla-u-ro, ,-0.394444444,-0.097222222,1,0,0,0.9665,text_option_1,,0,163,163,39,1
5e13814a1e2e589ca3a4aec2,63f3cfca20052e4ae7554ebf,6453cbc5ffd1e27fda820a93,2023-05-04_17h15.31.063,ga_syllabified_check,2022.2.5,Win32,60.26637739,,,,,,,,,,,,,,./stim/p06_syllable_1_lakabiaisto_hit.wav,p06,lakabiaisto,hit,la-ka-bia-is-to,la-ka-biais-to,la-ka-bi-ais-to,la-ka-bia-is-to,0.013888889,-0.10462963,1,0,0,5.0007,text_option_3,,0,164,164,108,1
5e13814a1e2e589ca3a4aec2,63f3cfca20052e4ae7554ebf,6453cbc5ffd1e27fda820a93,2023-05-04_17h15.31.063,ga_syllabified_check,2022.2.5,Win32,60.26637739,,,,,,,,,,,,,,./stim/p04_syllable_1_palufauro_hit.wav,p04,palufauro,hit,pa-lu-fau-ro,pa-lu-fau-ro,pa-lu-fa-u-ro, ,-0.363888889,-0.094444444,1,0,0,1.6337,text_option_1,,0,165,165,59,1
5e13814a1e2e589ca3a4aec2,63f3cfca20052e4ae7554ebf,6453cbc5ffd1e27fda820a93,2023-05-04_17h15.31.063,ga_syllabified_check,2022.2.5,Win32,60.26637739,,,,,,,,,,,,,,./stim/p07_syllable_1_lliape_hit.wav,p07,lliape,hit,lliai-pe,llia-pe,lli-a-pe, ,-0.381481481,-0.1,1,0,0,2.367,text_option_1,,0,166,166,156,1
5e13814a1e2e589ca3a4aec2,63f3cfca20052e4ae7554ebf,6453cbc5ffd1e27fda820a93,2023-05-04_17h15.31.063,ga_syllabified_check,2022.2.5,Win32,60.26637739,,,,,,,,,,,,,,./stim/p05_syllable_1_lakaguaisto_hit.wav,p05,lakaguaisto,hit,la-ka-gais,la-ka-guais-to,la-ka-gu-ais-to,la-ka-gua-is-to,0.003703704,-0.300925926,1,0,0,4.6168,text_option_other,lakagaisto,0,167,167,81,1
5e13814a1e2e589ca3a4aec2,63f3cfca20052e4ae7554ebf,6453cbc5ffd1e27fda820a93,2023-05-04_17h15.31.063,ga_syllabified_check,2022.2.5,Win32,60.26637739,,,,,,,,,,,,,,./stim/p03_syllable_1_pachialo_hit.wav,p03,pachialo,hit,pa-chia-lo,pa-chia-lo,pa-chi-a-lo, ,-0.373148148,-0.096296296,1,0,0,1.7505,text_option_1,,0,168,168,24,1
5e13814a1e2e589ca3a4aec2,63f3cfca20052e4ae7554ebf,6453cbc5ffd1e27fda820a93,2023-05-04_17h15.31.063,ga_syllabified_check,2022.2.5,Win32,60.26637739,,,,,,,,,,,,,,./stim/p04_syllable_1_tuliafo_hit.wav,p04,tuliafo,hit,tu-lia-fo,tu-lia-fo,tu-li-a-fo, ,-0.375925926,-0.106481481,1,0,0,1.0836,text_option_1,,0,169,169,67,1
5e13814a1e2e589ca3a4aec2,63f3cfca20052e4ae7554ebf,6453cbc5ffd1e27fda820a93,2023-05-04_17h15.31.063,ga_syllabified_check,2022.2.5,Win32,60.26637739,,,,,,,,,,,,,,./stim/p05_syllable_1_lakafuaisto_hit.wav,p05,lakafuaisto,hit,la-ka-fais-to,la-ka-fuais-to,la-ka-fu-ais-to,la-ka-fua-is-to,0.014814815,-0.312962963,1,0,0,3.2181,text_option_other,lakafaisto,0,170,170,79,1
5e13814a1e2e589ca3a4aec2,63f3cfca20052e4ae7554ebf,6453cbc5ffd1e27fda820a93,2023-05-04_17h15.31.063,ga_syllabified_check,2022.2.5,Win32,60.26637739,,,,,,,,,,,,,,./stim/p05_syllable_1_costonhialo_hit.wav,p05,costoñialo,hit,cos-to-nhia-lo,cos-to-ñia-lo,cos-to-ñi-a-lo, ,-0.368518519,-0.090740741,1,0,0,2.067,text_option_1,,0,171,171,69,1
5e13814a1e2e589ca3a4aec2,63f3cfca20052e4ae7554ebf,6453cbc5ffd1e27fda820a93,2023-05-04_17h15.31.063,ga_syllabified_check,2022.2.5,Win32,60.26637739,,,,,,,,,,,,,,./stim/p03_syllable_1_manhiala_hit.wav,p03,mañiala,hit,ma-nhia-la,ma-ñia-la,ma-ñi-a-la, ,-0.412962963,-0.108333333,1,0,0,1.367,text_option_1,,0,172,172,21,1
5e13814a1e2e589ca3a4aec2,63f3cfca20052e4ae7554ebf,6453cbc5ffd1e27fda820a93,2023-05-04_17h15.31.063,ga_syllabified_check,2022.2.5,Win32,60.26637739,,,,,,,,,,,,,,./stim/p03_syllable_1_palufauro_hit.wav,p03,palufauro,hit,pa-lu-fau-ro,pa-lu-fau-ro,pa-lu-fa-u-ro, ,-0.388888889,-0.087037037,1,0,0,1.621,text_option_1,,0,173,173,25,1
5e13814a1e2e589ca3a4aec2,63f3cfca20052e4ae7554ebf,6453cbc5ffd1e27fda820a93,2023-05-04_17h15.31.063,ga_syllabified_check,2022.2.5,Win32,60.26637739,,,,,,,,,,,,,,./stim/p07_syllable_1_palufauto_hit.wav,p07,palufauto,hit,pa-lu-fau-to,pa-lu-fau-to,pa-lu-fa-u-to, ,-0.365740741,-0.10462963,1,0,0,2.147,text_option_1,,0,174,174,162,1
5e13814a1e2e589ca3a4aec2,63f3cfca20052e4ae7554ebf,6453cbc5ffd1e27fda820a93,2023-05-04_17h15.31.063,ga_syllabified_check,2022.2.5,Win32,60.26637739,,,,,,,,,,,,,,./stim/p03_syllable_1_lakaguaisto_hit.wav,p03,lakaguaisto,hit,la-ka-guais-to,la-ka-guais-to,la-ka-gu-ais-to,la-ka-gua-is-to,-0.380555556,-0.106481481,1,0,0,1.8,text_option_1,,0,175,175,13,1
5e13814a1e2e589ca3a4aec2,63f3cfca20052e4ae7554ebf,6453cbc5ffd1e27fda820a93,2023-05-04_17h15.31.063,ga_syllabified_check,2022.2.5,Win32,60.26637739,,,,,,,,,,,,,,./stim/p05_syllable_1_palutrauco_hit.wav,p05,palutrauco,hit,pa-lu-trai-co,pa-lu-trau-co,pa-lu-tra-u-co, ,-0.038888889,-0.288888889,1,0,0,1.8828,text_option_other,palutraico,0,176,176,97,1
5e13814a1e2e589ca3a4aec2,63f3cfca20052e4ae7554ebf,6453cbc5ffd1e27fda820a93,2023-05-04_17h15.31.063,ga_syllabified_check,2022.2.5,Win32,60.26637739,,,,,,,,,,,,,,./stim/p03_syllable_1_lakapuaisto_hit.wav,p03,lakapuaisto,hit,la-ka-puais-to,la-ka-puais-to,la-ka-pu-ais-to,la-ka-pua-is-to,-0.381481481,-0.1,1,0,0,1.9005,text_option_1,,0,177,177,17,1
5e13814a1e2e589ca3a4aec2,63f3cfca20052e4ae7554ebf,6453cbc5ffd1e27fda820a93,2023-05-04_17h15.31.063,ga_syllabified_check,2022.2.5,Win32,60.26637739,,,,,,,,,,,,,,./stim/p07_syllable_1_pachialo_hit.wav,p07,pachialo,hit,pa-cha-lo,pa-chia-lo,pa-chi-a-lo, ,-0.014814815,-0.296296296,1,0,0,1.6667,text_option_other,pachalo,0,178,178,160,1
5e13814a1e2e589ca3a4aec2,63f3cfca20052e4ae7554ebf,6453cbc5ffd1e27fda820a93,2023-05-04_17h15.31.063,ga_syllabified_check,2022.2.5,Win32,60.26637739,,,,,,,,,,,,,,./stim/p04_syllable_1_palumaisto_hit.wav,p04,palumaisto,hit,pa-lu-mais-to,pa-lu-mais-to,pa-lu-ma-is-to, ,-0.39537037,-0.103703704,1,0,0,1.7006,text_option_1,,0,179,179,62,1
5e13814a1e2e589ca3a4aec2,63f3cfca20052e4ae7554ebf,6453cbc5ffd1e27fda820a93,2023-05-04_17h15.31.063,ga_syllabified_check,2022.2.5,Win32,60.26637739,,,,,,,,,,,,,,./stim/p07_syllable_1_payielo_hit.wav,p07,payielo,hit,pa-yie-lo,pa-yie-lo,pa-yi-e-lo, ,-0.380555556,-0.100925926,1,0,0,2.0204,text_option_1,,0,180,180,166,1
5e13814a1e2e589ca3a4aec2,63f3cfca20052e4ae7554ebf,6453cbc5ffd1e27fda820a93,2023-05-04_17h15.31.063,ga_syllabified_check,2022.2.5,Win32,60.26637739,,,,,,,,,,,,,,./stim/p05_syllable_1_lakatuaisto_hit.wav,p05,lakatuaisto,hit,la-ka-tais-to,la-ka-tuais-to,la-ka-tu-ais-to,la-ka-tua-is-to,-0.075925926,-0.289814815,1,0,0,4.1504,text_option_other,lakataisto,0,181,181,87,1
5e13814a1e2e589ca3a4aec2,63f3cfca20052e4ae7554ebf,6453cbc5ffd1e27fda820a93,2023-05-04_17h15.31.063,ga_syllabified_check,2022.2.5,Win32,60.26637739,,,,,,,,,,,,,,./stim/p03_syllable_1_mebochiana_hit.wav,p03,mebochiana,hit,me-bo-chia-na,me-bo-chia-na,me-bo-chi-a-na, ,-0.387037037,-0.1,1,0,0,1.9132,text_option_1,,0,182,182,22,1
5e13814a1e2e589ca3a4aec2,63f3cfca20052e4ae7554ebf,6453cbc5ffd1e27fda820a93,2023-05-04_17h15.31.063,ga_syllabified_check,2022.2.5,Win32,60.26637739,,,,,,,,,,,,,,./stim/p07_syllable_1_palumaisto_hit.wav,p07,palumaisto,hit,pa-lu-mais-to,pa-lu-mais-to,pa-lu-ma-is-to, ,-0.378703704,-0.096296296,1,0,0,3.2513,text_option_1,,0,183,183,164,1
5e13814a1e2e589ca3a4aec2,63f3cfca20052e4ae7554ebf,6453cbc5ffd1e27fda820a93,2023-05-04_17h15.31.063,ga_syllabified_check,2022.2.5,Win32,60.26637739,,,,,,,,,,,,,,./stim/p05_syllable_1_lakaduaisto_hit.wav,p05,lakaduaisto,hit,la-ka-dais-to,la-ka-duais-to,la-ka-du-ais-to,la-ka-dua-is-to,-0.401851852,-0.096296296,1,0,0,1.6509,text_option_1,,0,184,184,77,1
5e13814a1e2e589ca3a4aec2,63f3cfca20052e4ae7554ebf,6453cbc5ffd1e27fda820a93,2023-05-04_17h15.31.063,ga_syllabified_check,2022.2.5,Win32,60.26637739,,,,,,,,,,,,,,./stim/p04_syllable_1_lakabiaisto_hit.wav,p04,lakabiaisto,hit,la-ka-biais-to,la-ka-biais-to,la-ka-bi-ais-to,la-ka-bia-is-to,-0.389814815,-0.100925926,1,0,0,1.1535,text_option_1,,0,185,185,40,1
5e13814a1e2e589ca3a4aec2,63f3cfca20052e4ae7554ebf,6453cbc5ffd1e27fda820a93,2023-05-04_17h15.31.063,ga_syllabified_check,2022.2.5,Win32,60.26637739,,,,,,,,,,,,,,./stim/p03_syllable_1_lakabuaisto_hit.wav,p03,lakabuaisto,hit,la-ka-buais-to,la-ka-buais-to,la-ka-bu-ais-to,la-ka-bua-is-to,-0.389814815,-0.100925926,1,0,0,1.5497,text_option_1,,0,186,186,7,1
5e13814a1e2e589ca3a4aec2,63f3cfca20052e4ae7554ebf,6453cbc5ffd1e27fda820a93,2023-05-04_17h15.31.063,ga_syllabified_check,2022.2.5,Win32,60.26637739,,,,,,,,,,,,,,./stim/p08_syllable_1_nhiape_hit.wav,p08,ñiape,hit,ni-a-pe,ñia-pe,ñi-a-pe, ,-0.390740741,-0.101851852,1,0,0,1.917,text_option_1,,0,187,187,193,1
5e13814a1e2e589ca3a4aec2,63f3cfca20052e4ae7554ebf,6453cbc5ffd1e27fda820a93,2023-05-04_17h15.31.063,ga_syllabified_check,2022.2.5,Win32,60.26637739,,,,,,,,,,,,,,./stim/p04_syllable_1_payielo_hit.wav,p04,payielo,hit,pa-yie-lo,pa-yie-lo,pa-yi-e-lo, ,-0.390740741,-0.101851852,1,0,0,1.1516,text_option_1,,0,188,188,64,1
5e13814a1e2e589ca3a4aec2,63f3cfca20052e4ae7554ebf,6453cbc5ffd1e27fda820a93,2023-05-04_17h15.31.063,ga_syllabified_check,2022.2.5,Win32,60.26637739,,,,,,,,,,,,,,./stim/p05_syllable_1_mebochiana_hit.wav,p05,mebochiana,hit,me-cho-chai-na,me-bo-chia-na,me-bo-chi-a-na, ,0.086111111,-0.287962963,1,0,0,1.617,text_option_other,mechochana,0,189,189,90,1
5e13814a1e2e589ca3a4aec2,63f3cfca20052e4ae7554ebf,6453cbc5ffd1e27fda820a93,2023-05-04_17h15.31.063,ga_syllabified_check,2022.2.5,Win32,60.26637739,,,,,,,,,,,,,,./stim/p05_syllable_1_chiaba_hit.wav,p05,chiaba,hit,chia-ba,chia-ba,chi-a-ba, ,-0.365740741,-0.089814815,1,0,0,1.5834,text_option_1,,0,190,190,68,1
5e13814a1e2e589ca3a4aec2,63f3cfca20052e4ae7554ebf,6453cbc5ffd1e27fda820a93,2023-05-04_17h15.31.063,ga_syllabified_check,2022.2.5,Win32,60.26637739,,,,,,,,,,,,,,./stim/p04_syllable_1_lakabuaisto_hit.wav,p04,lakabuaisto,hit,la-ka-buais-to,la-ka-buais-to,la-ka-bu-ais-to,la-ka-bua-is-to,-0.35462963,-0.09537037,1,0,0,1.4673,text_option_1,,0,191,191,41,1
5e13814a1e2e589ca3a4aec2,63f3cfca20052e4ae7554ebf,6453cbc5ffd1e27fda820a93,2023-05-04_17h15.31.063,ga_syllabified_check,2022.2.5,Win32,60.26637739,,,,,,,,,,,,,,./stim/p03_syllable_1_lakakuaisto_hit.wav,p03,lakakuaisto,hit,la-ka-kuais-to,la-ka-kuais-to,la-ka-ku-ais-to,la-ka-kua-is-to,-0.35462963,-0.09537037,1,0,0,1.6171,text_option_1,,0,192,192,15,1
5e13814a1e2e589ca3a4aec2,63f3cfca20052e4ae7554ebf,6453cbc5ffd1e27fda820a93,2023-05-04_17h15.31.063,ga_syllabified_check,2022.2.5,Win32,60.26637739,,,,,,,,,,,,,,./stim/p05_syllable_1_lakapiaisto_hit.wav,p05,lakapiaisto,hit,la-ka-pais-to,la-ka-piais-to,la-ka-pi-ais-to,la-ka-pia-is-to,-0.328703704,-0.1,1,0,0,2.6336,text_option_1,,0,193,193,84,1
5e13814a1e2e589ca3a4aec2,63f3cfca20052e4ae7554ebf,6453cbc5ffd1e27fda820a93,2023-05-04_17h15.31.063,ga_syllabified_check,2022.2.5,Win32,60.26637739,,,,,,,,,,,,,,./stim/p08_syllable_1_lakakiaisto_hit.wav,p08,lakakiaisto,hit,la-ka-ki-jas-to,la-ka-kiais-to,la-ka-ki-ais-to,la-ka-kia-is-to,-0.353703704,-0.109259259,1,0,0,3.7042,text_option_1,,0,194,194,184,1
5e13814a1e2e589ca3a4aec2,63f3cfca20052e4ae7554ebf,6453cbc5ffd1e27fda820a93,2023-05-04_17h15.31.063,ga_syllabified_check,2022.2.5,Win32,60.26637739,,,,,,,,,,,,,,./stim/p04_syllable_1_lakatuaisto_hit.wav,p04,lakatuaisto,hit,la-ka-kuais-to,la-ka-tuais-to,la-ka-tu-ais-to,la-ka-tua-is-to,-0.350925926,-0.10462963,1,0,0,1.517,text_option_1,,0,195,195,53,1
5e13814a1e2e589ca3a4aec2,63f3cfca20052e4ae7554ebf,6453cbc5ffd1e27fda820a93,2023-05-04_17h15.31.063,ga_syllabified_check,2022.2.5,Win32,60.26637739,,,,,,,,,,,,,,./stim/p07_syllable_1_lakakiaisto_hit.wav,p07,lakakiaisto,hit,la-ka-kais-to,la-ka-kiais-to,la-ka-ki-ais-to,la-ka-kia-is-to,-0.377777778,-0.105555556,1,0,0,2.3338,text_option_1,,0,196,196,150,1
5e13814a1e2e589ca3a4aec2,63f3cfca20052e4ae7554ebf,6453cbc5ffd1e27fda820a93,2023-05-04_17h15.31.063,ga_syllabified_check,2022.2.5,Win32,60.26637739,,,,,,,,,,,,,,./stim/p04_syllable_1_faluduako_hit.wav,p04,faluduako,hit,fa-lu-dua-ko,fa-lu-dua-ko,fa-lu-du-a-ko, ,-0.385185185,-0.106481481,1,0,0,0.9169,text_option_1,,0,197,197,36,1
5e13814a1e2e589ca3a4aec2,63f3cfca20052e4ae7554ebf,6453cbc5ffd1e27fda820a93,2023-05-04_17h15.31.063,ga_syllabified_check,2022.2.5,Win32,60.26637739,,,,,,,,,,,,,,./stim/p07_syllable_1_palutrauco_hit.wav,p07,palutrauco,hit,pa-lu-trau-co,pa-lu-trau-co,pa-lu-tra-u-co, ,-0.385185185,-0.106481481,1,0,0,1.1674,text_option_1,,0,198,198,165,1
5e13814a1e2e589ca3a4aec2,63f3cfca20052e4ae7554ebf,6453cbc5ffd1e27fda820a93,2023-05-04_17h15.31.063,ga_syllabified_check,2022.2.5,Win32,60.26637739,,,,,,,,,,,,,,./stim/p06_syllable_1_palumaisto_hit.wav,p06,palumaisto,hit,pa-lu-ma-is-to,pa-lu-mais-to,pa-lu-ma-is-to, ,0.418518519,-0.107407407,1,0,0,3.6472,text_option_2,,0,199,199,130,1
5e13814a1e2e589ca3a4aec2,63f3cfca20052e4ae7554ebf,6453cbc5ffd1e27fda820a93,2023-05-04_17h15.31.063,ga_syllabified_check,2022.2.5,Win32,60.26637739,,,,,,,,,,,,,,./stim/p05_syllable_1_falutraigo_hit.wav,p05,falutraigo,hit,fa-lu-trai-go,fa-lu-trai-go,fa-lu-tra-i-go, ,-0.348148148,-0.093518519,1,0,0,1.9503,text_option_1,,0,200,200,72,1
5e13814a1e2e589ca3a4aec2,63f3cfca20052e4ae7554ebf,6453cbc5ffd1e27fda820a93,2023-05-04_17h15.31.063,ga_syllabified_check,2022.2.5,Win32,60.26637739,,,,,,,,,,,,,,./stim/p03_syllable_1_nhiape_hit.wav,p03,ñiape,hit,nhia-pe,ñia-pe,ñi-a-pe, ,-0.375,-0.088888889,1,0,0,1.0508,text_option_1,,0,201,201,23,1
5e13814a1e2e589ca3a4aec2,63f3cfca20052e4ae7554ebf,6453cbc5ffd1e27fda820a93,2023-05-04_17h15.31.063,ga_syllabified_check,2022.2.5,Win32,60.26637739,,,,,,,,,,,,,,./stim/p06_syllable_1_paluguato_hit.wav,p06,paluguato,hit,pa-lu-gua-to,pa-lu-gua-to,pa-lu-gu-a-to, ,-0.391666667,-0.101851852,1,0,0,2.7165,text_option_1,,0,202,202,129,1
5e13814a1e2e589ca3a4aec2,63f3cfca20052e4ae7554ebf,6453cbc5ffd1e27fda820a93,2023-05-04_17h15.31.063,ga_syllabified_check,2022.2.5,Win32,60.26637739,,,,,,,,,,,,,,./stim/p07_syllable_1_lakapuaisto_hit.wav,p07,lakapuaisto,hit,la-ka-puais-to,la-ka-puais-to,la-ka-pu-ais-to,la-ka-pua-is-to,-0.421296296,-0.096296296,1,0,0,3.0523,text_option_1,,0,203,203,153,1
5e13814a1e2e589ca3a4aec2,63f3cfca20052e4ae7554ebf,6453cbc5ffd1e27fda820a93,2023-05-04_17h15.31.063,ga_syllabified_check,2022.2.5,Win32,60.26637739,,,,,,,,,,,,,,,,,,,,,,,,,,,,,,,,,,
