participant,study,session,date,expName,psychopyVersion,OS,frameRate,mouse_practice.x,mouse_practice.y,mouse_practice.leftButton,mouse_practice.midButton,mouse_practice.rightButton,mouse_practice.time,mouse_practice.clicked_name,textbox_followup_practice.text,trials_practice.thisRepN,trials_practice.thisTrialN,trials_practice.thisN,trials_practice.thisIndex,trials_practice.ran,file_path,id,item,status,response,op1,op2,op3,mouse.x,mouse.y,mouse.leftButton,mouse.midButton,mouse.rightButton,mouse.time,mouse.clicked_name,textbox_followup.text,trials.thisRepN,trials.thisTrialN,trials.thisN,trials.thisIndex,trials.ran
5e945bd5f0329801e7cebca0,63f3cfca20052e4ae7554ebf,6453cb6c75003cb60abb95aa,2023-05-04_17h12.54.756,ga_syllabified_check,2022.2.5,Win32,59.53798523,,,,,,,,,,,,,,,,,,,,,,,,,,,,,,,,,,
5e945bd5f0329801e7cebca0,63f3cfca20052e4ae7554ebf,6453cb6c75003cb60abb95aa,2023-05-04_17h12.54.756,ga_syllabified_check,2022.2.5,Win32,59.53798523,-0.009605123,-0.303628602,1,0,0,3.25,text_option_other_practice,liamo,0,0,0,0,1,./stim/p03_syllable_1_liamo_hit.wav,p03,liamo,hit,lia-mo,lia-mo,li-a-mo, ,,,,,,,,,,,,,
5e945bd5f0329801e7cebca0,63f3cfca20052e4ae7554ebf,6453cb6c75003cb60abb95aa,2023-05-04_17h12.54.756,ga_syllabified_check,2022.2.5,Win32,59.53798523,-0.388473853,-0.099786553,1,0,0,2.2002,text_option_1_practice,,0,1,1,1,1,./stim/p05_syllable_1_matio_hit.wav,p05,matio,hit,ma-tio,ma-tio,ma-ti-o, ,,,,,,,,,,,,,
5e945bd5f0329801e7cebca0,63f3cfca20052e4ae7554ebf,6453cb6c75003cb60abb95aa,2023-05-04_17h12.54.756,ga_syllabified_check,2022.2.5,Win32,59.53798523,0.37886873,-0.092315902,1,0,0,1.85,text_option_2_practice,,0,2,2,2,1,./stim/p08_syllable_1_liamo_hit.wav,p08,liamo,hit,ja-mo,lia-mo,li-a-mo, ,,,,,,,,,,,,,
5e945bd5f0329801e7cebca0,63f3cfca20052e4ae7554ebf,6453cb6c75003cb60abb95aa,2023-05-04_17h12.54.756,ga_syllabified_check,2022.2.5,Win32,59.53798523,,,,,,,,,,,,,,,,,,,,,,,,,,,,,,,,,,
5e945bd5f0329801e7cebca0,63f3cfca20052e4ae7554ebf,6453cb6c75003cb60abb95aa,2023-05-04_17h12.54.756,ga_syllabified_check,2022.2.5,Win32,59.53798523,,,,,,,,,,,,,,./stim/p07_syllable_1_lakapuaisto_hit.wav,p07,lakapuaisto,hit,la-ka-puais-to,la-ka-puais-to,la-ka-pu-ais-to,la-ka-pua-is-to,-0.302027748,-0.098719317,1,0,0,3.3678,text_option_1,,0,0,0,153,1
5e945bd5f0329801e7cebca0,63f3cfca20052e4ae7554ebf,6453cb6c75003cb60abb95aa,2023-05-04_17h12.54.756,ga_syllabified_check,2022.2.5,Win32,59.53798523,,,,,,,,,,,,,,./stim/p04_syllable_1_manhiala_hit.wav,p04,mañiala,hit,ma-nhia-la,ma-ñia-la,ma-ñi-a-la, ,-0.389541089,-0.093383138,1,0,0,1.8999,text_option_1,,0,1,1,55,1
5e945bd5f0329801e7cebca0,63f3cfca20052e4ae7554ebf,6453cb6c75003cb60abb95aa,2023-05-04_17h12.54.756,ga_syllabified_check,2022.2.5,Win32,59.53798523,,,,,,,,,,,,,,./stim/p06_syllable_1_lakakiaisto_hit.wav,p06,lakakiaisto,hit,la-ka-kia-is-to,la-ka-kiais-to,la-ka-ki-ais-to,la-ka-kia-is-to,-0.016008538,-0.100853789,1,0,0,5.75,text_option_3,,0,2,2,116,1
5e945bd5f0329801e7cebca0,63f3cfca20052e4ae7554ebf,6453cb6c75003cb60abb95aa,2023-05-04_17h12.54.756,ga_syllabified_check,2022.2.5,Win32,59.53798523,,,,,,,,,,,,,,./stim/p06_syllable_1_falufaisto_hit.wav,p06,falufaisto,hit,fa-lu-fa-is-to,fa-lu-fais-to,fa-lu-fa-is-to, ,0.379935966,-0.111526147,1,0,0,2.7334,text_option_2,,0,3,3,105,1
5e945bd5f0329801e7cebca0,63f3cfca20052e4ae7554ebf,6453cb6c75003cb60abb95aa,2023-05-04_17h12.54.756,ga_syllabified_check,2022.2.5,Win32,59.53798523,,,,,,,,,,,,,,./stim/p05_syllable_1_nhiape_hit.wav,p05,ñiape,hit,nhia-pe,ñia-pe,ñi-a-pe, ,-0.388473853,-0.10298826,1,0,0,1.4164,text_option_1,,0,4,4,91,1
5e945bd5f0329801e7cebca0,63f3cfca20052e4ae7554ebf,6453cb6c75003cb60abb95aa,2023-05-04_17h12.54.756,ga_syllabified_check,2022.2.5,Win32,59.53798523,,,,,,,,,,,,,,./stim/p07_syllable_1_lakafuaisto_hit.wav,p07,lakafuaisto,hit,la-ka-fuais-to,la-ka-fuais-to,la-ka-fu-ais-to,la-ka-fua-is-to,-0.353255069,-0.101921025,1,0,0,3.3332,text_option_1,,0,5,5,147,1
5e945bd5f0329801e7cebca0,63f3cfca20052e4ae7554ebf,6453cb6c75003cb60abb95aa,2023-05-04_17h12.54.756,ga_syllabified_check,2022.2.5,Win32,59.53798523,,,,,,,,,,,,,,./stim/p07_syllable_1_pachialo_hit.wav,p07,pachialo,hit,pa-cha-lo,pa-chia-lo,pa-chi-a-lo, ,-0.340448239,-0.095517609,1,0,0,1.5499,text_option_1,,0,6,6,160,1
5e945bd5f0329801e7cebca0,63f3cfca20052e4ae7554ebf,6453cb6c75003cb60abb95aa,2023-05-04_17h12.54.756,ga_syllabified_check,2022.2.5,Win32,59.53798523,,,,,,,,,,,,,,./stim/p05_syllable_1_lakaduaisto_hit.wav,p05,lakaduaisto,hit,la-ka-dais-to,la-ka-duais-to,la-ka-du-ais-to,la-ka-dua-is-to,-0.026680896,-0.306830309,1,0,0,3.5,text_option_other,la-ka-dais-to,0,7,7,77,1
5e945bd5f0329801e7cebca0,63f3cfca20052e4ae7554ebf,6453cb6c75003cb60abb95aa,2023-05-04_17h12.54.756,ga_syllabified_check,2022.2.5,Win32,59.53798523,,,,,,,,,,,,,,./stim/p05_syllable_1_tuliafo_hit.wav,p05,tuliafo,hit,tu-lai-fo,tu-lia-fo,tu-li-a-fo, ,-0.002134472,-0.296157951,1,0,0,3.8999,text_option_other,tu-lai-fo,0,8,8,101,1
5e945bd5f0329801e7cebca0,63f3cfca20052e4ae7554ebf,6453cb6c75003cb60abb95aa,2023-05-04_17h12.54.756,ga_syllabified_check,2022.2.5,Win32,59.53798523,,,,,,,,,,,,,,./stim/p03_syllable_1_lakakuaisto_hit.wav,p03,lakakuaisto,hit,la-ka-kuais-to,la-ka-kuais-to,la-ka-ku-ais-to,la-ka-kua-is-to,-0.355389541,-0.10298826,1,0,0,1.5001,text_option_1,,0,9,9,15,1
5e945bd5f0329801e7cebca0,63f3cfca20052e4ae7554ebf,6453cb6c75003cb60abb95aa,2023-05-04_17h12.54.756,ga_syllabified_check,2022.2.5,Win32,59.53798523,,,,,,,,,,,,,,./stim/p03_syllable_1_pachialo_hit.wav,p03,pachialo,hit,pa-chia-lo,pa-chia-lo,pa-chi-a-lo, ,-0.355389541,-0.10298826,1,0,0,1.0168,text_option_1,,0,10,10,24,1
5e945bd5f0329801e7cebca0,63f3cfca20052e4ae7554ebf,6453cb6c75003cb60abb95aa,2023-05-04_17h12.54.756,ga_syllabified_check,2022.2.5,Win32,59.53798523,,,,,,,,,,,,,,./stim/p06_syllable_1_lakatiaisto_hit.wav,p06,lakatiaisto,hit,la-ka-pia-is-to,la-ka-tiais-to,la-ka-ti-ais-to,la-ka-tia-is-to,0.080042689,-0.104055496,1,0,0,3.1335,text_option_3,,0,11,11,120,1
5e945bd5f0329801e7cebca0,63f3cfca20052e4ae7554ebf,6453cb6c75003cb60abb95aa,2023-05-04_17h12.54.756,ga_syllabified_check,2022.2.5,Win32,59.53798523,,,,,,,,,,,,,,./stim/p08_syllable_1_lakatiaisto_hit.wav,p08,lakatiaisto,hit,la-ka-ti-as-to,la-ka-tiais-to,la-ka-ti-ais-to,la-ka-tia-is-to,0.080042689,-0.104055496,1,0,0,0.0336,text_option_3,,0,12,12,188,1
5e945bd5f0329801e7cebca0,63f3cfca20052e4ae7554ebf,6453cb6c75003cb60abb95aa,2023-05-04_17h12.54.756,ga_syllabified_check,2022.2.5,Win32,59.53798523,,,,,,,,,,,,,,./stim/p08_syllable_1_chiaba_hit.wav,p08,chiaba,hit,chi-a-ba,chia-ba,chi-a-ba, ,0.399146211,-0.094450374,1,0,0,0.8166,text_option_2,,0,13,13,170,1
5e945bd5f0329801e7cebca0,63f3cfca20052e4ae7554ebf,6453cb6c75003cb60abb95aa,2023-05-04_17h12.54.756,ga_syllabified_check,2022.2.5,Win32,59.53798523,,,,,,,,,,,,,,./stim/p06_syllable_1_lakapiaisto_hit.wav,p06,lakapiaisto,hit,la-ka-pia-is-to,la-ka-piais-to,la-ka-pi-ais-to,la-ka-pia-is-to,0.052294557,-0.114727855,1,0,0,4.9492,text_option_3,,0,14,14,118,1
5e945bd5f0329801e7cebca0,63f3cfca20052e4ae7554ebf,6453cb6c75003cb60abb95aa,2023-05-04_17h12.54.756,ga_syllabified_check,2022.2.5,Win32,59.53798523,,,,,,,,,,,,,,./stim/p08_syllable_1_lakatuaisto_hit.wav,p08,lakatuaisto,hit,la-ka-tu-i-jis,la-ka-tuais-to,la-ka-tu-ais-to,la-ka-tua-is-to,0.06189968,-0.310032017,1,0,0,4.1341,text_option_other,la-ka-tuis-to,0,15,15,189,1
5e945bd5f0329801e7cebca0,63f3cfca20052e4ae7554ebf,6453cb6c75003cb60abb95aa,2023-05-04_17h12.54.756,ga_syllabified_check,2022.2.5,Win32,59.53798523,,,,,,,,,,,,,,./stim/p08_syllable_1_nhiape_hit.wav,p08,ñiape,hit,ni-a-pe,ñia-pe,ñi-a-pe, ,0.390608324,-0.10298826,1,0,0,2.7444,text_option_2,,0,16,16,193,1
5e945bd5f0329801e7cebca0,63f3cfca20052e4ae7554ebf,6453cb6c75003cb60abb95aa,2023-05-04_17h12.54.756,ga_syllabified_check,2022.2.5,Win32,59.53798523,,,,,,,,,,,,,,./stim/p06_syllable_1_lakafiaisto_hit.wav,p06,lakafiaisto,hit,la-ka-fia-is-to,la-ka-fiais-to,la-ka-fi-ais-to,la-ka-fia-is-to,0.040554963,-0.100853789,1,0,0,3.2,text_option_3,,0,17,17,112,1
5e945bd5f0329801e7cebca0,63f3cfca20052e4ae7554ebf,6453cb6c75003cb60abb95aa,2023-05-04_17h12.54.756,ga_syllabified_check,2022.2.5,Win32,59.53798523,,,,,,,,,,,,,,./stim/p05_syllable_1_lakabuaisto_hit.wav,p05,lakabuaisto,hit,la-ka-buais-to,la-ka-buais-to,la-ka-bu-ais-to,la-ka-bua-is-to,-0.357524013,-0.09018143,1,0,0,1.826,text_option_1,,0,18,18,75,1
5e945bd5f0329801e7cebca0,63f3cfca20052e4ae7554ebf,6453cb6c75003cb60abb95aa,2023-05-04_17h12.54.756,ga_syllabified_check,2022.2.5,Win32,59.53798523,,,,,,,,,,,,,,./stim/p07_syllable_1_palufauro_hit.wav,p07,palufauro,hit,pa-lu-fau-ro,pa-lu-fau-ro,pa-lu-fa-u-ro, ,-0.330843116,-0.10298826,1,0,0,1.6471,text_option_1,,0,19,19,161,1
5e945bd5f0329801e7cebca0,63f3cfca20052e4ae7554ebf,6453cb6c75003cb60abb95aa,2023-05-04_17h12.54.756,ga_syllabified_check,2022.2.5,Win32,59.53798523,,,,,,,,,,,,,,./stim/p08_syllable_1_flauro_hit.wav,p08,flauro,hit,flau-ro,flau-ro,fla-u-ro, ,-0.398078975,-0.091248666,1,0,0,1.5833,text_option_1,,0,20,20,175,1
5e945bd5f0329801e7cebca0,63f3cfca20052e4ae7554ebf,6453cb6c75003cb60abb95aa,2023-05-04_17h12.54.756,ga_syllabified_check,2022.2.5,Win32,59.53798523,,,,,,,,,,,,,,./stim/p08_syllable_1_lliape_hit.wav,p08,lliape,hit,li-a-pe,llia-pe,lli-a-pe, ,0.374599787,-0.10832444,1,0,0,0.8842,text_option_2,,0,21,21,190,1
5e945bd5f0329801e7cebca0,63f3cfca20052e4ae7554ebf,6453cb6c75003cb60abb95aa,2023-05-04_17h12.54.756,ga_syllabified_check,2022.2.5,Win32,59.53798523,,,,,,,,,,,,,,./stim/p08_syllable_1_lakapuaisto_hit.wav,p08,lakapuaisto,hit,la-ka-pu-as-to,la-ka-puais-to,la-ka-pu-ais-to,la-ka-pua-is-to,0.37886873,-0.092315902,1,0,0,3.4404,text_option_2,,0,22,22,187,1
5e945bd5f0329801e7cebca0,63f3cfca20052e4ae7554ebf,6453cb6c75003cb60abb95aa,2023-05-04_17h12.54.756,ga_syllabified_check,2022.2.5,Win32,59.53798523,,,,,,,,,,,,,,./stim/p08_syllable_1_falutraigo_hit.wav,p08,falutraigo,hit,fa-lu-trai-go,fa-lu-trai-go,fa-lu-tra-i-go, ,-0.376734258,-0.109391676,1,0,0,2.3164,text_option_1,,0,23,23,174,1
5e945bd5f0329801e7cebca0,63f3cfca20052e4ae7554ebf,6453cb6c75003cb60abb95aa,2023-05-04_17h12.54.756,ga_syllabified_check,2022.2.5,Win32,59.53798523,,,,,,,,,,,,,,./stim/p06_syllable_1_lakabuaisto_hit.wav,p06,lakabuaisto,hit,la-ka-bu-a-is,la-ka-buais-to,la-ka-bu-ais-to,la-ka-bua-is-to,0.072572038,-0.306830309,1,0,0,4.9503,text_option_other,la-ka-bu-a-is-to,0,24,24,109,1
5e945bd5f0329801e7cebca0,63f3cfca20052e4ae7554ebf,6453cb6c75003cb60abb95aa,2023-05-04_17h12.54.756,ga_syllabified_check,2022.2.5,Win32,59.53798523,,,,,,,,,,,,,,./stim/p04_syllable_1_payielo_hit.wav,p04,payielo,hit,pa-yie-lo,pa-yie-lo,pa-yi-e-lo, ,-0.354322305,-0.095517609,1,0,0,1.25,text_option_1,,0,25,25,64,1
5e945bd5f0329801e7cebca0,63f3cfca20052e4ae7554ebf,6453cb6c75003cb60abb95aa,2023-05-04_17h12.54.756,ga_syllabified_check,2022.2.5,Win32,59.53798523,,,,,,,,,,,,,,./stim/p08_syllable_1_ruyiola_hit.wav,p08,ruyiola,hit,ru-yio-la,ru-yio-la,ru-yi-o-la, ,-0.39701174,-0.12113127,1,0,0,1.9341,text_option_1,,0,26,26,202,1
5e945bd5f0329801e7cebca0,63f3cfca20052e4ae7554ebf,6453cb6c75003cb60abb95aa,2023-05-04_17h12.54.756,ga_syllabified_check,2022.2.5,Win32,59.53798523,,,,,,,,,,,,,,./stim/p05_syllable_1_lakapiaisto_hit.wav,p05,lakapiaisto,hit,la-ka-pais-to,la-ka-piais-to,la-ka-pi-ais-to,la-ka-pia-is-to,0.036286019,-0.2886873,1,0,0,2.4836,text_option_other,laka-pais-to,0,27,27,84,1
5e945bd5f0329801e7cebca0,63f3cfca20052e4ae7554ebf,6453cb6c75003cb60abb95aa,2023-05-04_17h12.54.756,ga_syllabified_check,2022.2.5,Win32,59.53798523,,,,,,,,,,,,,,./stim/p03_syllable_1_faluduako_hit.wav,p03,faluduako,hit,fa-lu-dua-ko,fa-lu-dua-ko,fa-lu-du-a-ko, ,-0.328708645,-0.107257204,1,0,0,1.2896,text_option_1,,0,28,28,2,1
5e945bd5f0329801e7cebca0,63f3cfca20052e4ae7554ebf,6453cb6c75003cb60abb95aa,2023-05-04_17h12.54.756,ga_syllabified_check,2022.2.5,Win32,59.53798523,,,,,,,,,,,,,,./stim/p05_syllable_1_palufauro_hit.wav,p05,palufauro,hit,pa-lu-fau-ro,pa-lu-fau-ro,pa-lu-fa-u-ro, ,-0.34791889,-0.116862327,1,0,0,4.0767,text_option_1,,0,29,29,93,1
5e945bd5f0329801e7cebca0,63f3cfca20052e4ae7554ebf,6453cb6c75003cb60abb95aa,2023-05-04_17h12.54.756,ga_syllabified_check,2022.2.5,Win32,59.53798523,,,,,,,,,,,,,,./stim/p06_syllable_1_chiaba_hit.wav,p06,chiaba,hit,chi-a-ba,chia-ba,chi-a-ba, ,0.364994664,-0.099786553,1,0,0,2.5346,text_option_2,,0,30,30,102,1
5e945bd5f0329801e7cebca0,63f3cfca20052e4ae7554ebf,6453cb6c75003cb60abb95aa,2023-05-04_17h12.54.756,ga_syllabified_check,2022.2.5,Win32,59.53798523,,,,,,,,,,,,,,./stim/p05_syllable_1_lakatiaisto_hit.wav,p05,lakatiaisto,hit,la-ka-ti-ais-to,la-ka-tiais-to,la-ka-ti-ais-to,la-ka-tia-is-to,-0.32977588,-0.10832444,1,0,0,2.0163,text_option_1,,0,31,31,86,1
5e945bd5f0329801e7cebca0,63f3cfca20052e4ae7554ebf,6453cb6c75003cb60abb95aa,2023-05-04_17h12.54.756,ga_syllabified_check,2022.2.5,Win32,59.53798523,,,,,,,,,,,,,,./stim/p07_syllable_1_costonhialo_hit.wav,p07,costoñialo,hit,cos-to-nhia-lo,cos-to-ñia-lo,cos-to-ñi-a-lo, ,-0.320170758,-0.106189968,1,0,0,1.8832,text_option_1,,0,32,32,137,1
5e945bd5f0329801e7cebca0,63f3cfca20052e4ae7554ebf,6453cb6c75003cb60abb95aa,2023-05-04_17h12.54.756,ga_syllabified_check,2022.2.5,Win32,59.53798523,,,,,,,,,,,,,,./stim/p04_syllable_1_lakapuaisto_hit.wav,p04,lakapuaisto,hit,la-ka-puais-to,la-ka-puais-to,la-ka-pu-ais-to,la-ka-pua-is-to,-0.326574173,-0.116862327,1,0,0,0.9667,text_option_1,,0,33,33,51,1
5e945bd5f0329801e7cebca0,63f3cfca20052e4ae7554ebf,6453cb6c75003cb60abb95aa,2023-05-04_17h12.54.756,ga_syllabified_check,2022.2.5,Win32,59.53798523,,,,,,,,,,,,,,./stim/p06_syllable_1_palufauro_hit.wav,p06,palufauro,hit,pa-lu-fau-ro,pa-lu-fau-ro,pa-lu-fa-u-ro, ,0.008537887,-0.296157951,1,0,0,4.3665,text_option_other,pa-lu-fa-u-ro,0,34,34,127,1
5e945bd5f0329801e7cebca0,63f3cfca20052e4ae7554ebf,6453cb6c75003cb60abb95aa,2023-05-04_17h12.54.756,ga_syllabified_check,2022.2.5,Win32,59.53798523,,,,,,,,,,,,,,./stim/p06_syllable_1_flauro_hit.wav,p06,flauro,hit,fla-u-ro,flau-ro,fla-u-ro, ,0.442902882,-0.101921025,1,0,0,2.666,text_option_2,,0,35,35,107,1
5e945bd5f0329801e7cebca0,63f3cfca20052e4ae7554ebf,6453cb6c75003cb60abb95aa,2023-05-04_17h12.54.756,ga_syllabified_check,2022.2.5,Win32,59.53798523,,,,,,,,,,,,,,./stim/p05_syllable_1_lakakuaisto_hit.wav,p05,lakakuaisto,hit,la-ka-kais-to,la-ka-kuais-to,la-ka-ku-ais-to,la-ka-kua-is-to,0.070437567,-0.305763074,1,0,0,1.933,text_option_other,la-ka-kais-to,0,36,36,83,1
5e945bd5f0329801e7cebca0,63f3cfca20052e4ae7554ebf,6453cb6c75003cb60abb95aa,2023-05-04_17h12.54.756,ga_syllabified_check,2022.2.5,Win32,59.53798523,,,,,,,,,,,,,,./stim/p08_syllable_1_manhiala_hit.wav,p08,mañiala,hit,ma-nhia-la,ma-ñia-la,ma-ñi-a-la, ,-0.381003202,-0.09018143,1,0,0,1.2681,text_option_1,,0,37,37,191,1
5e945bd5f0329801e7cebca0,63f3cfca20052e4ae7554ebf,6453cb6c75003cb60abb95aa,2023-05-04_17h12.54.756,ga_syllabified_check,2022.2.5,Win32,59.53798523,,,,,,,,,,,,,,./stim/p06_syllable_1_lakafuaisto_hit.wav,p06,lakafuaisto,hit,la-ka-fu-a-is,la-ka-fuais-to,la-ka-fu-ais-to,la-ka-fua-is-to,-0.010672359,-0.296157951,1,0,0,4.0888,text_option_other,la-ka-fu-a-is-to,0,38,38,113,1
5e945bd5f0329801e7cebca0,63f3cfca20052e4ae7554ebf,6453cb6c75003cb60abb95aa,2023-05-04_17h12.54.756,ga_syllabified_check,2022.2.5,Win32,59.53798523,,,,,,,,,,,,,,./stim/p08_syllable_1_falufaisto_hit.wav,p08,falufaisto,hit,fa-lu-fais-to,fa-lu-fais-to,fa-lu-fa-is-to, ,-0.331910352,-0.110458911,1,0,0,1.8165,text_option_1,,0,39,39,173,1
5e945bd5f0329801e7cebca0,63f3cfca20052e4ae7554ebf,6453cb6c75003cb60abb95aa,2023-05-04_17h12.54.756,ga_syllabified_check,2022.2.5,Win32,59.53798523,,,,,,,,,,,,,,./stim/p03_syllable_1_ruyiola_hit.wav,p03,ruyiola,hit,ru-yio-la,ru-yio-la,ru-yi-o-la, ,-0.331910352,-0.110458911,1,0,0,0.7002,text_option_1,,0,40,40,32,1
5e945bd5f0329801e7cebca0,63f3cfca20052e4ae7554ebf,6453cb6c75003cb60abb95aa,2023-05-04_17h12.54.756,ga_syllabified_check,2022.2.5,Win32,59.53798523,,,,,,,,,,,,,,./stim/p04_syllable_1_lakagiaisto_hit.wav,p04,lakagiaisto,hit,la-ka-giais-to,la-ka-giais-to,la-ka-gi-ais-to,la-ka-gia-is-to,-0.310565635,-0.101921025,1,0,0,1.4,text_option_1,,0,41,41,46,1
5e945bd5f0329801e7cebca0,63f3cfca20052e4ae7554ebf,6453cb6c75003cb60abb95aa,2023-05-04_17h12.54.756,ga_syllabified_check,2022.2.5,Win32,59.53798523,,,,,,,,,,,,,,./stim/p05_syllable_1_chiaba_hit.wav,p05,chiaba,hit,chia-ba,chia-ba,chi-a-ba, ,0.003201708,-0.306830309,1,0,0,1.3662,text_option_other,chai-ba,0,42,42,68,1
5e945bd5f0329801e7cebca0,63f3cfca20052e4ae7554ebf,6453cb6c75003cb60abb95aa,2023-05-04_17h12.54.756,ga_syllabified_check,2022.2.5,Win32,59.53798523,,,,,,,,,,,,,,./stim/p04_syllable_1_palutrauco_hit.wav,p04,palutrauco,hit,pa-lu-trau-co,pa-lu-trau-co,pa-lu-tra-u-co, ,-0.350053362,-0.105122732,1,0,0,1.1515,text_option_1,,0,43,43,63,1
5e945bd5f0329801e7cebca0,63f3cfca20052e4ae7554ebf,6453cb6c75003cb60abb95aa,2023-05-04_17h12.54.756,ga_syllabified_check,2022.2.5,Win32,59.53798523,,,,,,,,,,,,,,./stim/p04_syllable_1_falufaisto_hit.wav,p04,falufaisto,hit,fa-lu-fais-to,fa-lu-fais-to,fa-lu-fa-is-to, ,-0.381003202,-0.110458911,1,0,0,0.8335,text_option_1,,0,44,44,37,1
5e945bd5f0329801e7cebca0,63f3cfca20052e4ae7554ebf,6453cb6c75003cb60abb95aa,2023-05-04_17h12.54.756,ga_syllabified_check,2022.2.5,Win32,59.53798523,,,,,,,,,,,,,,./stim/p08_syllable_1_rausto_hit.wav,p08,rausto,hit,raus-to,raus-to,ra-us-to, ,-0.381003202,-0.110458911,1,0,0,0.6334,text_option_1,,0,45,45,201,1
5e945bd5f0329801e7cebca0,63f3cfca20052e4ae7554ebf,6453cb6c75003cb60abb95aa,2023-05-04_17h12.54.756,ga_syllabified_check,2022.2.5,Win32,59.53798523,,,,,,,,,,,,,,./stim/p05_syllable_1_falufaisto_hit.wav,p05,falufaisto,hit,fa-lu-fais-to,fa-lu-fais-to,fa-lu-fa-is-to, ,-0.338313767,-0.10832444,1,0,0,0.7168,text_option_1,,0,46,46,71,1
5e945bd5f0329801e7cebca0,63f3cfca20052e4ae7554ebf,6453cb6c75003cb60abb95aa,2023-05-04_17h12.54.756,ga_syllabified_check,2022.2.5,Win32,59.53798523,,,,,,,,,,,,,,./stim/p04_syllable_1_palufauro_hit.wav,p04,palufauro,hit,pa-lu-fau-ro,pa-lu-fau-ro,pa-lu-fa-u-ro, ,-0.309498399,-0.12113127,1,0,0,3.4665,text_option_1,,0,47,47,59,1
5e945bd5f0329801e7cebca0,63f3cfca20052e4ae7554ebf,6453cb6c75003cb60abb95aa,2023-05-04_17h12.54.756,ga_syllabified_check,2022.2.5,Win32,59.53798523,,,,,,,,,,,,,,./stim/p04_syllable_1_faluduako_hit.wav,p04,faluduako,hit,fa-lu-dua-ko,fa-lu-dua-ko,fa-lu-du-a-ko, ,-0.312700107,-0.10298826,1,0,0,1.2672,text_option_1,,0,48,48,36,1
5e945bd5f0329801e7cebca0,63f3cfca20052e4ae7554ebf,6453cb6c75003cb60abb95aa,2023-05-04_17h12.54.756,ga_syllabified_check,2022.2.5,Win32,59.53798523,,,,,,,,,,,,,,./stim/p03_syllable_1_lakapiaisto_hit.wav,p03,lakapiaisto,hit,la-ka-piais-to,la-ka-piais-to,la-ka-pi-ais-to,la-ka-pia-is-to,-0.331910352,-0.104055496,1,0,0,1.2334,text_option_1,,0,49,49,16,1
5e945bd5f0329801e7cebca0,63f3cfca20052e4ae7554ebf,6453cb6c75003cb60abb95aa,2023-05-04_17h12.54.756,ga_syllabified_check,2022.2.5,Win32,59.53798523,,,,,,,,,,,,,,./stim/p03_syllable_1_lakadiaisto_hit.wav,p03,lakadiaisto,hit,la-ka-diais-to,la-ka-diais-to,la-ka-di-ais-to,la-ka-dia-is-to,-0.300960512,-0.10832444,1,0,0,1.4502,text_option_1,,0,50,50,8,1
5e945bd5f0329801e7cebca0,63f3cfca20052e4ae7554ebf,6453cb6c75003cb60abb95aa,2023-05-04_17h12.54.756,ga_syllabified_check,2022.2.5,Win32,59.53798523,,,,,,,,,,,,,,./stim/p07_syllable_1_mebochiana_hit.wav,p07,mebochiana,hit,me-bo-chia-na,me-bo-chia-na,me-bo-chi-a-na, ,-0.295624333,-0.098719317,1,0,0,2.0835,text_option_1,,0,51,51,158,1
5e945bd5f0329801e7cebca0,63f3cfca20052e4ae7554ebf,6453cb6c75003cb60abb95aa,2023-05-04_17h12.54.756,ga_syllabified_check,2022.2.5,Win32,59.53798523,,,,,,,,,,,,,,./stim/p06_syllable_1_lakaduaisto_hit.wav,p06,lakaduaisto,hit,la-ka-du-a-is,la-ka-duais-to,la-ka-du-ais-to,la-ka-dua-is-to,-0.019210245,-0.286552828,1,0,0,3.3335,text_option_other,la-ka-du-a-is-to,0,52,52,111,1
5e945bd5f0329801e7cebca0,63f3cfca20052e4ae7554ebf,6453cb6c75003cb60abb95aa,2023-05-04_17h12.54.756,ga_syllabified_check,2022.2.5,Win32,59.53798523,,,,,,,,,,,,,,./stim/p07_syllable_1_faluduako_hit.wav,p07,faluduako,hit,fa-lu-dua-ko,fa-lu-dua-ko,fa-lu-du-a-ko, ,-0.331910352,-0.10832444,1,0,0,2.183,text_option_1,,0,53,53,138,1
5e945bd5f0329801e7cebca0,63f3cfca20052e4ae7554ebf,6453cb6c75003cb60abb95aa,2023-05-04_17h12.54.756,ga_syllabified_check,2022.2.5,Win32,59.53798523,,,,,,,,,,,,,,./stim/p03_syllable_1_falufaisto_hit.wav,p03,falufaisto,hit,fa-lu-fais-to,fa-lu-fais-to,fa-lu-fa-is-to, ,-0.324439701,-0.098719317,1,0,0,1.2333,text_option_1,,0,54,54,3,1
5e945bd5f0329801e7cebca0,63f3cfca20052e4ae7554ebf,6453cb6c75003cb60abb95aa,2023-05-04_17h12.54.756,ga_syllabified_check,2022.2.5,Win32,59.53798523,,,,,,,,,,,,,,./stim/p03_syllable_1_palutrauco_hit.wav,p03,palutrauco,hit,pa-lu-trau-co,pa-lu-trau-co,pa-lu-tra-u-co, ,-0.306296692,-0.099786553,1,0,0,1.0325,text_option_1,,0,55,55,29,1
5e945bd5f0329801e7cebca0,63f3cfca20052e4ae7554ebf,6453cb6c75003cb60abb95aa,2023-05-04_17h12.54.756,ga_syllabified_check,2022.2.5,Win32,59.53798523,,,,,,,,,,,,,,./stim/p06_syllable_1_lliape_hit.wav,p06,lliape,hit,lli-lla-pe,llia-pe,lli-a-pe, ,0.40981857,-0.091248666,1,0,0,0.8168,text_option_2,,0,56,56,122,1
5e945bd5f0329801e7cebca0,63f3cfca20052e4ae7554ebf,6453cb6c75003cb60abb95aa,2023-05-04_17h12.54.756,ga_syllabified_check,2022.2.5,Win32,59.53798523,,,,,,,,,,,,,,./stim/p05_syllable_1_lakagiaisto_hit.wav,p05,lakagiaisto,hit,la-ka-ki-ais-to,la-ka-giais-to,la-ka-gi-ais-to,la-ka-gia-is-to,-0.328708645,-0.086979723,1,0,0,1.1168,text_option_1,,0,57,57,80,1
5e945bd5f0329801e7cebca0,63f3cfca20052e4ae7554ebf,6453cb6c75003cb60abb95aa,2023-05-04_17h12.54.756,ga_syllabified_check,2022.2.5,Win32,59.53798523,,,,,,,,,,,,,,./stim/p04_syllable_1_lakapiaisto_hit.wav,p04,lakapiaisto,hit,la-ka-piais-to,la-ka-piais-to,la-ka-pi-ais-to,la-ka-pia-is-to,-0.321237994,-0.100853789,1,0,0,0.9835,text_option_1,,0,58,58,50,1
5e945bd5f0329801e7cebca0,63f3cfca20052e4ae7554ebf,6453cb6c75003cb60abb95aa,2023-05-04_17h12.54.756,ga_syllabified_check,2022.2.5,Win32,59.53798523,,,,,,,,,,,,,,./stim/p03_syllable_1_palufauro_hit.wav,p03,palufauro,hit,pa-lu-fau-ro,pa-lu-fau-ro,pa-lu-fa-u-ro, ,-0.308431163,-0.09018143,1,0,0,1.6501,text_option_1,,0,59,59,25,1
5e945bd5f0329801e7cebca0,63f3cfca20052e4ae7554ebf,6453cb6c75003cb60abb95aa,2023-05-04_17h12.54.756,ga_syllabified_check,2022.2.5,Win32,59.53798523,,,,,,,,,,,,,,./stim/p05_syllable_1_lakapuaisto_hit.wav,p05,lakapuaisto,hit,la-ka-pais-to,la-ka-puais-to,la-ka-pu-ais-to,la-ka-pua-is-to,0.06189968,-0.303628602,1,0,0,1.8226,text_option_other,la-ka-pais-to,0,60,60,85,1
5e945bd5f0329801e7cebca0,63f3cfca20052e4ae7554ebf,6453cb6c75003cb60abb95aa,2023-05-04_17h12.54.756,ga_syllabified_check,2022.2.5,Win32,59.53798523,,,,,,,,,,,,,,./stim/p07_syllable_1_lakapiaisto_hit.wav,p07,lakapiaisto,hit,la-ka-pia-sto,la-ka-piais-to,la-ka-pi-ais-to,la-ka-pia-is-to,0.060832444,-0.304695838,1,0,0,3.0611,text_option_other,la-ka-pias-to,0,61,61,152,1
5e945bd5f0329801e7cebca0,63f3cfca20052e4ae7554ebf,6453cb6c75003cb60abb95aa,2023-05-04_17h12.54.756,ga_syllabified_check,2022.2.5,Win32,59.53798523,,,,,,,,,,,,,,./stim/p03_syllable_1_lliape_hit.wav,p03,lliape,hit,llia,llia-pe,lli-a-pe, ,-0.393810032,-0.099786553,1,0,0,0.8144,text_option_1,,0,62,62,20,1
5e945bd5f0329801e7cebca0,63f3cfca20052e4ae7554ebf,6453cb6c75003cb60abb95aa,2023-05-04_17h12.54.756,ga_syllabified_check,2022.2.5,Win32,59.53798523,,,,,,,,,,,,,,./stim/p08_syllable_1_costonhialo_hit.wav,p08,costoñialo,hit,cos-to-nhia-lo,cos-to-ñia-lo,cos-to-ñi-a-lo, ,-0.309498399,-0.111526147,1,0,0,1.328,text_option_1,,0,63,63,171,1
5e945bd5f0329801e7cebca0,63f3cfca20052e4ae7554ebf,6453cb6c75003cb60abb95aa,2023-05-04_17h12.54.756,ga_syllabified_check,2022.2.5,Win32,59.53798523,,,,,,,,,,,,,,./stim/p07_syllable_1_lakaduaisto_hit.wav,p07,lakaduaisto,hit,la-ka-duais-to,la-ka-duais-to,la-ka-du-ais-to,la-ka-dua-is-to,-0.30416222,-0.111526147,1,0,0,1.8833,text_option_1,,0,64,64,145,1
5e945bd5f0329801e7cebca0,63f3cfca20052e4ae7554ebf,6453cb6c75003cb60abb95aa,2023-05-04_17h12.54.756,ga_syllabified_check,2022.2.5,Win32,59.53798523,,,,,,,,,,,,,,./stim/p07_syllable_1_palutrauco_hit.wav,p07,palutrauco,hit,pa-lu-trau-co,pa-lu-trau-co,pa-lu-tra-u-co, ,-0.298826041,-0.100853789,1,0,0,1.1499,text_option_1,,0,65,65,165,1
5e945bd5f0329801e7cebca0,63f3cfca20052e4ae7554ebf,6453cb6c75003cb60abb95aa,2023-05-04_17h12.54.756,ga_syllabified_check,2022.2.5,Win32,59.53798523,,,,,,,,,,,,,,./stim/p03_syllable_1_lakafiaisto_hit.wav,p03,lakafiaisto,hit,la-ka-fiais-to,la-ka-fiais-to,la-ka-fi-ais-to,la-ka-fia-is-to,-0.321237994,-0.10298826,1,0,0,1.5232,text_option_1,,0,66,66,10,1
5e945bd5f0329801e7cebca0,63f3cfca20052e4ae7554ebf,6453cb6c75003cb60abb95aa,2023-05-04_17h12.54.756,ga_syllabified_check,2022.2.5,Win32,59.53798523,,,,,,,,,,,,,,./stim/p05_syllable_1_palumaisto_hit.wav,p05,palumaisto,hit,pa-lu-mais-to,pa-lu-mais-to,pa-lu-ma-is-to, ,-0.281750267,-0.104055496,1,0,0,1.4844,text_option_1,,0,67,67,96,1
5e945bd5f0329801e7cebca0,63f3cfca20052e4ae7554ebf,6453cb6c75003cb60abb95aa,2023-05-04_17h12.54.756,ga_syllabified_check,2022.2.5,Win32,59.53798523,,,,,,,,,,,,,,./stim/p06_syllable_1_nhiape_hit.wav,p06,ñiape,hit,nhi-a-pe,ñia-pe,ñi-a-pe, ,0.375667022,-0.112593383,1,0,0,1.3676,text_option_2,,0,68,68,125,1
5e945bd5f0329801e7cebca0,63f3cfca20052e4ae7554ebf,6453cb6c75003cb60abb95aa,2023-05-04_17h12.54.756,ga_syllabified_check,2022.2.5,Win32,59.53798523,,,,,,,,,,,,,,./stim/p08_syllable_1_paluguato_hit.wav,p08,paluguato,hit,pa-lu-gua-to,pa-lu-gua-to,pa-lu-gu-a-to, ,-0.338313767,-0.093383138,1,0,0,1.6734,text_option_1,,0,69,69,197,1
5e945bd5f0329801e7cebca0,63f3cfca20052e4ae7554ebf,6453cb6c75003cb60abb95aa,2023-05-04_17h12.54.756,ga_syllabified_check,2022.2.5,Win32,59.53798523,,,,,,,,,,,,,,./stim/p04_syllable_1_lakatuaisto_hit.wav,p04,lakatuaisto,hit,la-ka-kuais-to,la-ka-tuais-to,la-ka-tu-ais-to,la-ka-tua-is-to,-0.309498399,-0.099786553,1,0,0,0.951,text_option_1,,0,70,70,53,1
5e945bd5f0329801e7cebca0,63f3cfca20052e4ae7554ebf,6453cb6c75003cb60abb95aa,2023-05-04_17h12.54.756,ga_syllabified_check,2022.2.5,Win32,59.53798523,,,,,,,,,,,,,,./stim/p07_syllable_1_nhiape_hit.wav,p07,ñiape,hit,nhia-pe,ñia-pe,ñi-a-pe, ,-0.351120598,-0.096584845,1,0,0,0.4662,text_option_1,,0,71,71,159,1
5e945bd5f0329801e7cebca0,63f3cfca20052e4ae7554ebf,6453cb6c75003cb60abb95aa,2023-05-04_17h12.54.756,ga_syllabified_check,2022.2.5,Win32,59.53798523,,,,,,,,,,,,,,./stim/p07_syllable_1_rausto_hit.wav,p07,rausto,hit,raus-to,raus-to,ra-us-to, ,-0.355389541,-0.098719317,1,0,0,1.0506,text_option_1,,0,72,72,167,1
5e945bd5f0329801e7cebca0,63f3cfca20052e4ae7554ebf,6453cb6c75003cb60abb95aa,2023-05-04_17h12.54.756,ga_syllabified_check,2022.2.5,Win32,59.53798523,,,,,,,,,,,,,,./stim/p08_syllable_1_lakagiaisto_hit.wav,p08,lakagiaisto,hit,la-ka-gi-jas-to,la-ka-giais-to,la-ka-gi-ais-to,la-ka-gia-is-to,0.059765208,-0.106189968,1,0,0,2.4896,text_option_3,,0,73,73,182,1
5e945bd5f0329801e7cebca0,63f3cfca20052e4ae7554ebf,6453cb6c75003cb60abb95aa,2023-05-04_17h12.54.756,ga_syllabified_check,2022.2.5,Win32,59.53798523,,,,,,,,,,,,,,./stim/p08_syllable_1_lakakuaisto_hit.wav,p08,lakakuaisto,hit,la-ka-ku-ais-to,la-ka-kuais-to,la-ka-ku-ais-to,la-ka-kua-is-to,0.30416222,-0.096584845,1,0,0,3.5335,text_option_2,,0,74,74,185,1
5e945bd5f0329801e7cebca0,63f3cfca20052e4ae7554ebf,6453cb6c75003cb60abb95aa,2023-05-04_17h12.54.756,ga_syllabified_check,2022.2.5,Win32,59.53798523,,,,,,,,,,,,,,./stim/p04_syllable_1_pachialo_hit.wav,p04,pachialo,hit,pa-chia-lo,pa-chia-lo,pa-chi-a-lo, ,-0.342582711,-0.096584845,1,0,0,0.7437,text_option_1,,0,75,75,58,1
5e945bd5f0329801e7cebca0,63f3cfca20052e4ae7554ebf,6453cb6c75003cb60abb95aa,2023-05-04_17h12.54.756,ga_syllabified_check,2022.2.5,Win32,59.53798523,,,,,,,,,,,,,,./stim/p04_syllable_1_nhiape_hit.wav,p04,ñiape,hit,nhia-pe,ñia-pe,ñi-a-pe, ,-0.379935966,-0.096584845,1,0,0,0.3509,text_option_1,,0,76,76,57,1
5e945bd5f0329801e7cebca0,63f3cfca20052e4ae7554ebf,6453cb6c75003cb60abb95aa,2023-05-04_17h12.54.756,ga_syllabified_check,2022.2.5,Win32,59.53798523,,,,,,,,,,,,,,./stim/p03_syllable_1_falutraigo_hit.wav,p03,falutraigo,hit,fa-lu-trai-go,fa-lu-trai-go,fa-lu-tra-i-go, ,-0.336179296,-0.097652081,1,0,0,1.4999,text_option_1,,0,77,77,4,1
5e945bd5f0329801e7cebca0,63f3cfca20052e4ae7554ebf,6453cb6c75003cb60abb95aa,2023-05-04_17h12.54.756,ga_syllabified_check,2022.2.5,Win32,59.53798523,,,,,,,,,,,,,,./stim/p05_syllable_1_manhiala_hit.wav,p05,mañiala,hit,ma-nhia-la,ma-ñia-la,ma-ñi-a-la, ,-0.318036286,-0.104055496,1,0,0,0.8718,text_option_1,,0,78,78,89,1
5e945bd5f0329801e7cebca0,63f3cfca20052e4ae7554ebf,6453cb6c75003cb60abb95aa,2023-05-04_17h12.54.756,ga_syllabified_check,2022.2.5,Win32,59.53798523,,,,,,,,,,,,,,./stim/p03_syllable_1_tuliafo_hit.wav,p03,tuliafo,hit,tu-lia-fo,tu-lia-fo,tu-li-a-fo, ,-0.341515475,-0.096584845,1,0,0,0.5277,text_option_1,,0,79,79,33,1
5e945bd5f0329801e7cebca0,63f3cfca20052e4ae7554ebf,6453cb6c75003cb60abb95aa,2023-05-04_17h12.54.756,ga_syllabified_check,2022.2.5,Win32,59.53798523,,,,,,,,,,,,,,./stim/p08_syllable_1_palufauro_hit.wav,p08,palufauro,hit,pa-lu-fau-ro,pa-lu-fau-ro,pa-lu-fa-u-ro, ,-0.326574173,-0.107257204,1,0,0,2.1511,text_option_1,,0,80,80,195,1
5e945bd5f0329801e7cebca0,63f3cfca20052e4ae7554ebf,6453cb6c75003cb60abb95aa,2023-05-04_17h12.54.756,ga_syllabified_check,2022.2.5,Win32,59.53798523,,,,,,,,,,,,,,./stim/p04_syllable_1_lakabiaisto_hit.wav,p04,lakabiaisto,hit,la-ka-biais-to,la-ka-biais-to,la-ka-bi-ais-to,la-ka-bia-is-to,-0.31696905,-0.122198506,1,0,0,0.6335,text_option_1,,0,81,81,40,1
5e945bd5f0329801e7cebca0,63f3cfca20052e4ae7554ebf,6453cb6c75003cb60abb95aa,2023-05-04_17h12.54.756,ga_syllabified_check,2022.2.5,Win32,59.53798523,,,,,,,,,,,,,,./stim/p04_syllable_1_lliape_hit.wav,p04,lliape,hit,lia-pe,llia-pe,lli-a-pe, ,-0.390608324,-0.107257204,1,0,0,0.199,text_option_1,,0,82,82,54,1
5e945bd5f0329801e7cebca0,63f3cfca20052e4ae7554ebf,6453cb6c75003cb60abb95aa,2023-05-04_17h12.54.756,ga_syllabified_check,2022.2.5,Win32,59.53798523,,,,,,,,,,,,,,./stim/p08_syllable_1_pachialo_hit.wav,p08,pachialo,hit,pa-chi-ja-lo,pa-chia-lo,pa-chi-a-lo, ,0.31696905,-0.101921025,1,0,0,1.0834,text_option_2,,0,83,83,194,1
5e945bd5f0329801e7cebca0,63f3cfca20052e4ae7554ebf,6453cb6c75003cb60abb95aa,2023-05-04_17h12.54.756,ga_syllabified_check,2022.2.5,Win32,59.53798523,,,,,,,,,,,,,,./stim/p03_syllable_1_lakaguaisto_hit.wav,p03,lakaguaisto,hit,la-ka-guais-to,la-ka-guais-to,la-ka-gu-ais-to,la-ka-gua-is-to,-0.322305229,-0.107257204,1,0,0,1.3333,text_option_1,,0,84,84,13,1
5e945bd5f0329801e7cebca0,63f3cfca20052e4ae7554ebf,6453cb6c75003cb60abb95aa,2023-05-04_17h12.54.756,ga_syllabified_check,2022.2.5,Win32,59.53798523,,,,,,,,,,,,,,./stim/p04_syllable_1_rausto_hit.wav,p04,rausto,hit,raus-to,raus-to,ra-us-to, ,-0.364994664,-0.10298826,1,0,0,0.2662,text_option_1,,0,85,85,65,1
5e945bd5f0329801e7cebca0,63f3cfca20052e4ae7554ebf,6453cb6c75003cb60abb95aa,2023-05-04_17h12.54.756,ga_syllabified_check,2022.2.5,Win32,59.53798523,,,,,,,,,,,,,,./stim/p05_syllable_1_lliape_hit.wav,p05,lliape,hit,liai-pe,llia-pe,lli-a-pe, ,0.379935966,-0.117929562,1,0,0,0.4322,text_option_2,,0,86,86,88,1
5e945bd5f0329801e7cebca0,63f3cfca20052e4ae7554ebf,6453cb6c75003cb60abb95aa,2023-05-04_17h12.54.756,ga_syllabified_check,2022.2.5,Win32,59.53798523,,,,,,,,,,,,,,./stim/p06_syllable_1_tuliafo_hit.wav,p06,tuliafo,hit,tu-li-a-fo,tu-lia-fo,tu-li-a-fo, ,0.352187834,-0.109391676,1,0,0,1.5667,text_option_2,,0,87,87,135,1
5e945bd5f0329801e7cebca0,63f3cfca20052e4ae7554ebf,6453cb6c75003cb60abb95aa,2023-05-04_17h12.54.756,ga_syllabified_check,2022.2.5,Win32,59.53798523,,,,,,,,,,,,,,./stim/p06_syllable_1_ruyiola_hit.wav,p06,ruyiola,hit,ru-yi-o-la,ru-yio-la,ru-yi-o-la, ,0.358591249,-0.109391676,1,0,0,1.5675,text_option_2,,0,88,88,134,1
5e945bd5f0329801e7cebca0,63f3cfca20052e4ae7554ebf,6453cb6c75003cb60abb95aa,2023-05-04_17h12.54.756,ga_syllabified_check,2022.2.5,Win32,59.53798523,,,,,,,,,,,,,,./stim/p04_syllable_1_falutraigo_hit.wav,p04,falutraigo,hit,fa-lu-trai-go,fa-lu-trai-go,fa-lu-tra-i-go, ,-0.307363927,-0.101921025,1,0,0,0.7405,text_option_1,,0,89,89,38,1
5e945bd5f0329801e7cebca0,63f3cfca20052e4ae7554ebf,6453cb6c75003cb60abb95aa,2023-05-04_17h12.54.756,ga_syllabified_check,2022.2.5,Win32,59.53798523,,,,,,,,,,,,,,./stim/p06_syllable_1_lakadiaisto_hit.wav,p06,lakadiaisto,hit,la-ka-dia-is-to,la-ka-diais-to,la-ka-di-ais-to,la-ka-dia-is-to,0.057630736,-0.10832444,1,0,0,2.4364,text_option_3,,0,90,90,110,1
5e945bd5f0329801e7cebca0,63f3cfca20052e4ae7554ebf,6453cb6c75003cb60abb95aa,2023-05-04_17h12.54.756,ga_syllabified_check,2022.2.5,Win32,59.53798523,,,,,,,,,,,,,,./stim/p06_syllable_1_lakagiaisto_hit.wav,p06,lakagiaisto,hit,la-ka-gia-is-to,la-ka-giais-to,la-ka-gi-ais-to,la-ka-gia-is-to,0.098185699,-0.111526147,1,0,0,4.0157,text_option_3,,0,91,91,114,1
5e945bd5f0329801e7cebca0,63f3cfca20052e4ae7554ebf,6453cb6c75003cb60abb95aa,2023-05-04_17h12.54.756,ga_syllabified_check,2022.2.5,Win32,59.53798523,,,,,,,,,,,,,,./stim/p08_syllable_1_palutrauco_hit.wav,p08,palutrauco,hit,pa-lu-trau-ko,pa-lu-trau-co,pa-lu-tra-u-co, ,-0.326574173,-0.097652081,1,0,0,2.5167,text_option_1,,0,92,92,199,1
5e945bd5f0329801e7cebca0,63f3cfca20052e4ae7554ebf,6453cb6c75003cb60abb95aa,2023-05-04_17h12.54.756,ga_syllabified_check,2022.2.5,Win32,59.53798523,,,,,,,,,,,,,,./stim/p05_syllable_1_mebochiana_hit.wav,p05,mebochiana,hit,me-cho-chai-na,me-bo-chia-na,me-bo-chi-a-na, ,0.070437567,-0.294023479,1,0,0,1.6794,text_option_other,me-cho-chai-na,0,93,93,90,1
5e945bd5f0329801e7cebca0,63f3cfca20052e4ae7554ebf,6453cb6c75003cb60abb95aa,2023-05-04_17h12.54.756,ga_syllabified_check,2022.2.5,Win32,59.53798523,,,,,,,,,,,,,,./stim/p08_syllable_1_palumaisto_hit.wav,p08,palumaisto,hit,pa-lu-mais-to,pa-lu-mais-to,pa-lu-ma-is-to, ,-0.293489861,-0.116862327,1,0,0,1.8392,text_option_1,,0,94,94,198,1
5e945bd5f0329801e7cebca0,63f3cfca20052e4ae7554ebf,6453cb6c75003cb60abb95aa,2023-05-04_17h12.54.756,ga_syllabified_check,2022.2.5,Win32,59.53798523,,,,,,,,,,,,,,./stim/p07_syllable_1_lakagiaisto_hit.wav,p07,lakagiaisto,hit,la-ka-gais-to,la-ka-giais-to,la-ka-gi-ais-to,la-ka-gia-is-to,0.046958378,-0.313233725,1,0,0,2.5671,text_option_other,la-ka-gais-to,0,95,95,148,1
5e945bd5f0329801e7cebca0,63f3cfca20052e4ae7554ebf,6453cb6c75003cb60abb95aa,2023-05-04_17h12.54.756,ga_syllabified_check,2022.2.5,Win32,59.53798523,,,,,,,,,,,,,,./stim/p07_syllable_1_lakafiaisto_hit.wav,p07,lakafiaisto,hit,la-ka-fiais-to,la-ka-fiais-to,la-ka-fi-ais-to,la-ka-fia-is-to,-0.32977588,-0.100853789,1,0,0,1.3558,text_option_1,,0,96,96,146,1
5e945bd5f0329801e7cebca0,63f3cfca20052e4ae7554ebf,6453cb6c75003cb60abb95aa,2023-05-04_17h12.54.756,ga_syllabified_check,2022.2.5,Win32,59.53798523,,,,,,,,,,,,,,./stim/p03_syllable_1_lakabiaisto_hit.wav,p03,lakabiaisto,hit,la-ka-biais-to,la-ka-biais-to,la-ka-bi-ais-to,la-ka-bia-is-to,-0.348986126,-0.105122732,1,0,0,1.3383,text_option_1,,0,97,97,6,1
5e945bd5f0329801e7cebca0,63f3cfca20052e4ae7554ebf,6453cb6c75003cb60abb95aa,2023-05-04_17h12.54.756,ga_syllabified_check,2022.2.5,Win32,59.53798523,,,,,,,,,,,,,,./stim/p04_syllable_1_lakaduaisto_hit.wav,p04,lakaduaisto,hit,la-ka-duais-to,la-ka-duais-to,la-ka-du-ais-to,la-ka-dua-is-to,-0.295624333,-0.113660619,1,0,0,0.6168,text_option_1,,0,98,98,43,1
5e945bd5f0329801e7cebca0,63f3cfca20052e4ae7554ebf,6453cb6c75003cb60abb95aa,2023-05-04_17h12.54.756,ga_syllabified_check,2022.2.5,Win32,59.53798523,,,,,,,,,,,,,,./stim/p03_syllable_1_nhiape_hit.wav,p03,ñiape,hit,nhia-pe,ñia-pe,ñi-a-pe, ,-0.393810032,-0.10298826,1,0,0,0.4514,text_option_1,,0,99,99,23,1
5e945bd5f0329801e7cebca0,63f3cfca20052e4ae7554ebf,6453cb6c75003cb60abb95aa,2023-05-04_17h12.54.756,ga_syllabified_check,2022.2.5,Win32,59.53798523,,,,,,,,,,,,,,./stim/p05_syllable_1_lakaguaisto_hit.wav,p05,lakaguaisto,hit,la-ka-gais,la-ka-guais-to,la-ka-gu-ais-to,la-ka-gua-is-to,-0.017075774,-0.278014941,1,0,0,1.1562,text_option_other,la-ka-gais-to,0,100,100,81,1
5e945bd5f0329801e7cebca0,63f3cfca20052e4ae7554ebf,6453cb6c75003cb60abb95aa,2023-05-04_17h12.54.756,ga_syllabified_check,2022.2.5,Win32,59.53798523,,,,,,,,,,,,,,./stim/p06_syllable_1_palumaisto_hit.wav,p06,palumaisto,hit,pa-lu-ma-is-to,pa-lu-mais-to,pa-lu-ma-is-to, ,0.372465315,-0.104055496,1,0,0,3.0657,text_option_2,,0,101,101,130,1
5e945bd5f0329801e7cebca0,63f3cfca20052e4ae7554ebf,6453cb6c75003cb60abb95aa,2023-05-04_17h12.54.756,ga_syllabified_check,2022.2.5,Win32,59.53798523,,,,,,,,,,,,,,./stim/p06_syllable_1_paluguato_hit.wav,p06,paluguato,hit,pa-lu-gua-to,pa-lu-gua-to,pa-lu-gu-a-to, ,-0.392742796,-0.111526147,1,0,0,2.1665,text_option_1,,0,102,102,129,1
5e945bd5f0329801e7cebca0,63f3cfca20052e4ae7554ebf,6453cb6c75003cb60abb95aa,2023-05-04_17h12.54.756,ga_syllabified_check,2022.2.5,Win32,59.53798523,,,,,,,,,,,,,,./stim/p08_syllable_1_lakafiaisto_hit.wav,p08,lakafiaisto,hit,la-ka-fi-as-to,la-ka-fiais-to,la-ka-fi-ais-to,la-ka-fia-is-to,0.313767343,-0.095517609,1,0,0,2.85,text_option_2,,0,103,103,180,1
5e945bd5f0329801e7cebca0,63f3cfca20052e4ae7554ebf,6453cb6c75003cb60abb95aa,2023-05-04_17h12.54.756,ga_syllabified_check,2022.2.5,Win32,59.53798523,,,,,,,,,,,,,,./stim/p03_syllable_1_palumaisto_hit.wav,p03,palumaisto,hit,pa-lu-mais-to,pa-lu-mais-to,pa-lu-ma-is-to, ,-0.319103522,-0.096584845,1,0,0,1.0002,text_option_1,,0,104,104,28,1
5e945bd5f0329801e7cebca0,63f3cfca20052e4ae7554ebf,6453cb6c75003cb60abb95aa,2023-05-04_17h12.54.756,ga_syllabified_check,2022.2.5,Win32,59.53798523,,,,,,,,,,,,,,./stim/p06_syllable_1_lakapuaisto_hit.wav,p06,lakapuaisto,hit,la-ka-pu-a-is,la-ka-puais-to,la-ka-pu-ais-to,la-ka-pua-is-to,0.048025614,-0.295090715,1,0,0,5.0667,text_option_other,la-ka-pu-a-is-to,0,105,105,119,1
5e945bd5f0329801e7cebca0,63f3cfca20052e4ae7554ebf,6453cb6c75003cb60abb95aa,2023-05-04_17h12.54.756,ga_syllabified_check,2022.2.5,Win32,59.53798523,,,,,,,,,,,,,,./stim/p05_syllable_1_lakafiaisto_hit.wav,p05,lakafiaisto,hit,la-ka-fi-ais-to,la-ka-fiais-to,la-ka-fi-ais-to,la-ka-fia-is-to,0.407684098,-0.098719317,1,0,0,2.3002,text_option_2,,0,106,106,78,1
5e945bd5f0329801e7cebca0,63f3cfca20052e4ae7554ebf,6453cb6c75003cb60abb95aa,2023-05-04_17h12.54.756,ga_syllabified_check,2022.2.5,Win32,59.53798523,,,,,,,,,,,,,,./stim/p05_syllable_1_payielo_hit.wav,p05,payielo,hit,pai-yu-we-lo,pa-yie-lo,pa-yi-e-lo, ,0.032017076,-0.286552828,1,0,0,2.5493,text_option_other,pa-yue-lo,0,107,107,98,1
5e945bd5f0329801e7cebca0,63f3cfca20052e4ae7554ebf,6453cb6c75003cb60abb95aa,2023-05-04_17h12.54.756,ga_syllabified_check,2022.2.5,Win32,59.53798523,,,,,,,,,,,,,,./stim/p07_syllable_1_lakakuaisto_hit.wav,p07,lakakuaisto,hit,la-ka-kuais-to,la-ka-kuais-to,la-ka-ku-ais-to,la-ka-kua-is-to,-0.403415155,-0.096584845,1,0,0,2.1498,text_option_1,,0,108,108,151,1
5e945bd5f0329801e7cebca0,63f3cfca20052e4ae7554ebf,6453cb6c75003cb60abb95aa,2023-05-04_17h12.54.756,ga_syllabified_check,2022.2.5,Win32,59.53798523,,,,,,,,,,,,,,./stim/p04_syllable_1_ruyiola_hit.wav,p04,ruyiola,hit,ru-yio-la,ru-yio-la,ru-yi-o-la, ,-0.367129136,-0.109391676,1,0,0,0.6166,text_option_1,,0,109,109,66,1
5e945bd5f0329801e7cebca0,63f3cfca20052e4ae7554ebf,6453cb6c75003cb60abb95aa,2023-05-04_17h12.54.756,ga_syllabified_check,2022.2.5,Win32,59.53798523,,,,,,,,,,,,,,./stim/p06_syllable_1_palutrauco_hit.wav,p06,palutrauco,hit,pa-lu-tra-u-co,pa-lu-trau-co,pa-lu-tra-u-co, ,0.434364995,-0.107257204,1,0,0,2.234,text_option_2,,0,110,110,131,1
5e945bd5f0329801e7cebca0,63f3cfca20052e4ae7554ebf,6453cb6c75003cb60abb95aa,2023-05-04_17h12.54.756,ga_syllabified_check,2022.2.5,Win32,59.53798523,,,,,,,,,,,,,,./stim/p03_syllable_1_lakabuaisto_hit.wav,p03,lakabuaisto,hit,la-ka-buais-to,la-ka-buais-to,la-ka-bu-ais-to,la-ka-bua-is-to,-0.313767343,-0.112593383,1,0,0,1.1163,text_option_1,,0,111,111,7,1
5e945bd5f0329801e7cebca0,63f3cfca20052e4ae7554ebf,6453cb6c75003cb60abb95aa,2023-05-04_17h12.54.756,ga_syllabified_check,2022.2.5,Win32,59.53798523,,,,,,,,,,,,,,./stim/p03_syllable_1_palufauto_hit.wav,p03,palufauto,hit,pa-lu-fau,pa-lu-fau-to,pa-lu-fa-u-to, ,-0.307363927,-0.084845251,1,0,0,0.6183,text_option_1,,0,112,112,26,1
5e945bd5f0329801e7cebca0,63f3cfca20052e4ae7554ebf,6453cb6c75003cb60abb95aa,2023-05-04_17h12.54.756,ga_syllabified_check,2022.2.5,Win32,59.53798523,,,,,,,,,,,,,,./stim/p07_syllable_1_flauro_hit.wav,p07,flauro,hit,flau-ro,flau-ro,fla-u-ro, ,-0.384204909,-0.094450374,1,0,0,0.5273,text_option_1,,0,113,113,141,1
5e945bd5f0329801e7cebca0,63f3cfca20052e4ae7554ebf,6453cb6c75003cb60abb95aa,2023-05-04_17h12.54.756,ga_syllabified_check,2022.2.5,Win32,59.53798523,,,,,,,,,,,,,,./stim/p05_syllable_1_faluduako_hit.wav,p05,faluduako,hit,fa-lu-ba-ko,fa-lu-dua-ko,fa-lu-du-a-ko, ,0.331910352,-0.105122732,1,0,0,2.3663,text_option_2,,0,114,114,70,1
5e945bd5f0329801e7cebca0,63f3cfca20052e4ae7554ebf,6453cb6c75003cb60abb95aa,2023-05-04_17h12.54.756,ga_syllabified_check,2022.2.5,Win32,59.53798523,,,,,,,,,,,,,,./stim/p08_syllable_1_faluduako_hit.wav,p08,faluduako,hit,fa-lu-duai-ko,fa-lu-dua-ko,fa-lu-du-a-ko, ,0.005336179,-0.300426894,1,0,0,2.5166,text_option_other,fa-lu-duai-ko,0,115,115,172,1
5e945bd5f0329801e7cebca0,63f3cfca20052e4ae7554ebf,6453cb6c75003cb60abb95aa,2023-05-04_17h12.54.756,ga_syllabified_check,2022.2.5,Win32,59.53798523,,,,,,,,,,,,,,./stim/p07_syllable_1_falufaisto_hit.wav,p07,falufaisto,hit,fa-lu-fais-to,fa-lu-fais-to,fa-lu-fa-is-to, ,-0.308431163,-0.10298826,1,0,0,2.0565,text_option_1,,0,116,116,139,1
5e945bd5f0329801e7cebca0,63f3cfca20052e4ae7554ebf,6453cb6c75003cb60abb95aa,2023-05-04_17h12.54.756,ga_syllabified_check,2022.2.5,Win32,59.53798523,,,,,,,,,,,,,,./stim/p08_syllable_1_mebochiana_hit.wav,p08,mebochiana,hit,me-bo-chi-a-na,me-bo-chia-na,me-bo-chi-a-na, ,0.410885806,-0.106189968,1,0,0,1.9444,text_option_2,,0,117,117,192,1
5e945bd5f0329801e7cebca0,63f3cfca20052e4ae7554ebf,6453cb6c75003cb60abb95aa,2023-05-04_17h12.54.756,ga_syllabified_check,2022.2.5,Win32,59.53798523,,,,,,,,,,,,,,./stim/p03_syllable_1_mebochiana_hit.wav,p03,mebochiana,hit,me-bo-chia-na,me-bo-chia-na,me-bo-chi-a-na, ,-0.351120598,-0.110458911,1,0,0,1.1506,text_option_1,,0,118,118,22,1
5e945bd5f0329801e7cebca0,63f3cfca20052e4ae7554ebf,6453cb6c75003cb60abb95aa,2023-05-04_17h12.54.756,ga_syllabified_check,2022.2.5,Win32,59.53798523,,,,,,,,,,,,,,./stim/p07_syllable_1_tuliafo_hit.wav,p07,tuliafo,hit,tu-lia-fo,tu-lia-fo,tu-li-a-fo, ,-0.405549626,-0.104055496,1,0,0,0.7661,text_option_1,,0,119,119,169,1
5e945bd5f0329801e7cebca0,63f3cfca20052e4ae7554ebf,6453cb6c75003cb60abb95aa,2023-05-04_17h12.54.756,ga_syllabified_check,2022.2.5,Win32,59.53798523,,,,,,,,,,,,,,./stim/p05_syllable_1_lakadiaisto_hit.wav,p05,lakadiaisto,hit,la-ka-di-ais-to,la-ka-diais-to,la-ka-di-ais-to,la-ka-dia-is-to,0.435432231,-0.104055496,1,0,0,1.7506,text_option_2,,0,120,120,76,1
5e945bd5f0329801e7cebca0,63f3cfca20052e4ae7554ebf,6453cb6c75003cb60abb95aa,2023-05-04_17h12.54.756,ga_syllabified_check,2022.2.5,Win32,59.53798523,,,,,,,,,,,,,,./stim/p08_syllable_1_palufauto_hit.wav,p08,palufauto,hit,pa-lu-fau-to,pa-lu-fau-to,pa-lu-fa-u-to, ,-0.308431163,-0.107257204,1,0,0,2.3402,text_option_1,,0,121,121,196,1
5e945bd5f0329801e7cebca0,63f3cfca20052e4ae7554ebf,6453cb6c75003cb60abb95aa,2023-05-04_17h12.54.756,ga_syllabified_check,2022.2.5,Win32,59.53798523,,,,,,,,,,,,,,./stim/p03_syllable_1_lakafuaisto_hit.wav,p03,lakafuaisto,hit,la-ka-fuais-to,la-ka-fuais-to,la-ka-fu-ais-to,la-ka-fua-is-to,-0.319103522,-0.107257204,1,0,0,1.3272,text_option_1,,0,122,122,11,1
5e945bd5f0329801e7cebca0,63f3cfca20052e4ae7554ebf,6453cb6c75003cb60abb95aa,2023-05-04_17h12.54.756,ga_syllabified_check,2022.2.5,Win32,59.53798523,,,,,,,,,,,,,,./stim/p08_syllable_1_lakaduaisto_hit.wav,p08,lakaduaisto,hit,la-ka-du-ais-to,la-ka-duais-to,la-ka-du-ais-to,la-ka-dua-is-to,0.387406617,-0.089114194,1,0,0,2.851,text_option_2,,0,123,123,179,1
5e945bd5f0329801e7cebca0,63f3cfca20052e4ae7554ebf,6453cb6c75003cb60abb95aa,2023-05-04_17h12.54.756,ga_syllabified_check,2022.2.5,Win32,59.53798523,,,,,,,,,,,,,,./stim/p05_syllable_1_falutraigo_hit.wav,p05,falutraigo,hit,fa-lu-trai-go,fa-lu-trai-go,fa-lu-tra-i-go, ,-0.346851654,-0.10298826,1,0,0,2.3835,text_option_1,,0,124,124,72,1
5e945bd5f0329801e7cebca0,63f3cfca20052e4ae7554ebf,6453cb6c75003cb60abb95aa,2023-05-04_17h12.54.756,ga_syllabified_check,2022.2.5,Win32,59.53798523,,,,,,,,,,,,,,./stim/p05_syllable_1_flauro_hit.wav,p05,flauro,hit,fa-lu-ro,flau-ro,fla-u-ro, ,0.062966916,-0.312166489,1,0,0,1.7499,text_option_other,fa-lu-ro,0,125,125,73,1
5e945bd5f0329801e7cebca0,63f3cfca20052e4ae7554ebf,6453cb6c75003cb60abb95aa,2023-05-04_17h12.54.756,ga_syllabified_check,2022.2.5,Win32,59.53798523,,,,,,,,,,,,,,./stim/p07_syllable_1_lakabuaisto_hit.wav,p07,lakabuaisto,hit,la-ka-buais-to,la-ka-buais-to,la-ka-bu-ais-to,la-ka-bua-is-to,-0.361792956,-0.097652081,1,0,0,2.1875,text_option_1,,0,126,126,143,1
5e945bd5f0329801e7cebca0,63f3cfca20052e4ae7554ebf,6453cb6c75003cb60abb95aa,2023-05-04_17h12.54.756,ga_syllabified_check,2022.2.5,Win32,59.53798523,,,,,,,,,,,,,,./stim/p04_syllable_1_chiaba_hit.wav,p04,chiaba,hit,chia-ba,chia-ba,chi-a-ba, ,-0.372465315,-0.093383138,1,0,0,0.2889,text_option_1,,0,127,127,34,1
5e945bd5f0329801e7cebca0,63f3cfca20052e4ae7554ebf,6453cb6c75003cb60abb95aa,2023-05-04_17h12.54.756,ga_syllabified_check,2022.2.5,Win32,59.53798523,,,,,,,,,,,,,,./stim/p08_syllable_1_lakabuaisto_hit.wav,p08,lakabuaisto,hit,la-ka-bu-ais-to,la-ka-buais-to,la-ka-bu-ais-to,la-ka-bua-is-to,0.371398079,-0.105122732,1,0,0,2.4339,text_option_2,,0,128,128,177,1
5e945bd5f0329801e7cebca0,63f3cfca20052e4ae7554ebf,6453cb6c75003cb60abb95aa,2023-05-04_17h12.54.756,ga_syllabified_check,2022.2.5,Win32,59.53798523,,,,,,,,,,,,,,./stim/p05_syllable_1_ruyiola_hit.wav,p05,ruyiola,hit,ru-yio-la,ru-yio-la,ru-yi-o-la, ,-0.350053362,-0.100853789,1,0,0,0.4994,text_option_1,,0,129,129,100,1
5e945bd5f0329801e7cebca0,63f3cfca20052e4ae7554ebf,6453cb6c75003cb60abb95aa,2023-05-04_17h12.54.756,ga_syllabified_check,2022.2.5,Win32,59.53798523,,,,,,,,,,,,,,./stim/p07_syllable_1_lakabiaisto_hit.wav,p07,lakabiaisto,hit,la-ka-bais-to,la-ka-biais-to,la-ka-bi-ais-to,la-ka-bia-is-to,0.032017076,-0.303628602,1,0,0,1.8334,text_option_other,laka-bais-to,0,130,130,142,1
5e945bd5f0329801e7cebca0,63f3cfca20052e4ae7554ebf,6453cb6c75003cb60abb95aa,2023-05-04_17h12.54.756,ga_syllabified_check,2022.2.5,Win32,59.53798523,,,,,,,,,,,,,,./stim/p08_syllable_1_lakadiaisto_hit.wav,p08,lakadiaisto,hit,la-ka-di-jas-to,la-ka-diais-to,la-ka-di-ais-to,la-ka-dia-is-to,0.045891142,-0.298292423,1,0,0,3.4667,text_option_other,la-ka-dias-to,0,131,131,178,1
5e945bd5f0329801e7cebca0,63f3cfca20052e4ae7554ebf,6453cb6c75003cb60abb95aa,2023-05-04_17h12.54.756,ga_syllabified_check,2022.2.5,Win32,59.53798523,,,,,,,,,,,,,,./stim/p06_syllable_1_lakatuaisto_hit.wav,p06,lakatuaisto,hit,la-ka-tu-a-is,la-ka-tuais-to,la-ka-tu-ais-to,la-ka-tua-is-to,0.065101387,-0.295090715,1,0,0,3.3322,text_option_other,la-ka-tu-a-is-to,0,132,132,121,1
5e945bd5f0329801e7cebca0,63f3cfca20052e4ae7554ebf,6453cb6c75003cb60abb95aa,2023-05-04_17h12.54.756,ga_syllabified_check,2022.2.5,Win32,59.53798523,,,,,,,,,,,,,,./stim/p07_syllable_1_lakaguaisto_hit.wav,p07,lakaguaisto,hit,la-ka-guais-to,la-ka-guais-to,la-ka-gu-ais-to,la-ka-gua-is-to,-0.302027748,-0.096584845,1,0,0,1.7158,text_option_1,,0,133,133,149,1
5e945bd5f0329801e7cebca0,63f3cfca20052e4ae7554ebf,6453cb6c75003cb60abb95aa,2023-05-04_17h12.54.756,ga_syllabified_check,2022.2.5,Win32,59.53798523,,,,,,,,,,,,,,./stim/p04_syllable_1_tuliafo_hit.wav,p04,tuliafo,hit,tu-lia-fo,tu-lia-fo,tu-li-a-fo, ,-0.353255069,-0.10832444,1,0,0,0.2824,text_option_1,,0,134,134,67,1
5e945bd5f0329801e7cebca0,63f3cfca20052e4ae7554ebf,6453cb6c75003cb60abb95aa,2023-05-04_17h12.54.756,ga_syllabified_check,2022.2.5,Win32,59.53798523,,,,,,,,,,,,,,./stim/p06_syllable_1_palufauto_hit.wav,p06,palufauto,hit,pa-lu-fau-to,pa-lu-fau-to,pa-lu-fa-u-to, ,-0.293489861,-0.111526147,1,0,0,2.8168,text_option_1,,0,135,135,128,1
5e945bd5f0329801e7cebca0,63f3cfca20052e4ae7554ebf,6453cb6c75003cb60abb95aa,2023-05-04_17h12.54.756,ga_syllabified_check,2022.2.5,Win32,59.53798523,,,,,,,,,,,,,,./stim/p04_syllable_1_palumaisto_hit.wav,p04,palumaisto,hit,pa-lu-mais-to,pa-lu-mais-to,pa-lu-ma-is-to, ,-0.303094984,-0.112593383,1,0,0,0.9667,text_option_1,,0,136,136,62,1
5e945bd5f0329801e7cebca0,63f3cfca20052e4ae7554ebf,6453cb6c75003cb60abb95aa,2023-05-04_17h12.54.756,ga_syllabified_check,2022.2.5,Win32,59.53798523,,,,,,,,,,,,,,./stim/p07_syllable_1_palumaisto_hit.wav,p07,palumaisto,hit,pa-lu-mais-to,pa-lu-mais-to,pa-lu-ma-is-to, ,-0.325506937,-0.098719317,1,0,0,2.3164,text_option_1,,0,137,137,164,1
5e945bd5f0329801e7cebca0,63f3cfca20052e4ae7554ebf,6453cb6c75003cb60abb95aa,2023-05-04_17h12.54.756,ga_syllabified_check,2022.2.5,Win32,59.53798523,,,,,,,,,,,,,,./stim/p06_syllable_1_lakakuaisto_hit.wav,p06,lakakuaisto,hit,la-ka-ku-a-is,la-ka-kuais-to,la-ka-ku-ais-to,la-ka-kua-is-to,0.046958378,-0.101921025,1,0,0,4.2001,text_option_3,,0,138,138,117,1
5e945bd5f0329801e7cebca0,63f3cfca20052e4ae7554ebf,6453cb6c75003cb60abb95aa,2023-05-04_17h12.54.756,ga_syllabified_check,2022.2.5,Win32,59.53798523,,,,,,,,,,,,,,./stim/p05_syllable_1_pachialo_hit.wav,p05,pachialo,hit,pan-chia-lo,pa-chia-lo,pa-chi-a-lo, ,0.383137673,-0.118996798,1,0,0,1.0665,text_option_2,,0,139,139,92,1
5e945bd5f0329801e7cebca0,63f3cfca20052e4ae7554ebf,6453cb6c75003cb60abb95aa,2023-05-04_17h12.54.756,ga_syllabified_check,2022.2.5,Win32,59.53798523,,,,,,,,,,,,,,./stim/p04_syllable_1_lakakiaisto_hit.wav,p04,lakakiaisto,hit,la-ka-kiais-to,la-ka-kiais-to,la-ka-ki-ais-to,la-ka-kia-is-to,-0.297758805,-0.085912487,1,0,0,1.4332,text_option_1,,0,140,140,48,1
5e945bd5f0329801e7cebca0,63f3cfca20052e4ae7554ebf,6453cb6c75003cb60abb95aa,2023-05-04_17h12.54.756,ga_syllabified_check,2022.2.5,Win32,59.53798523,,,,,,,,,,,,,,./stim/p06_syllable_1_mebochiana_hit.wav,p06,mebochiana,hit,me-bo-shi-a-na,me-bo-chia-na,me-bo-chi-a-na, ,0.456776948,-0.10298826,1,0,0,2.4666,text_option_2,,0,141,141,124,1
5e945bd5f0329801e7cebca0,63f3cfca20052e4ae7554ebf,6453cb6c75003cb60abb95aa,2023-05-04_17h12.54.756,ga_syllabified_check,2022.2.5,Win32,59.53798523,,,,,,,,,,,,,,./stim/p04_syllable_1_lakafuaisto_hit.wav,p04,lakafuaisto,hit,la-ka-fuais-to,la-ka-fuais-to,la-ka-fu-ais-to,la-ka-fua-is-to,-0.306296692,-0.088046958,1,0,0,0.8361,text_option_1,,0,142,142,45,1
5e945bd5f0329801e7cebca0,63f3cfca20052e4ae7554ebf,6453cb6c75003cb60abb95aa,2023-05-04_17h12.54.756,ga_syllabified_check,2022.2.5,Win32,59.53798523,,,,,,,,,,,,,,./stim/p04_syllable_1_lakaguaisto_hit.wav,p04,lakaguaisto,hit,la-ka-guais-to,la-ka-guais-to,la-ka-gu-ais-to,la-ka-gua-is-to,-0.33511206,-0.098719317,1,0,0,1.1665,text_option_1,,0,143,143,47,1
5e945bd5f0329801e7cebca0,63f3cfca20052e4ae7554ebf,6453cb6c75003cb60abb95aa,2023-05-04_17h12.54.756,ga_syllabified_check,2022.2.5,Win32,59.53798523,,,,,,,,,,,,,,./stim/p04_syllable_1_paluguato_hit.wav,p04,paluguato,hit,pa-lu-gua,pa-lu-gua-to,pa-lu-gu-a-to, ,-0.334044824,-0.106189968,1,0,0,1.3112,text_option_1,,0,144,144,61,1
5e945bd5f0329801e7cebca0,63f3cfca20052e4ae7554ebf,6453cb6c75003cb60abb95aa,2023-05-04_17h12.54.756,ga_syllabified_check,2022.2.5,Win32,59.53798523,,,,,,,,,,,,,,./stim/p04_syllable_1_palufauto_hit.wav,p04,palufauto,hit,pa-lu-fau-to,pa-lu-fau-to,pa-lu-fa-u-to, ,-0.322305229,-0.101921025,1,0,0,0.6667,text_option_1,,0,145,145,60,1
5e945bd5f0329801e7cebca0,63f3cfca20052e4ae7554ebf,6453cb6c75003cb60abb95aa,2023-05-04_17h12.54.756,ga_syllabified_check,2022.2.5,Win32,59.53798523,,,,,,,,,,,,,,./stim/p06_syllable_1_costonhialo_hit.wav,p06,costoñialo,hit,cos-to-nhia-lo,cos-to-ñia-lo,cos-to-ñi-a-lo, ,-0.310565635,-0.097652081,1,0,0,2.3909,text_option_1,,0,146,146,103,1
5e945bd5f0329801e7cebca0,63f3cfca20052e4ae7554ebf,6453cb6c75003cb60abb95aa,2023-05-04_17h12.54.756,ga_syllabified_check,2022.2.5,Win32,59.53798523,,,,,,,,,,,,,,./stim/p08_syllable_1_lakaguaisto_hit.wav,p08,lakaguaisto,hit,la-ka-gu-ais-to,la-ka-guais-to,la-ka-gu-ais-to,la-ka-gua-is-to,0.346851654,-0.092315902,1,0,0,2.3015,text_option_2,,0,147,147,183,1
5e945bd5f0329801e7cebca0,63f3cfca20052e4ae7554ebf,6453cb6c75003cb60abb95aa,2023-05-04_17h12.54.756,ga_syllabified_check,2022.2.5,Win32,59.53798523,,,,,,,,,,,,,,./stim/p07_syllable_1_palufauto_hit.wav,p07,palufauto,hit,pa-lu-fau-to,pa-lu-fau-to,pa-lu-fa-u-to, ,-0.322305229,-0.10832444,1,0,0,1.5001,text_option_1,,0,148,148,162,1
5e945bd5f0329801e7cebca0,63f3cfca20052e4ae7554ebf,6453cb6c75003cb60abb95aa,2023-05-04_17h12.54.756,ga_syllabified_check,2022.2.5,Win32,59.53798523,,,,,,,,,,,,,,./stim/p05_syllable_1_lakatuaisto_hit.wav,p05,lakatuaisto,hit,la-ka-tais-to,la-ka-tuais-to,la-ka-tu-ais-to,la-ka-tua-is-to,0.044823906,-0.312166489,1,0,0,1.9,text_option_other,la-ka-tais-to,0,149,149,87,1
5e945bd5f0329801e7cebca0,63f3cfca20052e4ae7554ebf,6453cb6c75003cb60abb95aa,2023-05-04_17h12.54.756,ga_syllabified_check,2022.2.5,Win32,59.53798523,,,,,,,,,,,,,,./stim/p07_syllable_1_lliape_hit.wav,p07,lliape,hit,lliai-pe,llia-pe,lli-a-pe, ,-0.021344717,-0.284418356,1,0,0,1.0336,text_option_other,yiai-pe,0,150,150,156,1
5e945bd5f0329801e7cebca0,63f3cfca20052e4ae7554ebf,6453cb6c75003cb60abb95aa,2023-05-04_17h12.54.756,ga_syllabified_check,2022.2.5,Win32,59.53798523,,,,,,,,,,,,,,./stim/p04_syllable_1_costonhialo_hit.wav,p04,costoñialo,hit,cos-to-nhia-lo,cos-to-ñia-lo,cos-to-ñi-a-lo, ,-0.399146211,-0.097652081,1,0,0,1.0663,text_option_1,,0,151,151,35,1
5e945bd5f0329801e7cebca0,63f3cfca20052e4ae7554ebf,6453cb6c75003cb60abb95aa,2023-05-04_17h12.54.756,ga_syllabified_check,2022.2.5,Win32,59.53798523,,,,,,,,,,,,,,./stim/p07_syllable_1_lakatiaisto_hit.wav,p07,lakatiaisto,hit,la-ka-tiai-sto,la-ka-tiais-to,la-ka-ti-ais-to,la-ka-tia-is-to,0.081109925,-0.115795091,1,0,0,2.5834,text_option_3,,0,152,152,154,1
5e945bd5f0329801e7cebca0,63f3cfca20052e4ae7554ebf,6453cb6c75003cb60abb95aa,2023-05-04_17h12.54.756,ga_syllabified_check,2022.2.5,Win32,59.53798523,,,,,,,,,,,,,,./stim/p03_syllable_1_lakapuaisto_hit.wav,p03,lakapuaisto,hit,la-ka-puais-to,la-ka-puais-to,la-ka-pu-ais-to,la-ka-pua-is-to,-0.321237994,-0.10832444,1,0,0,1.9729,text_option_1,,0,153,153,17,1
5e945bd5f0329801e7cebca0,63f3cfca20052e4ae7554ebf,6453cb6c75003cb60abb95aa,2023-05-04_17h12.54.756,ga_syllabified_check,2022.2.5,Win32,59.53798523,,,,,,,,,,,,,,./stim/p05_syllable_1_palutrauco_hit.wav,p05,palutrauco,hit,pa-lu-trai-co,pa-lu-trau-co,pa-lu-tra-u-co, ,0.033084312,-0.296157951,1,0,0,1.3505,text_option_other,pa-lu-trai-co,0,154,154,97,1
5e945bd5f0329801e7cebca0,63f3cfca20052e4ae7554ebf,6453cb6c75003cb60abb95aa,2023-05-04_17h12.54.756,ga_syllabified_check,2022.2.5,Win32,59.53798523,,,,,,,,,,,,,,./stim/p03_syllable_1_lakatuaisto_hit.wav,p03,lakatuaisto,hit,la-ka-tuais-to,la-ka-tuais-to,la-ka-tu-ais-to,la-ka-tua-is-to,-0.289220918,-0.097652081,1,0,0,1.4002,text_option_1,,0,155,155,19,1
5e945bd5f0329801e7cebca0,63f3cfca20052e4ae7554ebf,6453cb6c75003cb60abb95aa,2023-05-04_17h12.54.756,ga_syllabified_check,2022.2.5,Win32,59.53798523,,,,,,,,,,,,,,./stim/p05_syllable_1_paluguato_hit.wav,p05,paluguato,hit,pa-lu-gau-to,pa-lu-gua-to,pa-lu-gu-a-to, ,0.026680896,-0.30149413,1,0,0,0.8998,text_option_other,pa-lu-kau-to,0,156,156,95,1
5e945bd5f0329801e7cebca0,63f3cfca20052e4ae7554ebf,6453cb6c75003cb60abb95aa,2023-05-04_17h12.54.756,ga_syllabified_check,2022.2.5,Win32,59.53798523,,,,,,,,,,,,,,./stim/p08_syllable_1_lakafuaisto_hit.wav,p08,lakafuaisto,hit,la-ka-fju-ais-to,la-ka-fuais-to,la-ka-fu-ais-to,la-ka-fua-is-to,0.017075774,-0.300426894,1,0,0,2.2669,text_option_other,la-ka-kuais-to,0,157,157,181,1
5e945bd5f0329801e7cebca0,63f3cfca20052e4ae7554ebf,6453cb6c75003cb60abb95aa,2023-05-04_17h12.54.756,ga_syllabified_check,2022.2.5,Win32,59.53798523,,,,,,,,,,,,,,./stim/p03_syllable_1_lakagiaisto_hit.wav,p03,lakagiaisto,hit,la-ka-giais-to,la-ka-giais-to,la-ka-gi-ais-to,la-ka-gia-is-to,0.438633938,-0.099786553,1,0,0,1.8503,text_option_2,,0,158,158,12,1
5e945bd5f0329801e7cebca0,63f3cfca20052e4ae7554ebf,6453cb6c75003cb60abb95aa,2023-05-04_17h12.54.756,ga_syllabified_check,2022.2.5,Win32,59.53798523,,,,,,,,,,,,,,./stim/p03_syllable_1_lakakiaisto_hit.wav,p03,lakakiaisto,hit,la-ka-kiais-to,la-ka-kiais-to,la-ka-ki-ais-to,la-ka-kia-is-to,-0.376734258,-0.086979723,1,0,0,1.6834,text_option_1,,0,159,159,14,1
5e945bd5f0329801e7cebca0,63f3cfca20052e4ae7554ebf,6453cb6c75003cb60abb95aa,2023-05-04_17h12.54.756,ga_syllabified_check,2022.2.5,Win32,59.53798523,,,,,,,,,,,,,,./stim/p07_syllable_1_lakadiaisto_hit.wav,p07,lakadiaisto,hit,la-ka-dia-is-to,la-ka-diais-to,la-ka-di-ais-to,la-ka-dia-is-to,0.080042689,-0.101921025,1,0,0,2.1831,text_option_3,,0,160,160,144,1
5e945bd5f0329801e7cebca0,63f3cfca20052e4ae7554ebf,6453cb6c75003cb60abb95aa,2023-05-04_17h12.54.756,ga_syllabified_check,2022.2.5,Win32,59.53798523,,,,,,,,,,,,,,./stim/p05_syllable_1_lakabiaisto_hit.wav,p05,lakabiaisto,hit,la-ka-bi-ais-to,la-ka-biais-to,la-ka-bi-ais-to,la-ka-bia-is-to,0.078975454,-0.098719317,1,0,0,1.3335,text_option_3,,0,161,161,74,1
5e945bd5f0329801e7cebca0,63f3cfca20052e4ae7554ebf,6453cb6c75003cb60abb95aa,2023-05-04_17h12.54.756,ga_syllabified_check,2022.2.5,Win32,59.53798523,,,,,,,,,,,,,,./stim/p06_syllable_1_pachialo_hit.wav,p06,pachialo,hit,pa-shi-a-lo,pa-chia-lo,pa-chi-a-lo, ,0.407684098,-0.101921025,1,0,0,4.2894,text_option_2,,0,162,162,126,1
5e945bd5f0329801e7cebca0,63f3cfca20052e4ae7554ebf,6453cb6c75003cb60abb95aa,2023-05-04_17h12.54.756,ga_syllabified_check,2022.2.5,Win32,59.53798523,,,,,,,,,,,,,,./stim/p03_syllable_1_paluguato_hit.wav,p03,paluguato,hit,pa-lu-gua,pa-lu-gua-to,pa-lu-gu-a-to, ,-0.340448239,-0.085912487,1,0,0,3.1775,text_option_1,,0,163,163,27,1
5e945bd5f0329801e7cebca0,63f3cfca20052e4ae7554ebf,6453cb6c75003cb60abb95aa,2023-05-04_17h12.54.756,ga_syllabified_check,2022.2.5,Win32,59.53798523,,,,,,,,,,,,,,./stim/p07_syllable_1_falutraigo_hit.wav,p07,falutraigo,hit,fa-lu-trai-go,fa-lu-trai-go,fa-lu-tra-i-go, ,-0.407684098,-0.101921025,1,0,0,1.7004,text_option_1,,0,164,164,140,1
5e945bd5f0329801e7cebca0,63f3cfca20052e4ae7554ebf,6453cb6c75003cb60abb95aa,2023-05-04_17h12.54.756,ga_syllabified_check,2022.2.5,Win32,59.53798523,,,,,,,,,,,,,,./stim/p04_syllable_1_lakatiaisto_hit.wav,p04,lakatiaisto,hit,la-ka-kiais-to,la-ka-tiais-to,la-ka-ti-ais-to,la-ka-tia-is-to,-0.309498399,-0.099786553,1,0,0,0.7828,text_option_1,,0,165,165,52,1
5e945bd5f0329801e7cebca0,63f3cfca20052e4ae7554ebf,6453cb6c75003cb60abb95aa,2023-05-04_17h12.54.756,ga_syllabified_check,2022.2.5,Win32,59.53798523,,,,,,,,,,,,,,./stim/p03_syllable_1_manhiala_hit.wav,p03,mañiala,hit,ma-nhia-la,ma-ñia-la,ma-ñi-a-la, ,0.424759872,-0.10298826,1,0,0,0.5513,text_option_2,,0,166,166,21,1
5e945bd5f0329801e7cebca0,63f3cfca20052e4ae7554ebf,6453cb6c75003cb60abb95aa,2023-05-04_17h12.54.756,ga_syllabified_check,2022.2.5,Win32,59.53798523,,,,,,,,,,,,,,./stim/p03_syllable_1_rausto_hit.wav,p03,rausto,hit,raus-to,raus-to,ra-us-to, ,-0.362860192,-0.099786553,1,0,0,0.6146,text_option_1,,0,167,167,31,1
5e945bd5f0329801e7cebca0,63f3cfca20052e4ae7554ebf,6453cb6c75003cb60abb95aa,2023-05-04_17h12.54.756,ga_syllabified_check,2022.2.5,Win32,59.53798523,,,,,,,,,,,,,,./stim/p05_syllable_1_lakakiaisto_hit.wav,p05,lakakiaisto,hit,la-ka-ki-ais-to,la-ka-kiais-to,la-ka-ki-ais-to,la-ka-kia-is-to,-0.302027748,-0.093383138,1,0,0,1.133,text_option_1,,0,168,168,82,1
5e945bd5f0329801e7cebca0,63f3cfca20052e4ae7554ebf,6453cb6c75003cb60abb95aa,2023-05-04_17h12.54.756,ga_syllabified_check,2022.2.5,Win32,59.53798523,,,,,,,,,,,,,,./stim/p06_syllable_1_rausto_hit.wav,p06,rausto,hit,ra-us-to,raus-to,ra-us-to, ,0.413020277,-0.106189968,1,0,0,1.1446,text_option_2,,0,169,169,133,1
5e945bd5f0329801e7cebca0,63f3cfca20052e4ae7554ebf,6453cb6c75003cb60abb95aa,2023-05-04_17h12.54.756,ga_syllabified_check,2022.2.5,Win32,59.53798523,,,,,,,,,,,,,,./stim/p08_syllable_1_lakapiaisto_hit.wav,p08,lakapiaisto,hit,la-ka-pi-as-to,la-ka-piais-to,la-ka-pi-ais-to,la-ka-pia-is-to,0.350053362,-0.115795091,1,0,0,2.467,text_option_2,,0,170,170,186,1
5e945bd5f0329801e7cebca0,63f3cfca20052e4ae7554ebf,6453cb6c75003cb60abb95aa,2023-05-04_17h12.54.756,ga_syllabified_check,2022.2.5,Win32,59.53798523,,,,,,,,,,,,,,./stim/p08_syllable_1_tuliafo_hit.wav,p08,tuliafo,hit,tu-li-a-fo,tu-lia-fo,tu-li-a-fo, ,0.359658485,-0.109391676,1,0,0,1.3166,text_option_2,,0,171,171,203,1
5e945bd5f0329801e7cebca0,63f3cfca20052e4ae7554ebf,6453cb6c75003cb60abb95aa,2023-05-04_17h12.54.756,ga_syllabified_check,2022.2.5,Win32,59.53798523,,,,,,,,,,,,,,./stim/p04_syllable_1_mebochiana_hit.wav,p04,mebochiana,hit,me-bo-chia-na,me-bo-chia-na,me-bo-chi-a-na, ,-0.352187834,-0.10298826,1,0,0,1.061,text_option_1,,0,172,172,56,1
5e945bd5f0329801e7cebca0,63f3cfca20052e4ae7554ebf,6453cb6c75003cb60abb95aa,2023-05-04_17h12.54.756,ga_syllabified_check,2022.2.5,Win32,59.53798523,,,,,,,,,,,,,,./stim/p08_syllable_1_payielo_hit.wav,p08,payielo,hit,pa-yie-lo,pa-yie-lo,pa-yi-e-lo, ,-0.355389541,-0.109391676,1,0,0,1.4011,text_option_1,,0,173,173,200,1
5e945bd5f0329801e7cebca0,63f3cfca20052e4ae7554ebf,6453cb6c75003cb60abb95aa,2023-05-04_17h12.54.756,ga_syllabified_check,2022.2.5,Win32,59.53798523,,,,,,,,,,,,,,./stim/p03_syllable_1_lakatiaisto_hit.wav,p03,lakatiaisto,hit,la-ka-tiais-to,la-ka-tiais-to,la-ka-ti-ais-to,la-ka-tia-is-to,-0.355389541,-0.109391676,1,0,0,1.2684,text_option_1,,0,174,174,18,1
5e945bd5f0329801e7cebca0,63f3cfca20052e4ae7554ebf,6453cb6c75003cb60abb95aa,2023-05-04_17h12.54.756,ga_syllabified_check,2022.2.5,Win32,59.53798523,,,,,,,,,,,,,,./stim/p05_syllable_1_costonhialo_hit.wav,p05,costoñialo,hit,cos-to-nhia-lo,cos-to-ñia-lo,cos-to-ñi-a-lo, ,-0.343649947,-0.10832444,1,0,0,1.7446,text_option_1,,0,175,175,69,1
5e945bd5f0329801e7cebca0,63f3cfca20052e4ae7554ebf,6453cb6c75003cb60abb95aa,2023-05-04_17h12.54.756,ga_syllabified_check,2022.2.5,Win32,59.53798523,,,,,,,,,,,,,,./stim/p03_syllable_1_chiaba_hit.wav,p03,chiaba,hit,chia-ba,chia-ba,chi-a-ba, ,-0.404482391,-0.10832444,1,0,0,0.4504,text_option_1,,0,176,176,0,1
5e945bd5f0329801e7cebca0,63f3cfca20052e4ae7554ebf,6453cb6c75003cb60abb95aa,2023-05-04_17h12.54.756,ga_syllabified_check,2022.2.5,Win32,59.53798523,,,,,,,,,,,,,,./stim/p05_syllable_1_rausto_hit.wav,p05,rausto,hit,raus-to,raus-to,ra-us-to, ,-0.39701174,-0.104055496,1,0,0,0.0498,text_option_1,,0,177,177,99,1
5e945bd5f0329801e7cebca0,63f3cfca20052e4ae7554ebf,6453cb6c75003cb60abb95aa,2023-05-04_17h12.54.756,ga_syllabified_check,2022.2.5,Win32,59.53798523,,,,,,,,,,,,,,./stim/p06_syllable_1_lakaguaisto_hit.wav,p06,lakaguaisto,hit,la-ka-gu-a-is,la-ka-guais-to,la-ka-gu-ais-to,la-ka-gua-is-to,0.058697972,-0.305763074,1,0,0,5.101,text_option_other,la-ka-gu-a-is-to,0,178,178,115,1
5e945bd5f0329801e7cebca0,63f3cfca20052e4ae7554ebf,6453cb6c75003cb60abb95aa,2023-05-04_17h12.54.756,ga_syllabified_check,2022.2.5,Win32,59.53798523,,,,,,,,,,,,,,./stim/p06_syllable_1_faluduako_hit.wav,p06,faluduako,hit,fa-lu-dua-ko,fa-lu-dua-ko,fa-lu-du-a-ko, ,0.417289221,-0.099786553,1,0,0,2.7332,text_option_2,,0,179,179,104,1
5e945bd5f0329801e7cebca0,63f3cfca20052e4ae7554ebf,6453cb6c75003cb60abb95aa,2023-05-04_17h12.54.756,ga_syllabified_check,2022.2.5,Win32,59.53798523,,,,,,,,,,,,,,./stim/p06_syllable_1_lakabiaisto_hit.wav,p06,lakabiaisto,hit,la-ka-bia-is-to,la-ka-biais-to,la-ka-bi-ais-to,la-ka-bia-is-to,0.069370331,-0.10832444,1,0,0,3.6001,text_option_3,,0,180,180,108,1
5e945bd5f0329801e7cebca0,63f3cfca20052e4ae7554ebf,6453cb6c75003cb60abb95aa,2023-05-04_17h12.54.756,ga_syllabified_check,2022.2.5,Win32,59.53798523,,,,,,,,,,,,,,./stim/p04_syllable_1_flauro_hit.wav,p04,flauro,hit,flau-ro,flau-ro,fla-u-ro, ,-0.376734258,-0.118996798,1,0,0,0.3174,text_option_1,,0,181,181,39,1
5e945bd5f0329801e7cebca0,63f3cfca20052e4ae7554ebf,6453cb6c75003cb60abb95aa,2023-05-04_17h12.54.756,ga_syllabified_check,2022.2.5,Win32,59.53798523,,,,,,,,,,,,,,./stim/p07_syllable_1_manhiala_hit.wav,p07,mañiala,hit,ma-nhia-la,ma-ñia-la,ma-ñi-a-la, ,-0.379935966,-0.105122732,1,0,0,1.4061,text_option_1,,0,182,182,157,1
5e945bd5f0329801e7cebca0,63f3cfca20052e4ae7554ebf,6453cb6c75003cb60abb95aa,2023-05-04_17h12.54.756,ga_syllabified_check,2022.2.5,Win32,59.53798523,,,,,,,,,,,,,,./stim/p06_syllable_1_falutraigo_hit.wav,p06,falutraigo,hit,fa-lu-tra-i-go,fa-lu-trai-go,fa-lu-tra-i-go, ,0.467449306,-0.096584845,1,0,0,3.467,text_option_2,,0,183,183,106,1
5e945bd5f0329801e7cebca0,63f3cfca20052e4ae7554ebf,6453cb6c75003cb60abb95aa,2023-05-04_17h12.54.756,ga_syllabified_check,2022.2.5,Win32,59.53798523,,,,,,,,,,,,,,./stim/p05_syllable_1_lakafuaisto_hit.wav,p05,lakafuaisto,hit,la-ka-fais-to,la-ka-fuais-to,la-ka-fu-ais-to,la-ka-fua-is-to,0.035218783,-0.093383138,1,0,0,1.9674,text_option_3,,0,184,184,79,1
5e945bd5f0329801e7cebca0,63f3cfca20052e4ae7554ebf,6453cb6c75003cb60abb95aa,2023-05-04_17h12.54.756,ga_syllabified_check,2022.2.5,Win32,59.53798523,,,,,,,,,,,,,,./stim/p03_syllable_1_lakaduaisto_hit.wav,p03,lakaduaisto,hit,la-ka-duais-to,la-ka-duais-to,la-ka-du-ais-to,la-ka-dua-is-to,-0.423692636,-0.104055496,1,0,0,1.4403,text_option_1,,0,185,185,9,1
5e945bd5f0329801e7cebca0,63f3cfca20052e4ae7554ebf,6453cb6c75003cb60abb95aa,2023-05-04_17h12.54.756,ga_syllabified_check,2022.2.5,Win32,59.53798523,,,,,,,,,,,,,,./stim/p03_syllable_1_flauro_hit.wav,p03,flauro,hit,flau-ro,flau-ro,fla-u-ro, ,-0.369263607,-0.093383138,1,0,0,0.2842,text_option_1,,0,186,186,5,1
5e945bd5f0329801e7cebca0,63f3cfca20052e4ae7554ebf,6453cb6c75003cb60abb95aa,2023-05-04_17h12.54.756,ga_syllabified_check,2022.2.5,Win32,59.53798523,,,,,,,,,,,,,,./stim/p06_syllable_1_manhiala_hit.wav,p06,mañiala,hit,ma-nhi-a-la,ma-ñia-la,ma-ñi-a-la, ,0.4226254,-0.111526147,1,0,0,1.1896,text_option_2,,0,187,187,123,1
5e945bd5f0329801e7cebca0,63f3cfca20052e4ae7554ebf,6453cb6c75003cb60abb95aa,2023-05-04_17h12.54.756,ga_syllabified_check,2022.2.5,Win32,59.53798523,,,,,,,,,,,,,,./stim/p04_syllable_1_lakakuaisto_hit.wav,p04,lakakuaisto,hit,la-ka-kuais-to,la-ka-kuais-to,la-ka-ku-ais-to,la-ka-kua-is-to,-0.330843116,-0.112593383,1,0,0,0.8781,text_option_1,,0,188,188,49,1
5e945bd5f0329801e7cebca0,63f3cfca20052e4ae7554ebf,6453cb6c75003cb60abb95aa,2023-05-04_17h12.54.756,ga_syllabified_check,2022.2.5,Win32,59.53798523,,,,,,,,,,,,,,./stim/p05_syllable_1_palufauto_hit.wav,p05,palufauto,hit,pa-lu-fau-to,pa-lu-fau-to,pa-lu-fa-u-to, ,-0.320170758,-0.112593383,1,0,0,0.9057,text_option_1,,0,189,189,94,1
5e945bd5f0329801e7cebca0,63f3cfca20052e4ae7554ebf,6453cb6c75003cb60abb95aa,2023-05-04_17h12.54.756,ga_syllabified_check,2022.2.5,Win32,59.53798523,,,,,,,,,,,,,,./stim/p04_syllable_1_lakafiaisto_hit.wav,p04,lakafiaisto,hit,la-ka-fiais-to,la-ka-fiais-to,la-ka-fi-ais-to,la-ka-fia-is-to,-0.322305229,-0.105122732,1,0,0,1.0167,text_option_1,,0,190,190,44,1
5e945bd5f0329801e7cebca0,63f3cfca20052e4ae7554ebf,6453cb6c75003cb60abb95aa,2023-05-04_17h12.54.756,ga_syllabified_check,2022.2.5,Win32,59.53798523,,,,,,,,,,,,,,./stim/p06_syllable_1_payielo_hit.wav,p06,payielo,hit,pa-yi-e-lo,pa-yie-lo,pa-yi-e-lo, ,0.449306297,-0.109391676,1,0,0,1.9939,text_option_2,,0,191,191,132,1
5e945bd5f0329801e7cebca0,63f3cfca20052e4ae7554ebf,6453cb6c75003cb60abb95aa,2023-05-04_17h12.54.756,ga_syllabified_check,2022.2.5,Win32,59.53798523,,,,,,,,,,,,,,./stim/p07_syllable_1_paluguato_hit.wav,p07,paluguato,hit,pa-lu-gua-to,pa-lu-gua-to,pa-lu-gu-a-to, ,-0.361792956,-0.097652081,1,0,0,1.501,text_option_1,,0,192,192,163,1
5e945bd5f0329801e7cebca0,63f3cfca20052e4ae7554ebf,6453cb6c75003cb60abb95aa,2023-05-04_17h12.54.756,ga_syllabified_check,2022.2.5,Win32,59.53798523,,,,,,,,,,,,,,./stim/p07_syllable_1_ruyiola_hit.wav,p07,ruyiola,hit,ru-yio-la,ru-yio-la,ru-yi-o-la, ,-0.342582711,-0.101921025,1,0,0,0.8935,text_option_1,,0,193,193,168,1
5e945bd5f0329801e7cebca0,63f3cfca20052e4ae7554ebf,6453cb6c75003cb60abb95aa,2023-05-04_17h12.54.756,ga_syllabified_check,2022.2.5,Win32,59.53798523,,,,,,,,,,,,,,./stim/p04_syllable_1_lakadiaisto_hit.wav,p04,lakadiaisto,hit,la-ka-dias-to,la-ka-diais-to,la-ka-di-ais-to,la-ka-dia-is-to,-0.296691569,-0.107257204,1,0,0,0.9672,text_option_1,,0,194,194,42,1
5e945bd5f0329801e7cebca0,63f3cfca20052e4ae7554ebf,6453cb6c75003cb60abb95aa,2023-05-04_17h12.54.756,ga_syllabified_check,2022.2.5,Win32,59.53798523,,,,,,,,,,,,,,./stim/p07_syllable_1_lakakiaisto_hit.wav,p07,lakakiaisto,hit,la-ka-kais-to,la-ka-kiais-to,la-ka-ki-ais-to,la-ka-kia-is-to,0.014941302,-0.294023479,1,0,0,2.4679,text_option_other,la-ka-kais-to,0,195,195,150,1
5e945bd5f0329801e7cebca0,63f3cfca20052e4ae7554ebf,6453cb6c75003cb60abb95aa,2023-05-04_17h12.54.756,ga_syllabified_check,2022.2.5,Win32,59.53798523,,,,,,,,,,,,,,./stim/p08_syllable_1_lakabiaisto_hit.wav,p08,lakabiaisto,hit,la-ka-bi-as-to,la-ka-biais-to,la-ka-bi-ais-to,la-ka-bia-is-to,0.041622199,-0.285485592,1,0,0,2.9837,text_option_other,la-ka-bi-as-to,0,196,196,176,1
5e945bd5f0329801e7cebca0,63f3cfca20052e4ae7554ebf,6453cb6c75003cb60abb95aa,2023-05-04_17h12.54.756,ga_syllabified_check,2022.2.5,Win32,59.53798523,,,,,,,,,,,,,,./stim/p07_syllable_1_lakatuaisto_hit.wav,p07,lakatuaisto,hit,la-ka-tuais-to,la-ka-tuais-to,la-ka-tu-ais-to,la-ka-tua-is-to,-0.344717182,-0.110458911,1,0,0,2.5829,text_option_1,,0,197,197,155,1
5e945bd5f0329801e7cebca0,63f3cfca20052e4ae7554ebf,6453cb6c75003cb60abb95aa,2023-05-04_17h12.54.756,ga_syllabified_check,2022.2.5,Win32,59.53798523,,,,,,,,,,,,,,./stim/p07_syllable_1_chiaba_hit.wav,p07,chiaba,hit,chia-ba,chia-ba,chi-a-ba, ,-0.362860192,-0.107257204,1,0,0,0.5167,text_option_1,,0,198,198,136,1
5e945bd5f0329801e7cebca0,63f3cfca20052e4ae7554ebf,6453cb6c75003cb60abb95aa,2023-05-04_17h12.54.756,ga_syllabified_check,2022.2.5,Win32,59.53798523,,,,,,,,,,,,,,./stim/p03_syllable_1_payielo_hit.wav,p03,payielo,hit,pa-yie-lo,pa-yie-lo,pa-yi-e-lo, ,-0.362860192,-0.106189968,1,0,0,0.6335,text_option_1,,0,199,199,30,1
5e945bd5f0329801e7cebca0,63f3cfca20052e4ae7554ebf,6453cb6c75003cb60abb95aa,2023-05-04_17h12.54.756,ga_syllabified_check,2022.2.5,Win32,59.53798523,,,,,,,,,,,,,,./stim/p08_syllable_1_lakakiaisto_hit.wav,p08,lakakiaisto,hit,la-ka-ki-jas-to,la-ka-kiais-to,la-ka-ki-ais-to,la-ka-kia-is-to,0.09284952,-0.292956243,1,0,0,2.5669,text_option_other,la-ka-ki-as-to,0,200,200,184,1
5e945bd5f0329801e7cebca0,63f3cfca20052e4ae7554ebf,6453cb6c75003cb60abb95aa,2023-05-04_17h12.54.756,ga_syllabified_check,2022.2.5,Win32,59.53798523,,,,,,,,,,,,,,./stim/p03_syllable_1_costonhialo_hit.wav,p03,costoñialo,hit,cos-to-nhia-lo,cos-to-ñia-lo,cos-to-ñi-a-lo, ,-0.355389541,-0.09018143,1,0,0,1.1332,text_option_1,,0,201,201,1,1
5e945bd5f0329801e7cebca0,63f3cfca20052e4ae7554ebf,6453cb6c75003cb60abb95aa,2023-05-04_17h12.54.756,ga_syllabified_check,2022.2.5,Win32,59.53798523,,,,,,,,,,,,,,./stim/p07_syllable_1_payielo_hit.wav,p07,payielo,hit,pa-yie-lo,pa-yie-lo,pa-yi-e-lo, ,-0.343649947,-0.112593383,1,0,0,1.1503,text_option_1,,0,202,202,166,1
5e945bd5f0329801e7cebca0,63f3cfca20052e4ae7554ebf,6453cb6c75003cb60abb95aa,2023-05-04_17h12.54.756,ga_syllabified_check,2022.2.5,Win32,59.53798523,,,,,,,,,,,,,,./stim/p04_syllable_1_lakabuaisto_hit.wav,p04,lakabuaisto,hit,la-ka-buais-to,la-ka-buais-to,la-ka-bu-ais-to,la-ka-bua-is-to,-0.293489861,-0.100853789,1,0,0,0.7495,text_option_1,,0,203,203,41,1
5e945bd5f0329801e7cebca0,63f3cfca20052e4ae7554ebf,6453cb6c75003cb60abb95aa,2023-05-04_17h12.54.756,ga_syllabified_check,2022.2.5,Win32,59.53798523,,,,,,,,,,,,,,,,,,,,,,,,,,,,,,,,,,
