participant,study,session,date,expName,psychopyVersion,OS,frameRate,mouse_practice.x,mouse_practice.y,mouse_practice.leftButton,mouse_practice.midButton,mouse_practice.rightButton,mouse_practice.time,mouse_practice.clicked_name,textbox_followup_practice.text,trials_practice.thisRepN,trials_practice.thisTrialN,trials_practice.thisN,trials_practice.thisIndex,trials_practice.ran,file_path,id,item,status,response,op1,op2,op3,mouse.x,mouse.y,mouse.leftButton,mouse.midButton,mouse.rightButton,mouse.time,mouse.clicked_name,textbox_followup.text,trials.thisRepN,trials.thisTrialN,trials.thisN,trials.thisIndex,trials.ran
5eb3e7d2d98e751cd2b2cd08,63f3cfca20052e4ae7554ebf,6453cc687aed3231a40ac312,2023-05-04_17h17.31.206,ga_syllabified_check,2022.2.5,Win32,59.97001499,,,,,,,,,,,,,,,,,,,,,,,,,,,,,,,,,,
5eb3e7d2d98e751cd2b2cd08,63f3cfca20052e4ae7554ebf,6453cc687aed3231a40ac312,2023-05-04_17h17.31.206,ga_syllabified_check,2022.2.5,Win32,59.97001499,-0.416666667,-0.107407407,1,0,0,3.0343,text_option_1_practice,,0,0,0,0,1,./stim/p03_syllable_1_liamo_hit.wav,p03,liamo,hit,lia-mo,lia-mo,li-a-mo, ,,,,,,,,,,,,,
5eb3e7d2d98e751cd2b2cd08,63f3cfca20052e4ae7554ebf,6453cc687aed3231a40ac312,2023-05-04_17h17.31.206,ga_syllabified_check,2022.2.5,Win32,59.97001499,-0.416666667,-0.107407407,1,0,0,1.0502,text_option_1_practice,,0,1,1,1,1,./stim/p05_syllable_1_matio_hit.wav,p05,matio,hit,ma-tio,ma-tio,ma-ti-o, ,,,,,,,,,,,,,
5eb3e7d2d98e751cd2b2cd08,63f3cfca20052e4ae7554ebf,6453cc687aed3231a40ac312,2023-05-04_17h17.31.206,ga_syllabified_check,2022.2.5,Win32,59.97001499,0.430555556,-0.113888889,1,0,0,7.637,text_option_2_practice,,0,2,2,2,1,./stim/p08_syllable_1_liamo_hit.wav,p08,liamo,hit,ja-mo,lia-mo,li-a-mo, ,,,,,,,,,,,,,
5eb3e7d2d98e751cd2b2cd08,63f3cfca20052e4ae7554ebf,6453cc687aed3231a40ac312,2023-05-04_17h17.31.206,ga_syllabified_check,2022.2.5,Win32,59.97001499,,,,,,,,,,,,,,,,,,,,,,,,,,,,,,,,,,
5eb3e7d2d98e751cd2b2cd08,63f3cfca20052e4ae7554ebf,6453cc687aed3231a40ac312,2023-05-04_17h17.31.206,ga_syllabified_check,2022.2.5,Win32,59.97001499,,,,,,,,,,,,,,./stim/p03_syllable_1_lliape_hit.wav,p03,lliape,hit,llia,llia-pe,lli-a-pe, ,-0.414814815,-0.090740741,1,0,0,1.737,text_option_1,,0,0,0,20,1
5eb3e7d2d98e751cd2b2cd08,63f3cfca20052e4ae7554ebf,6453cc687aed3231a40ac312,2023-05-04_17h17.31.206,ga_syllabified_check,2022.2.5,Win32,59.97001499,,,,,,,,,,,,,,./stim/p08_syllable_1_lakaduaisto_hit.wav,p08,lakaduaisto,hit,la-ka-du-ais-to,la-ka-duais-to,la-ka-du-ais-to,la-ka-dua-is-to,0.437037037,-0.101851852,1,0,0,9.6337,text_option_2,,0,1,1,179,1
5eb3e7d2d98e751cd2b2cd08,63f3cfca20052e4ae7554ebf,6453cc687aed3231a40ac312,2023-05-04_17h17.31.206,ga_syllabified_check,2022.2.5,Win32,59.97001499,,,,,,,,,,,,,,./stim/p06_syllable_1_paluguato_hit.wav,p06,paluguato,hit,pa-lu-gua-to,pa-lu-gua-to,pa-lu-gu-a-to, ,-0.382407407,-0.105555556,1,0,0,3.2503,text_option_1,,0,2,2,129,1
5eb3e7d2d98e751cd2b2cd08,63f3cfca20052e4ae7554ebf,6453cc687aed3231a40ac312,2023-05-04_17h17.31.206,ga_syllabified_check,2022.2.5,Win32,59.97001499,,,,,,,,,,,,,,./stim/p07_syllable_1_lakapuaisto_hit.wav,p07,lakapuaisto,hit,la-ka-puais-to,la-ka-puais-to,la-ka-pu-ais-to,la-ka-pua-is-to,-0.362962963,-0.100925926,1,0,0,3.0336,text_option_1,,0,3,3,153,1
5eb3e7d2d98e751cd2b2cd08,63f3cfca20052e4ae7554ebf,6453cc687aed3231a40ac312,2023-05-04_17h17.31.206,ga_syllabified_check,2022.2.5,Win32,59.97001499,,,,,,,,,,,,,,./stim/p08_syllable_1_pachialo_hit.wav,p08,pachialo,hit,pa-chi-ja-lo,pa-chia-lo,pa-chi-a-lo, ,0.44537037,-0.097222222,1,0,0,1.5668,text_option_2,,0,4,4,194,1
5eb3e7d2d98e751cd2b2cd08,63f3cfca20052e4ae7554ebf,6453cc687aed3231a40ac312,2023-05-04_17h17.31.206,ga_syllabified_check,2022.2.5,Win32,59.97001499,,,,,,,,,,,,,,./stim/p03_syllable_1_lakafuaisto_hit.wav,p03,lakafuaisto,hit,la-ka-fuais-to,la-ka-fuais-to,la-ka-fu-ais-to,la-ka-fua-is-to,-0.359259259,-0.106481481,1,0,0,2.4137,text_option_1,,0,5,5,11,1
5eb3e7d2d98e751cd2b2cd08,63f3cfca20052e4ae7554ebf,6453cc687aed3231a40ac312,2023-05-04_17h17.31.206,ga_syllabified_check,2022.2.5,Win32,59.97001499,,,,,,,,,,,,,,./stim/p03_syllable_1_lakakiaisto_hit.wav,p03,lakakiaisto,hit,la-ka-kiais-to,la-ka-kiais-to,la-ka-ki-ais-to,la-ka-kia-is-to,-0.362962963,-0.099074074,1,0,0,2.3668,text_option_1,,0,6,6,14,1
5eb3e7d2d98e751cd2b2cd08,63f3cfca20052e4ae7554ebf,6453cc687aed3231a40ac312,2023-05-04_17h17.31.206,ga_syllabified_check,2022.2.5,Win32,59.97001499,,,,,,,,,,,,,,./stim/p08_syllable_1_lakatuaisto_hit.wav,p08,lakatuaisto,hit,la-ka-tu-i-jis,la-ka-tuais-to,la-ka-tu-ais-to,la-ka-tua-is-to,-0.000925926,-0.107407407,1,0,0,5.1669,text_option_3,,0,7,7,189,1
5eb3e7d2d98e751cd2b2cd08,63f3cfca20052e4ae7554ebf,6453cc687aed3231a40ac312,2023-05-04_17h17.31.206,ga_syllabified_check,2022.2.5,Win32,59.97001499,,,,,,,,,,,,,,./stim/p06_syllable_1_payielo_hit.wav,p06,payielo,hit,pa-yi-e-lo,pa-yie-lo,pa-yi-e-lo, ,0.364814815,-0.110185185,1,0,0,2.5166,text_option_2,,0,8,8,132,1
5eb3e7d2d98e751cd2b2cd08,63f3cfca20052e4ae7554ebf,6453cc687aed3231a40ac312,2023-05-04_17h17.31.206,ga_syllabified_check,2022.2.5,Win32,59.97001499,,,,,,,,,,,,,,./stim/p07_syllable_1_lakatuaisto_hit.wav,p07,lakatuaisto,hit,la-ka-tuais-to,la-ka-tuais-to,la-ka-tu-ais-to,la-ka-tua-is-to,-0.346296296,-0.10462963,1,0,0,2.7169,text_option_1,,0,9,9,155,1
5eb3e7d2d98e751cd2b2cd08,63f3cfca20052e4ae7554ebf,6453cc687aed3231a40ac312,2023-05-04_17h17.31.206,ga_syllabified_check,2022.2.5,Win32,59.97001499,,,,,,,,,,,,,,./stim/p05_syllable_1_payielo_hit.wav,p05,payielo,hit,pai-yu-we-lo,pa-yie-lo,pa-yi-e-lo, ,0.377777778,-0.112037037,1,0,0,5.5003,text_option_2,,0,10,10,98,1
5eb3e7d2d98e751cd2b2cd08,63f3cfca20052e4ae7554ebf,6453cc687aed3231a40ac312,2023-05-04_17h17.31.206,ga_syllabified_check,2022.2.5,Win32,59.97001499,,,,,,,,,,,,,,./stim/p07_syllable_1_palufauto_hit.wav,p07,palufauto,hit,pa-lu-fau-to,pa-lu-fau-to,pa-lu-fa-u-to, ,-0.400925926,-0.099074074,1,0,0,2.2807,text_option_1,,0,11,11,162,1
5eb3e7d2d98e751cd2b2cd08,63f3cfca20052e4ae7554ebf,6453cc687aed3231a40ac312,2023-05-04_17h17.31.206,ga_syllabified_check,2022.2.5,Win32,59.97001499,,,,,,,,,,,,,,./stim/p04_syllable_1_lakaduaisto_hit.wav,p04,lakaduaisto,hit,la-ka-duais-to,la-ka-duais-to,la-ka-du-ais-to,la-ka-dua-is-to,-0.311111111,-0.112962963,1,0,0,3.5837,text_option_1,,0,12,12,43,1
5eb3e7d2d98e751cd2b2cd08,63f3cfca20052e4ae7554ebf,6453cc687aed3231a40ac312,2023-05-04_17h17.31.206,ga_syllabified_check,2022.2.5,Win32,59.97001499,,,,,,,,,,,,,,./stim/p07_syllable_1_palutrauco_hit.wav,p07,palutrauco,hit,pa-lu-trau-co,pa-lu-trau-co,pa-lu-tra-u-co, ,-0.313888889,-0.105555556,1,0,0,3.7836,text_option_1,,0,13,13,165,1
5eb3e7d2d98e751cd2b2cd08,63f3cfca20052e4ae7554ebf,6453cc687aed3231a40ac312,2023-05-04_17h17.31.206,ga_syllabified_check,2022.2.5,Win32,59.97001499,,,,,,,,,,,,,,./stim/p05_syllable_1_lakakiaisto_hit.wav,p05,lakakiaisto,hit,la-ka-ki-ais-to,la-ka-kiais-to,la-ka-ki-ais-to,la-ka-kia-is-to,-0.335185185,-0.101851852,1,0,0,7.734,text_option_1,,0,14,14,82,1
5eb3e7d2d98e751cd2b2cd08,63f3cfca20052e4ae7554ebf,6453cc687aed3231a40ac312,2023-05-04_17h17.31.206,ga_syllabified_check,2022.2.5,Win32,59.97001499,,,,,,,,,,,,,,./stim/p04_syllable_1_lakabiaisto_hit.wav,p04,lakabiaisto,hit,la-ka-biais-to,la-ka-biais-to,la-ka-bi-ais-to,la-ka-bia-is-to,-0.335185185,-0.101851852,1,0,0,3.3002,text_option_1,,0,15,15,40,1
5eb3e7d2d98e751cd2b2cd08,63f3cfca20052e4ae7554ebf,6453cc687aed3231a40ac312,2023-05-04_17h17.31.206,ga_syllabified_check,2022.2.5,Win32,59.97001499,,,,,,,,,,,,,,./stim/p08_syllable_1_palufauto_hit.wav,p08,palufauto,hit,pa-lu-fau-to,pa-lu-fau-to,pa-lu-fa-u-to, ,-0.375925926,-0.106481481,1,0,0,3.6505,text_option_1,,0,16,16,196,1
5eb3e7d2d98e751cd2b2cd08,63f3cfca20052e4ae7554ebf,6453cc687aed3231a40ac312,2023-05-04_17h17.31.206,ga_syllabified_check,2022.2.5,Win32,59.97001499,,,,,,,,,,,,,,./stim/p07_syllable_1_lakatiaisto_hit.wav,p07,lakatiaisto,hit,la-ka-tiai-sto,la-ka-tiais-to,la-ka-ti-ais-to,la-ka-tia-is-to,-0.012962963,-0.315740741,1,0,0,7.1839,text_option_other,la-ka-kia-isto,0,17,17,154,1
5eb3e7d2d98e751cd2b2cd08,63f3cfca20052e4ae7554ebf,6453cc687aed3231a40ac312,2023-05-04_17h17.31.206,ga_syllabified_check,2022.2.5,Win32,59.97001499,,,,,,,,,,,,,,./stim/p06_syllable_1_manhiala_hit.wav,p06,mañiala,hit,ma-nhi-a-la,ma-ñia-la,ma-ñi-a-la, ,0.444444444,-0.108333333,1,0,0,2.9335,text_option_2,,0,18,18,123,1
5eb3e7d2d98e751cd2b2cd08,63f3cfca20052e4ae7554ebf,6453cc687aed3231a40ac312,2023-05-04_17h17.31.206,ga_syllabified_check,2022.2.5,Win32,59.97001499,,,,,,,,,,,,,,./stim/p07_syllable_1_payielo_hit.wav,p07,payielo,hit,pa-yie-lo,pa-yie-lo,pa-yi-e-lo, ,-0.436111111,-0.114814815,1,0,0,2.5003,text_option_1,,0,19,19,166,1
5eb3e7d2d98e751cd2b2cd08,63f3cfca20052e4ae7554ebf,6453cc687aed3231a40ac312,2023-05-04_17h17.31.206,ga_syllabified_check,2022.2.5,Win32,59.97001499,,,,,,,,,,,,,,./stim/p05_syllable_1_chiaba_hit.wav,p05,chiaba,hit,chia-ba,chia-ba,chi-a-ba, ,-0.426851852,-0.111111111,1,0,0,1.5371,text_option_1,,0,20,20,68,1
5eb3e7d2d98e751cd2b2cd08,63f3cfca20052e4ae7554ebf,6453cc687aed3231a40ac312,2023-05-04_17h17.31.206,ga_syllabified_check,2022.2.5,Win32,59.97001499,,,,,,,,,,,,,,./stim/p07_syllable_1_lakapiaisto_hit.wav,p07,lakapiaisto,hit,la-ka-pia-sto,la-ka-piais-to,la-ka-pi-ais-to,la-ka-pia-is-to,-0.021296296,-0.296296296,1,0,0,9.3044,text_option_other,la-ka-pia-isto,0,21,21,152,1
5eb3e7d2d98e751cd2b2cd08,63f3cfca20052e4ae7554ebf,6453cc687aed3231a40ac312,2023-05-04_17h17.31.206,ga_syllabified_check,2022.2.5,Win32,59.97001499,,,,,,,,,,,,,,./stim/p07_syllable_1_lakabuaisto_hit.wav,p07,lakabuaisto,hit,la-ka-buais-to,la-ka-buais-to,la-ka-bu-ais-to,la-ka-bua-is-to,-0.349074074,-0.101851852,1,0,0,2.8004,text_option_1,,0,22,22,143,1
5eb3e7d2d98e751cd2b2cd08,63f3cfca20052e4ae7554ebf,6453cc687aed3231a40ac312,2023-05-04_17h17.31.206,ga_syllabified_check,2022.2.5,Win32,59.97001499,,,,,,,,,,,,,,./stim/p07_syllable_1_paluguato_hit.wav,p07,paluguato,hit,pa-lu-gua-to,pa-lu-gua-to,pa-lu-gu-a-to, ,-0.349074074,-0.101851852,1,0,0,2.367,text_option_1,,0,23,23,163,1
5eb3e7d2d98e751cd2b2cd08,63f3cfca20052e4ae7554ebf,6453cc687aed3231a40ac312,2023-05-04_17h17.31.206,ga_syllabified_check,2022.2.5,Win32,59.97001499,,,,,,,,,,,,,,./stim/p04_syllable_1_lakaguaisto_hit.wav,p04,lakaguaisto,hit,la-ka-guais-to,la-ka-guais-to,la-ka-gu-ais-to,la-ka-gua-is-to,-0.357407407,-0.107407407,1,0,0,6.1172,text_option_1,,0,24,24,47,1
5eb3e7d2d98e751cd2b2cd08,63f3cfca20052e4ae7554ebf,6453cc687aed3231a40ac312,2023-05-04_17h17.31.206,ga_syllabified_check,2022.2.5,Win32,59.97001499,,,,,,,,,,,,,,./stim/p03_syllable_1_palufauto_hit.wav,p03,palufauto,hit,pa-lu-fau,pa-lu-fau-to,pa-lu-fa-u-to, ,-0.357407407,-0.107407407,1,0,0,2.4977,text_option_1,,0,25,25,26,1
5eb3e7d2d98e751cd2b2cd08,63f3cfca20052e4ae7554ebf,6453cc687aed3231a40ac312,2023-05-04_17h17.31.206,ga_syllabified_check,2022.2.5,Win32,59.97001499,,,,,,,,,,,,,,./stim/p03_syllable_1_pachialo_hit.wav,p03,pachialo,hit,pa-chia-lo,pa-chia-lo,pa-chi-a-lo, ,-0.357407407,-0.107407407,1,0,0,1.7675,text_option_1,,0,26,26,24,1
5eb3e7d2d98e751cd2b2cd08,63f3cfca20052e4ae7554ebf,6453cc687aed3231a40ac312,2023-05-04_17h17.31.206,ga_syllabified_check,2022.2.5,Win32,59.97001499,,,,,,,,,,,,,,./stim/p06_syllable_1_faluduako_hit.wav,p06,faluduako,hit,fa-lu-dua-ko,fa-lu-dua-ko,fa-lu-du-a-ko, ,-0.357407407,-0.107407407,1,0,0,3.8503,text_option_1,,0,27,27,104,1
5eb3e7d2d98e751cd2b2cd08,63f3cfca20052e4ae7554ebf,6453cc687aed3231a40ac312,2023-05-04_17h17.31.206,ga_syllabified_check,2022.2.5,Win32,59.97001499,,,,,,,,,,,,,,./stim/p07_syllable_1_palufauro_hit.wav,p07,palufauro,hit,pa-lu-fau-ro,pa-lu-fau-ro,pa-lu-fa-u-ro, ,-0.357407407,-0.107407407,1,0,0,1.9672,text_option_1,,0,28,28,161,1
5eb3e7d2d98e751cd2b2cd08,63f3cfca20052e4ae7554ebf,6453cc687aed3231a40ac312,2023-05-04_17h17.31.206,ga_syllabified_check,2022.2.5,Win32,59.97001499,,,,,,,,,,,,,,./stim/p04_syllable_1_lakagiaisto_hit.wav,p04,lakagiaisto,hit,la-ka-giais-to,la-ka-giais-to,la-ka-gi-ais-to,la-ka-gia-is-to,-0.357407407,-0.107407407,1,0,0,3.25,text_option_1,,0,29,29,46,1
5eb3e7d2d98e751cd2b2cd08,63f3cfca20052e4ae7554ebf,6453cc687aed3231a40ac312,2023-05-04_17h17.31.206,ga_syllabified_check,2022.2.5,Win32,59.97001499,,,,,,,,,,,,,,./stim/p05_syllable_1_lakapiaisto_hit.wav,p05,lakapiaisto,hit,la-ka-pais-to,la-ka-piais-to,la-ka-pi-ais-to,la-ka-pia-is-to,-0.382407407,-0.096296296,1,0,0,5.1166,text_option_1,,0,30,30,84,1
5eb3e7d2d98e751cd2b2cd08,63f3cfca20052e4ae7554ebf,6453cc687aed3231a40ac312,2023-05-04_17h17.31.206,ga_syllabified_check,2022.2.5,Win32,59.97001499,,,,,,,,,,,,,,./stim/p03_syllable_1_manhiala_hit.wav,p03,mañiala,hit,ma-nhia-la,ma-ñia-la,ma-ñi-a-la, ,-0.402777778,-0.098148148,1,0,0,4.0009,text_option_1,,0,31,31,21,1
5eb3e7d2d98e751cd2b2cd08,63f3cfca20052e4ae7554ebf,6453cc687aed3231a40ac312,2023-05-04_17h17.31.206,ga_syllabified_check,2022.2.5,Win32,59.97001499,,,,,,,,,,,,,,./stim/p06_syllable_1_palutrauco_hit.wav,p06,palutrauco,hit,pa-lu-tra-u-co,pa-lu-trau-co,pa-lu-tra-u-co, ,0.373148148,-0.092592593,1,0,0,2.7837,text_option_2,,0,32,32,131,1
5eb3e7d2d98e751cd2b2cd08,63f3cfca20052e4ae7554ebf,6453cc687aed3231a40ac312,2023-05-04_17h17.31.206,ga_syllabified_check,2022.2.5,Win32,59.97001499,,,,,,,,,,,,,,./stim/p03_syllable_1_lakatuaisto_hit.wav,p03,lakatuaisto,hit,la-ka-tuais-to,la-ka-tuais-to,la-ka-tu-ais-to,la-ka-tua-is-to,-0.393518519,-0.086111111,1,0,0,4.0337,text_option_1,,0,33,33,19,1
5eb3e7d2d98e751cd2b2cd08,63f3cfca20052e4ae7554ebf,6453cc687aed3231a40ac312,2023-05-04_17h17.31.206,ga_syllabified_check,2022.2.5,Win32,59.97001499,,,,,,,,,,,,,,./stim/p08_syllable_1_payielo_hit.wav,p08,payielo,hit,pa-yie-lo,pa-yie-lo,pa-yi-e-lo, ,-0.35,-0.1,1,0,0,2.0663,text_option_1,,0,34,34,200,1
5eb3e7d2d98e751cd2b2cd08,63f3cfca20052e4ae7554ebf,6453cc687aed3231a40ac312,2023-05-04_17h17.31.206,ga_syllabified_check,2022.2.5,Win32,59.97001499,,,,,,,,,,,,,,./stim/p05_syllable_1_rausto_hit.wav,p05,rausto,hit,raus-to,raus-to,ra-us-to, ,-0.374074074,-0.112037037,1,0,0,1.3002,text_option_1,,0,35,35,99,1
5eb3e7d2d98e751cd2b2cd08,63f3cfca20052e4ae7554ebf,6453cc687aed3231a40ac312,2023-05-04_17h17.31.206,ga_syllabified_check,2022.2.5,Win32,59.97001499,,,,,,,,,,,,,,./stim/p03_syllable_1_lakadiaisto_hit.wav,p03,lakadiaisto,hit,la-ka-diais-to,la-ka-diais-to,la-ka-di-ais-to,la-ka-dia-is-to,-0.374074074,-0.112037037,1,0,0,1.6337,text_option_1,,0,36,36,8,1
5eb3e7d2d98e751cd2b2cd08,63f3cfca20052e4ae7554ebf,6453cc687aed3231a40ac312,2023-05-04_17h17.31.206,ga_syllabified_check,2022.2.5,Win32,59.97001499,,,,,,,,,,,,,,./stim/p06_syllable_1_nhiape_hit.wav,p06,ñiape,hit,nhi-a-pe,ñia-pe,ñi-a-pe, ,0.40462963,-0.102777778,1,0,0,1.8335,text_option_2,,0,37,37,125,1
5eb3e7d2d98e751cd2b2cd08,63f3cfca20052e4ae7554ebf,6453cc687aed3231a40ac312,2023-05-04_17h17.31.206,ga_syllabified_check,2022.2.5,Win32,59.97001499,,,,,,,,,,,,,,./stim/p05_syllable_1_lakaguaisto_hit.wav,p05,lakaguaisto,hit,la-ka-gais,la-ka-guais-to,la-ka-gu-ais-to,la-ka-gua-is-to,-0.358333333,-0.110185185,1,0,0,5.0502,text_option_1,,0,38,38,81,1
5eb3e7d2d98e751cd2b2cd08,63f3cfca20052e4ae7554ebf,6453cc687aed3231a40ac312,2023-05-04_17h17.31.206,ga_syllabified_check,2022.2.5,Win32,59.97001499,,,,,,,,,,,,,,./stim/p07_syllable_1_ruyiola_hit.wav,p07,ruyiola,hit,ru-yio-la,ru-yio-la,ru-yi-o-la, ,-0.392592593,-0.101851852,1,0,0,1.6671,text_option_1,,0,39,39,168,1
5eb3e7d2d98e751cd2b2cd08,63f3cfca20052e4ae7554ebf,6453cc687aed3231a40ac312,2023-05-04_17h17.31.206,ga_syllabified_check,2022.2.5,Win32,59.97001499,,,,,,,,,,,,,,./stim/p05_syllable_1_manhiala_hit.wav,p05,mañiala,hit,ma-nhia-la,ma-ñia-la,ma-ñi-a-la, ,-0.387962963,-0.110185185,1,0,0,4.3667,text_option_1,,0,40,40,89,1
5eb3e7d2d98e751cd2b2cd08,63f3cfca20052e4ae7554ebf,6453cc687aed3231a40ac312,2023-05-04_17h17.31.206,ga_syllabified_check,2022.2.5,Win32,59.97001499,,,,,,,,,,,,,,./stim/p08_syllable_1_lakagiaisto_hit.wav,p08,lakagiaisto,hit,la-ka-gi-jas-to,la-ka-giais-to,la-ka-gi-ais-to,la-ka-gia-is-to,0.356481481,-0.103703704,1,0,0,5.3504,text_option_2,,0,41,41,182,1
5eb3e7d2d98e751cd2b2cd08,63f3cfca20052e4ae7554ebf,6453cc687aed3231a40ac312,2023-05-04_17h17.31.206,ga_syllabified_check,2022.2.5,Win32,59.97001499,,,,,,,,,,,,,,./stim/p05_syllable_1_palumaisto_hit.wav,p05,palumaisto,hit,pa-lu-mais-to,pa-lu-mais-to,pa-lu-ma-is-to, ,-0.330555556,-0.107407407,1,0,0,2.7337,text_option_1,,0,42,42,96,1
5eb3e7d2d98e751cd2b2cd08,63f3cfca20052e4ae7554ebf,6453cc687aed3231a40ac312,2023-05-04_17h17.31.206,ga_syllabified_check,2022.2.5,Win32,59.97001499,,,,,,,,,,,,,,./stim/p08_syllable_1_lakafiaisto_hit.wav,p08,lakafiaisto,hit,la-ka-fi-as-to,la-ka-fiais-to,la-ka-fi-ais-to,la-ka-fia-is-to,0.355555556,-0.118518519,1,0,0,5.5503,text_option_2,,0,43,43,180,1
5eb3e7d2d98e751cd2b2cd08,63f3cfca20052e4ae7554ebf,6453cc687aed3231a40ac312,2023-05-04_17h17.31.206,ga_syllabified_check,2022.2.5,Win32,59.97001499,,,,,,,,,,,,,,./stim/p05_syllable_1_lakapuaisto_hit.wav,p05,lakapuaisto,hit,la-ka-pais-to,la-ka-puais-to,la-ka-pu-ais-to,la-ka-pua-is-to,-0.330555556,-0.111111111,1,0,0,8.0338,text_option_1,,0,44,44,85,1
5eb3e7d2d98e751cd2b2cd08,63f3cfca20052e4ae7554ebf,6453cc687aed3231a40ac312,2023-05-04_17h17.31.206,ga_syllabified_check,2022.2.5,Win32,59.97001499,,,,,,,,,,,,,,./stim/p05_syllable_1_lakafuaisto_hit.wav,p05,lakafuaisto,hit,la-ka-fais-to,la-ka-fuais-to,la-ka-fu-ais-to,la-ka-fua-is-to,-0.366666667,-0.102777778,1,0,0,2.1335,text_option_1,,0,45,45,79,1
5eb3e7d2d98e751cd2b2cd08,63f3cfca20052e4ae7554ebf,6453cc687aed3231a40ac312,2023-05-04_17h17.31.206,ga_syllabified_check,2022.2.5,Win32,59.97001499,,,,,,,,,,,,,,./stim/p03_syllable_1_palufauro_hit.wav,p03,palufauro,hit,pa-lu-fau-ro,pa-lu-fau-ro,pa-lu-fa-u-ro, ,-0.422222222,-0.116666667,1,0,0,2.0171,text_option_1,,0,46,46,25,1
5eb3e7d2d98e751cd2b2cd08,63f3cfca20052e4ae7554ebf,6453cc687aed3231a40ac312,2023-05-04_17h17.31.206,ga_syllabified_check,2022.2.5,Win32,59.97001499,,,,,,,,,,,,,,./stim/p06_syllable_1_tuliafo_hit.wav,p06,tuliafo,hit,tu-li-a-fo,tu-lia-fo,tu-li-a-fo, ,0.434259259,-0.10462963,1,0,0,1.7834,text_option_2,,0,47,47,135,1
5eb3e7d2d98e751cd2b2cd08,63f3cfca20052e4ae7554ebf,6453cc687aed3231a40ac312,2023-05-04_17h17.31.206,ga_syllabified_check,2022.2.5,Win32,59.97001499,,,,,,,,,,,,,,./stim/p04_syllable_1_payielo_hit.wav,p04,payielo,hit,pa-yie-lo,pa-yie-lo,pa-yi-e-lo, ,-0.371296296,-0.10462963,1,0,0,0.8871,text_option_1,,0,48,48,64,1
5eb3e7d2d98e751cd2b2cd08,63f3cfca20052e4ae7554ebf,6453cc687aed3231a40ac312,2023-05-04_17h17.31.206,ga_syllabified_check,2022.2.5,Win32,59.97001499,,,,,,,,,,,,,,./stim/p06_syllable_1_lakafiaisto_hit.wav,p06,lakafiaisto,hit,la-ka-fia-is-to,la-ka-fiais-to,la-ka-fi-ais-to,la-ka-fia-is-to,0.037037037,-0.109259259,1,0,0,3.5335,text_option_3,,0,49,49,112,1
5eb3e7d2d98e751cd2b2cd08,63f3cfca20052e4ae7554ebf,6453cc687aed3231a40ac312,2023-05-04_17h17.31.206,ga_syllabified_check,2022.2.5,Win32,59.97001499,,,,,,,,,,,,,,./stim/p06_syllable_1_costonhialo_hit.wav,p06,costoñialo,hit,cos-to-nhia-lo,cos-to-ñia-lo,cos-to-ñi-a-lo, ,-0.333333333,-0.108333333,1,0,0,2.8838,text_option_1,,0,50,50,103,1
5eb3e7d2d98e751cd2b2cd08,63f3cfca20052e4ae7554ebf,6453cc687aed3231a40ac312,2023-05-04_17h17.31.206,ga_syllabified_check,2022.2.5,Win32,59.97001499,,,,,,,,,,,,,,./stim/p07_syllable_1_faluduako_hit.wav,p07,faluduako,hit,fa-lu-dua-ko,fa-lu-dua-ko,fa-lu-du-a-ko, ,-0.333333333,-0.108333333,1,0,0,2.5665,text_option_1,,0,51,51,138,1
5eb3e7d2d98e751cd2b2cd08,63f3cfca20052e4ae7554ebf,6453cc687aed3231a40ac312,2023-05-04_17h17.31.206,ga_syllabified_check,2022.2.5,Win32,59.97001499,,,,,,,,,,,,,,./stim/p05_syllable_1_lakagiaisto_hit.wav,p05,lakagiaisto,hit,la-ka-ki-ais-to,la-ka-giais-to,la-ka-gi-ais-to,la-ka-gia-is-to,-0.333333333,-0.108333333,1,0,0,2.717,text_option_1,,0,52,52,80,1
5eb3e7d2d98e751cd2b2cd08,63f3cfca20052e4ae7554ebf,6453cc687aed3231a40ac312,2023-05-04_17h17.31.206,ga_syllabified_check,2022.2.5,Win32,59.97001499,,,,,,,,,,,,,,./stim/p06_syllable_1_falutraigo_hit.wav,p06,falutraigo,hit,fa-lu-tra-i-go,fa-lu-trai-go,fa-lu-tra-i-go, ,0.399074074,-0.092592593,1,0,0,3.7163,text_option_2,,0,53,53,106,1
5eb3e7d2d98e751cd2b2cd08,63f3cfca20052e4ae7554ebf,6453cc687aed3231a40ac312,2023-05-04_17h17.31.206,ga_syllabified_check,2022.2.5,Win32,59.97001499,,,,,,,,,,,,,,./stim/p07_syllable_1_palumaisto_hit.wav,p07,palumaisto,hit,pa-lu-mais-to,pa-lu-mais-to,pa-lu-ma-is-to, ,-0.423148148,-0.118518519,1,0,0,2.85,text_option_1,,0,54,54,164,1
5eb3e7d2d98e751cd2b2cd08,63f3cfca20052e4ae7554ebf,6453cc687aed3231a40ac312,2023-05-04_17h17.31.206,ga_syllabified_check,2022.2.5,Win32,59.97001499,,,,,,,,,,,,,,./stim/p07_syllable_1_lakaguaisto_hit.wav,p07,lakaguaisto,hit,la-ka-guais-to,la-ka-guais-to,la-ka-gu-ais-to,la-ka-gua-is-to,-0.387962963,-0.106481481,1,0,0,2.8703,text_option_1,,0,55,55,149,1
5eb3e7d2d98e751cd2b2cd08,63f3cfca20052e4ae7554ebf,6453cc687aed3231a40ac312,2023-05-04_17h17.31.206,ga_syllabified_check,2022.2.5,Win32,59.97001499,,,,,,,,,,,,,,./stim/p03_syllable_1_lakaguaisto_hit.wav,p03,lakaguaisto,hit,la-ka-guais-to,la-ka-guais-to,la-ka-gu-ais-to,la-ka-gua-is-to,-0.393518519,-0.107407407,1,0,0,1.8641,text_option_1,,0,56,56,13,1
5eb3e7d2d98e751cd2b2cd08,63f3cfca20052e4ae7554ebf,6453cc687aed3231a40ac312,2023-05-04_17h17.31.206,ga_syllabified_check,2022.2.5,Win32,59.97001499,,,,,,,,,,,,,,./stim/p04_syllable_1_rausto_hit.wav,p04,rausto,hit,raus-to,raus-to,ra-us-to, ,-0.39537037,-0.108333333,1,0,0,0.8168,text_option_1,,0,57,57,65,1
5eb3e7d2d98e751cd2b2cd08,63f3cfca20052e4ae7554ebf,6453cc687aed3231a40ac312,2023-05-04_17h17.31.206,ga_syllabified_check,2022.2.5,Win32,59.97001499,,,,,,,,,,,,,,./stim/p07_syllable_1_lakafuaisto_hit.wav,p07,lakafuaisto,hit,la-ka-fuais-to,la-ka-fuais-to,la-ka-fu-ais-to,la-ka-fua-is-to,-0.342592593,-0.10462963,1,0,0,2.0983,text_option_1,,0,58,58,147,1
5eb3e7d2d98e751cd2b2cd08,63f3cfca20052e4ae7554ebf,6453cc687aed3231a40ac312,2023-05-04_17h17.31.206,ga_syllabified_check,2022.2.5,Win32,59.97001499,,,,,,,,,,,,,,./stim/p08_syllable_1_palufauro_hit.wav,p08,palufauro,hit,pa-lu-fau-ro,pa-lu-fau-ro,pa-lu-fa-u-ro, ,-0.357407407,-0.108333333,1,0,0,3.1501,text_option_1,,0,59,59,195,1
5eb3e7d2d98e751cd2b2cd08,63f3cfca20052e4ae7554ebf,6453cc687aed3231a40ac312,2023-05-04_17h17.31.206,ga_syllabified_check,2022.2.5,Win32,59.97001499,,,,,,,,,,,,,,./stim/p03_syllable_1_costonhialo_hit.wav,p03,costoñialo,hit,cos-to-nhia-lo,cos-to-ñia-lo,cos-to-ñi-a-lo, ,-0.357407407,-0.108333333,1,0,0,1.734,text_option_1,,0,60,60,1,1
5eb3e7d2d98e751cd2b2cd08,63f3cfca20052e4ae7554ebf,6453cc687aed3231a40ac312,2023-05-04_17h17.31.206,ga_syllabified_check,2022.2.5,Win32,59.97001499,,,,,,,,,,,,,,./stim/p03_syllable_1_lakagiaisto_hit.wav,p03,lakagiaisto,hit,la-ka-giais-to,la-ka-giais-to,la-ka-gi-ais-to,la-ka-gia-is-to,-0.357407407,-0.108333333,1,0,0,2.8338,text_option_1,,0,61,61,12,1
5eb3e7d2d98e751cd2b2cd08,63f3cfca20052e4ae7554ebf,6453cc687aed3231a40ac312,2023-05-04_17h17.31.206,ga_syllabified_check,2022.2.5,Win32,59.97001499,,,,,,,,,,,,,,./stim/p06_syllable_1_lliape_hit.wav,p06,lliape,hit,lli-lla-pe,llia-pe,lli-a-pe, ,0.387037037,-0.103703704,1,0,0,1.9173,text_option_2,,0,62,62,122,1
5eb3e7d2d98e751cd2b2cd08,63f3cfca20052e4ae7554ebf,6453cc687aed3231a40ac312,2023-05-04_17h17.31.206,ga_syllabified_check,2022.2.5,Win32,59.97001499,,,,,,,,,,,,,,./stim/p04_syllable_1_manhiala_hit.wav,p04,mañiala,hit,ma-nhia-la,ma-ñia-la,ma-ñi-a-la, ,-0.392592593,-0.105555556,1,0,0,0.8332,text_option_1,,0,63,63,55,1
5eb3e7d2d98e751cd2b2cd08,63f3cfca20052e4ae7554ebf,6453cc687aed3231a40ac312,2023-05-04_17h17.31.206,ga_syllabified_check,2022.2.5,Win32,59.97001499,,,,,,,,,,,,,,./stim/p05_syllable_1_lakabuaisto_hit.wav,p05,lakabuaisto,hit,la-ka-buais-to,la-ka-buais-to,la-ka-bu-ais-to,la-ka-bua-is-to,-0.334259259,-0.102777778,1,0,0,2.1003,text_option_1,,0,64,64,75,1
5eb3e7d2d98e751cd2b2cd08,63f3cfca20052e4ae7554ebf,6453cc687aed3231a40ac312,2023-05-04_17h17.31.206,ga_syllabified_check,2022.2.5,Win32,59.97001499,,,,,,,,,,,,,,./stim/p04_syllable_1_palutrauco_hit.wav,p04,palutrauco,hit,pa-lu-trau-co,pa-lu-trau-co,pa-lu-tra-u-co, ,-0.356481481,-0.105555556,1,0,0,2.7003,text_option_1,,0,65,65,63,1
5eb3e7d2d98e751cd2b2cd08,63f3cfca20052e4ae7554ebf,6453cc687aed3231a40ac312,2023-05-04_17h17.31.206,ga_syllabified_check,2022.2.5,Win32,59.97001499,,,,,,,,,,,,,,./stim/p05_syllable_1_lakakuaisto_hit.wav,p05,lakakuaisto,hit,la-ka-kais-to,la-ka-kuais-to,la-ka-ku-ais-to,la-ka-kua-is-to,-0.362962963,-0.097222222,1,0,0,5.0669,text_option_1,,0,66,66,83,1
5eb3e7d2d98e751cd2b2cd08,63f3cfca20052e4ae7554ebf,6453cc687aed3231a40ac312,2023-05-04_17h17.31.206,ga_syllabified_check,2022.2.5,Win32,59.97001499,,,,,,,,,,,,,,./stim/p05_syllable_1_lakatuaisto_hit.wav,p05,lakatuaisto,hit,la-ka-tais-to,la-ka-tuais-to,la-ka-tu-ais-to,la-ka-tua-is-to,-0.371296296,-0.101851852,1,0,0,1.5172,text_option_1,,0,67,67,87,1
5eb3e7d2d98e751cd2b2cd08,63f3cfca20052e4ae7554ebf,6453cc687aed3231a40ac312,2023-05-04_17h17.31.206,ga_syllabified_check,2022.2.5,Win32,59.97001499,,,,,,,,,,,,,,./stim/p03_syllable_1_lakabiaisto_hit.wav,p03,lakabiaisto,hit,la-ka-biais-to,la-ka-biais-to,la-ka-bi-ais-to,la-ka-bia-is-to,-0.362037037,-0.101851852,1,0,0,2.547,text_option_1,,0,68,68,6,1
5eb3e7d2d98e751cd2b2cd08,63f3cfca20052e4ae7554ebf,6453cc687aed3231a40ac312,2023-05-04_17h17.31.206,ga_syllabified_check,2022.2.5,Win32,59.97001499,,,,,,,,,,,,,,./stim/p08_syllable_1_palutrauco_hit.wav,p08,palutrauco,hit,pa-lu-trau-ko,pa-lu-trau-co,pa-lu-tra-u-co, ,-0.366666667,-0.101851852,1,0,0,3.5009,text_option_1,,0,69,69,199,1
5eb3e7d2d98e751cd2b2cd08,63f3cfca20052e4ae7554ebf,6453cc687aed3231a40ac312,2023-05-04_17h17.31.206,ga_syllabified_check,2022.2.5,Win32,59.97001499,,,,,,,,,,,,,,./stim/p04_syllable_1_paluguato_hit.wav,p04,paluguato,hit,pa-lu-gua,pa-lu-gua-to,pa-lu-gu-a-to, ,-0.385185185,-0.112037037,1,0,0,3.4505,text_option_1,,0,70,70,61,1
5eb3e7d2d98e751cd2b2cd08,63f3cfca20052e4ae7554ebf,6453cc687aed3231a40ac312,2023-05-04_17h17.31.206,ga_syllabified_check,2022.2.5,Win32,59.97001499,,,,,,,,,,,,,,./stim/p03_syllable_1_tuliafo_hit.wav,p03,tuliafo,hit,tu-lia-fo,tu-lia-fo,tu-li-a-fo, ,-0.385185185,-0.112037037,1,0,0,2.8498,text_option_1,,0,71,71,33,1
5eb3e7d2d98e751cd2b2cd08,63f3cfca20052e4ae7554ebf,6453cc687aed3231a40ac312,2023-05-04_17h17.31.206,ga_syllabified_check,2022.2.5,Win32,59.97001499,,,,,,,,,,,,,,./stim/p03_syllable_1_lakaduaisto_hit.wav,p03,lakaduaisto,hit,la-ka-duais-to,la-ka-duais-to,la-ka-du-ais-to,la-ka-dua-is-to,-0.385185185,-0.112037037,1,0,0,2.8647,text_option_1,,0,72,72,9,1
5eb3e7d2d98e751cd2b2cd08,63f3cfca20052e4ae7554ebf,6453cc687aed3231a40ac312,2023-05-04_17h17.31.206,ga_syllabified_check,2022.2.5,Win32,59.97001499,,,,,,,,,,,,,,./stim/p03_syllable_1_payielo_hit.wav,p03,payielo,hit,pa-yie-lo,pa-yie-lo,pa-yi-e-lo, ,-0.440740741,-0.109259259,1,0,0,1.6669,text_option_1,,0,73,73,30,1
5eb3e7d2d98e751cd2b2cd08,63f3cfca20052e4ae7554ebf,6453cc687aed3231a40ac312,2023-05-04_17h17.31.206,ga_syllabified_check,2022.2.5,Win32,59.97001499,,,,,,,,,,,,,,./stim/p07_syllable_1_lakabiaisto_hit.wav,p07,lakabiaisto,hit,la-ka-bais-to,la-ka-biais-to,la-ka-bi-ais-to,la-ka-bia-is-to,-0.333333333,-0.097222222,1,0,0,8.0838,text_option_1,,0,74,74,142,1
5eb3e7d2d98e751cd2b2cd08,63f3cfca20052e4ae7554ebf,6453cc687aed3231a40ac312,2023-05-04_17h17.31.206,ga_syllabified_check,2022.2.5,Win32,59.97001499,,,,,,,,,,,,,,./stim/p08_syllable_1_lakaguaisto_hit.wav,p08,lakaguaisto,hit,la-ka-gu-ais-to,la-ka-guais-to,la-ka-gu-ais-to,la-ka-gua-is-to,0.44537037,-0.09537037,1,0,0,4.349,text_option_2,,0,75,75,183,1
5eb3e7d2d98e751cd2b2cd08,63f3cfca20052e4ae7554ebf,6453cc687aed3231a40ac312,2023-05-04_17h17.31.206,ga_syllabified_check,2022.2.5,Win32,59.97001499,,,,,,,,,,,,,,./stim/p03_syllable_1_nhiape_hit.wav,p03,ñiape,hit,nhia-pe,ñia-pe,ñi-a-pe, ,-0.410185185,-0.113888889,1,0,0,1.3637,text_option_1,,0,76,76,23,1
5eb3e7d2d98e751cd2b2cd08,63f3cfca20052e4ae7554ebf,6453cc687aed3231a40ac312,2023-05-04_17h17.31.206,ga_syllabified_check,2022.2.5,Win32,59.97001499,,,,,,,,,,,,,,./stim/p06_syllable_1_lakadiaisto_hit.wav,p06,lakadiaisto,hit,la-ka-dia-is-to,la-ka-diais-to,la-ka-di-ais-to,la-ka-dia-is-to,0.012037037,-0.099074074,1,0,0,5.3672,text_option_3,,0,77,77,110,1
5eb3e7d2d98e751cd2b2cd08,63f3cfca20052e4ae7554ebf,6453cc687aed3231a40ac312,2023-05-04_17h17.31.206,ga_syllabified_check,2022.2.5,Win32,59.97001499,,,,,,,,,,,,,,./stim/p06_syllable_1_chiaba_hit.wav,p06,chiaba,hit,chi-a-ba,chia-ba,chi-a-ba, ,-0.389814815,-0.101851852,1,0,0,1.9837,text_option_1,,0,78,78,102,1
5eb3e7d2d98e751cd2b2cd08,63f3cfca20052e4ae7554ebf,6453cc687aed3231a40ac312,2023-05-04_17h17.31.206,ga_syllabified_check,2022.2.5,Win32,59.97001499,,,,,,,,,,,,,,./stim/p04_syllable_1_costonhialo_hit.wav,p04,costoñialo,hit,cos-to-nhia-lo,cos-to-ñia-lo,cos-to-ñi-a-lo, ,-0.389814815,-0.101851852,1,0,0,2.6636,text_option_1,,0,79,79,35,1
5eb3e7d2d98e751cd2b2cd08,63f3cfca20052e4ae7554ebf,6453cc687aed3231a40ac312,2023-05-04_17h17.31.206,ga_syllabified_check,2022.2.5,Win32,59.97001499,,,,,,,,,,,,,,./stim/p06_syllable_1_lakaguaisto_hit.wav,p06,lakaguaisto,hit,la-ka-gu-a-is,la-ka-guais-to,la-ka-gu-ais-to,la-ka-gua-is-to,-0.022222222,-0.312037037,1,0,0,8.0841,text_option_other,la-ka-gu-a-is-to,0,80,80,115,1
5eb3e7d2d98e751cd2b2cd08,63f3cfca20052e4ae7554ebf,6453cc687aed3231a40ac312,2023-05-04_17h17.31.206,ga_syllabified_check,2022.2.5,Win32,59.97001499,,,,,,,,,,,,,,./stim/p07_syllable_1_lakagiaisto_hit.wav,p07,lakagiaisto,hit,la-ka-gais-to,la-ka-giais-to,la-ka-gi-ais-to,la-ka-gia-is-to,-0.353703704,-0.110185185,1,0,0,3.1836,text_option_1,,0,81,81,148,1
5eb3e7d2d98e751cd2b2cd08,63f3cfca20052e4ae7554ebf,6453cc687aed3231a40ac312,2023-05-04_17h17.31.206,ga_syllabified_check,2022.2.5,Win32,59.97001499,,,,,,,,,,,,,,./stim/p05_syllable_1_ruyiola_hit.wav,p05,ruyiola,hit,ru-yio-la,ru-yio-la,ru-yi-o-la, ,-0.384259259,-0.112962963,1,0,0,2.2002,text_option_1,,0,82,82,100,1
5eb3e7d2d98e751cd2b2cd08,63f3cfca20052e4ae7554ebf,6453cc687aed3231a40ac312,2023-05-04_17h17.31.206,ga_syllabified_check,2022.2.5,Win32,59.97001499,,,,,,,,,,,,,,./stim/p07_syllable_1_nhiape_hit.wav,p07,ñiape,hit,nhia-pe,ñia-pe,ñi-a-pe, ,-0.384259259,-0.112962963,1,0,0,0.4333,text_option_1,,0,83,83,159,1
5eb3e7d2d98e751cd2b2cd08,63f3cfca20052e4ae7554ebf,6453cc687aed3231a40ac312,2023-05-04_17h17.31.206,ga_syllabified_check,2022.2.5,Win32,59.97001499,,,,,,,,,,,,,,./stim/p08_syllable_1_lakafuaisto_hit.wav,p08,lakafuaisto,hit,la-ka-fju-ais-to,la-ka-fuais-to,la-ka-fu-ais-to,la-ka-fua-is-to,-0.384259259,-0.112962963,1,0,0,3.0171,text_option_1,,0,84,84,181,1
5eb3e7d2d98e751cd2b2cd08,63f3cfca20052e4ae7554ebf,6453cc687aed3231a40ac312,2023-05-04_17h17.31.206,ga_syllabified_check,2022.2.5,Win32,59.97001499,,,,,,,,,,,,,,./stim/p05_syllable_1_costonhialo_hit.wav,p05,costoñialo,hit,cos-to-nhia-lo,cos-to-ñia-lo,cos-to-ñi-a-lo, ,-0.384259259,-0.112962963,1,0,0,1.867,text_option_1,,0,85,85,69,1
5eb3e7d2d98e751cd2b2cd08,63f3cfca20052e4ae7554ebf,6453cc687aed3231a40ac312,2023-05-04_17h17.31.206,ga_syllabified_check,2022.2.5,Win32,59.97001499,,,,,,,,,,,,,,./stim/p05_syllable_1_lakadiaisto_hit.wav,p05,lakadiaisto,hit,la-ka-di-ais-to,la-ka-diais-to,la-ka-di-ais-to,la-ka-dia-is-to,-0.384259259,-0.112962963,1,0,0,1.3668,text_option_1,,0,86,86,76,1
5eb3e7d2d98e751cd2b2cd08,63f3cfca20052e4ae7554ebf,6453cc687aed3231a40ac312,2023-05-04_17h17.31.206,ga_syllabified_check,2022.2.5,Win32,59.97001499,,,,,,,,,,,,,,./stim/p03_syllable_1_lakafiaisto_hit.wav,p03,lakafiaisto,hit,la-ka-fiais-to,la-ka-fiais-to,la-ka-fi-ais-to,la-ka-fia-is-to,-0.384259259,-0.112962963,1,0,0,1.3503,text_option_1,,0,87,87,10,1
5eb3e7d2d98e751cd2b2cd08,63f3cfca20052e4ae7554ebf,6453cc687aed3231a40ac312,2023-05-04_17h17.31.206,ga_syllabified_check,2022.2.5,Win32,59.97001499,,,,,,,,,,,,,,./stim/p07_syllable_1_lakakiaisto_hit.wav,p07,lakakiaisto,hit,la-ka-kais-to,la-ka-kiais-to,la-ka-ki-ais-to,la-ka-kia-is-to,-0.34537037,-0.101851852,1,0,0,3.3667,text_option_1,,0,88,88,150,1
5eb3e7d2d98e751cd2b2cd08,63f3cfca20052e4ae7554ebf,6453cc687aed3231a40ac312,2023-05-04_17h17.31.206,ga_syllabified_check,2022.2.5,Win32,59.97001499,,,,,,,,,,,,,,./stim/p04_syllable_1_lakafuaisto_hit.wav,p04,lakafuaisto,hit,la-ka-fuais-to,la-ka-fuais-to,la-ka-fu-ais-to,la-ka-fua-is-to,-0.34537037,-0.101851852,1,0,0,2.0337,text_option_1,,0,89,89,45,1
5eb3e7d2d98e751cd2b2cd08,63f3cfca20052e4ae7554ebf,6453cc687aed3231a40ac312,2023-05-04_17h17.31.206,ga_syllabified_check,2022.2.5,Win32,59.97001499,,,,,,,,,,,,,,./stim/p03_syllable_1_lakapuaisto_hit.wav,p03,lakapuaisto,hit,la-ka-puais-to,la-ka-puais-to,la-ka-pu-ais-to,la-ka-pua-is-to,-0.34537037,-0.101851852,1,0,0,2.0702,text_option_1,,0,90,90,17,1
5eb3e7d2d98e751cd2b2cd08,63f3cfca20052e4ae7554ebf,6453cc687aed3231a40ac312,2023-05-04_17h17.31.206,ga_syllabified_check,2022.2.5,Win32,59.97001499,,,,,,,,,,,,,,./stim/p07_syllable_1_mebochiana_hit.wav,p07,mebochiana,hit,me-bo-chia-na,me-bo-chia-na,me-bo-chi-a-na, ,-0.338888889,-0.09537037,1,0,0,3.6207,text_option_1,,0,91,91,158,1
5eb3e7d2d98e751cd2b2cd08,63f3cfca20052e4ae7554ebf,6453cc687aed3231a40ac312,2023-05-04_17h17.31.206,ga_syllabified_check,2022.2.5,Win32,59.97001499,,,,,,,,,,,,,,./stim/p04_syllable_1_mebochiana_hit.wav,p04,mebochiana,hit,me-bo-chia-na,me-bo-chia-na,me-bo-chi-a-na, ,-0.338888889,-0.09537037,1,0,0,1.7197,text_option_1,,0,92,92,56,1
5eb3e7d2d98e751cd2b2cd08,63f3cfca20052e4ae7554ebf,6453cc687aed3231a40ac312,2023-05-04_17h17.31.206,ga_syllabified_check,2022.2.5,Win32,59.97001499,,,,,,,,,,,,,,./stim/p04_syllable_1_tuliafo_hit.wav,p04,tuliafo,hit,tu-lia-fo,tu-lia-fo,tu-li-a-fo, ,-0.373148148,-0.098148148,1,0,0,2.5969,text_option_1,,0,93,93,67,1
5eb3e7d2d98e751cd2b2cd08,63f3cfca20052e4ae7554ebf,6453cc687aed3231a40ac312,2023-05-04_17h17.31.206,ga_syllabified_check,2022.2.5,Win32,59.97001499,,,,,,,,,,,,,,./stim/p08_syllable_1_lakabuaisto_hit.wav,p08,lakabuaisto,hit,la-ka-bu-ais-to,la-ka-buais-to,la-ka-bu-ais-to,la-ka-bua-is-to,0.39537037,-0.092592593,1,0,0,6.415,text_option_2,,0,94,94,177,1
5eb3e7d2d98e751cd2b2cd08,63f3cfca20052e4ae7554ebf,6453cc687aed3231a40ac312,2023-05-04_17h17.31.206,ga_syllabified_check,2022.2.5,Win32,59.97001499,,,,,,,,,,,,,,./stim/p03_syllable_1_palutrauco_hit.wav,p03,palutrauco,hit,pa-lu-trau-co,pa-lu-trau-co,pa-lu-tra-u-co, ,-0.418518519,-0.101851852,1,0,0,2.417,text_option_1,,0,95,95,29,1
5eb3e7d2d98e751cd2b2cd08,63f3cfca20052e4ae7554ebf,6453cc687aed3231a40ac312,2023-05-04_17h17.31.206,ga_syllabified_check,2022.2.5,Win32,59.97001499,,,,,,,,,,,,,,./stim/p03_syllable_1_faluduako_hit.wav,p03,faluduako,hit,fa-lu-dua-ko,fa-lu-dua-ko,fa-lu-du-a-ko, ,-0.334259259,-0.097222222,1,0,0,1.9641,text_option_1,,0,96,96,2,1
5eb3e7d2d98e751cd2b2cd08,63f3cfca20052e4ae7554ebf,6453cc687aed3231a40ac312,2023-05-04_17h17.31.206,ga_syllabified_check,2022.2.5,Win32,59.97001499,,,,,,,,,,,,,,./stim/p06_syllable_1_lakakiaisto_hit.wav,p06,lakakiaisto,hit,la-ka-kia-is-to,la-ka-kiais-to,la-ka-ki-ais-to,la-ka-kia-is-to,0.02962963,-0.107407407,1,0,0,5.4171,text_option_3,,0,97,97,116,1
5eb3e7d2d98e751cd2b2cd08,63f3cfca20052e4ae7554ebf,6453cc687aed3231a40ac312,2023-05-04_17h17.31.206,ga_syllabified_check,2022.2.5,Win32,59.97001499,,,,,,,,,,,,,,./stim/p08_syllable_1_lliape_hit.wav,p08,lliape,hit,li-a-pe,llia-pe,lli-a-pe, ,0.383333333,-0.09537037,1,0,0,2.7808,text_option_2,,0,98,98,190,1
5eb3e7d2d98e751cd2b2cd08,63f3cfca20052e4ae7554ebf,6453cc687aed3231a40ac312,2023-05-04_17h17.31.206,ga_syllabified_check,2022.2.5,Win32,59.97001499,,,,,,,,,,,,,,./stim/p04_syllable_1_lakatiaisto_hit.wav,p04,lakatiaisto,hit,la-ka-kiais-to,la-ka-tiais-to,la-ka-ti-ais-to,la-ka-tia-is-to,-0.346296296,-0.113888889,1,0,0,1.6004,text_option_1,,0,99,99,52,1
5eb3e7d2d98e751cd2b2cd08,63f3cfca20052e4ae7554ebf,6453cc687aed3231a40ac312,2023-05-04_17h17.31.206,ga_syllabified_check,2022.2.5,Win32,59.97001499,,,,,,,,,,,,,,./stim/p08_syllable_1_falufaisto_hit.wav,p08,falufaisto,hit,fa-lu-fais-to,fa-lu-fais-to,fa-lu-fa-is-to, ,-0.37962963,-0.116666667,1,0,0,2.42,text_option_1,,0,100,100,173,1
5eb3e7d2d98e751cd2b2cd08,63f3cfca20052e4ae7554ebf,6453cc687aed3231a40ac312,2023-05-04_17h17.31.206,ga_syllabified_check,2022.2.5,Win32,59.97001499,,,,,,,,,,,,,,./stim/p08_syllable_1_costonhialo_hit.wav,p08,costoñialo,hit,cos-to-nhia-lo,cos-to-ñia-lo,cos-to-ñi-a-lo, ,-0.37962963,-0.116666667,1,0,0,2.9336,text_option_1,,0,101,101,171,1
5eb3e7d2d98e751cd2b2cd08,63f3cfca20052e4ae7554ebf,6453cc687aed3231a40ac312,2023-05-04_17h17.31.206,ga_syllabified_check,2022.2.5,Win32,59.97001499,,,,,,,,,,,,,,./stim/p08_syllable_1_faluduako_hit.wav,p08,faluduako,hit,fa-lu-duai-ko,fa-lu-dua-ko,fa-lu-du-a-ko, ,-0.37962963,-0.116666667,1,0,0,2.5168,text_option_1,,0,102,102,172,1
5eb3e7d2d98e751cd2b2cd08,63f3cfca20052e4ae7554ebf,6453cc687aed3231a40ac312,2023-05-04_17h17.31.206,ga_syllabified_check,2022.2.5,Win32,59.97001499,,,,,,,,,,,,,,./stim/p08_syllable_1_palumaisto_hit.wav,p08,palumaisto,hit,pa-lu-mais-to,pa-lu-mais-to,pa-lu-ma-is-to, ,-0.37962963,-0.116666667,1,0,0,2.2009,text_option_1,,0,103,103,198,1
5eb3e7d2d98e751cd2b2cd08,63f3cfca20052e4ae7554ebf,6453cc687aed3231a40ac312,2023-05-04_17h17.31.206,ga_syllabified_check,2022.2.5,Win32,59.97001499,,,,,,,,,,,,,,./stim/p04_syllable_1_falutraigo_hit.wav,p04,falutraigo,hit,fa-lu-trai-go,fa-lu-trai-go,fa-lu-tra-i-go, ,-0.37962963,-0.116666667,1,0,0,0.9837,text_option_1,,0,104,104,38,1
5eb3e7d2d98e751cd2b2cd08,63f3cfca20052e4ae7554ebf,6453cc687aed3231a40ac312,2023-05-04_17h17.31.206,ga_syllabified_check,2022.2.5,Win32,59.97001499,,,,,,,,,,,,,,./stim/p07_syllable_1_chiaba_hit.wav,p07,chiaba,hit,chia-ba,chia-ba,chi-a-ba, ,-0.37962963,-0.116666667,1,0,0,0.9835,text_option_1,,0,105,105,136,1
5eb3e7d2d98e751cd2b2cd08,63f3cfca20052e4ae7554ebf,6453cc687aed3231a40ac312,2023-05-04_17h17.31.206,ga_syllabified_check,2022.2.5,Win32,59.97001499,,,,,,,,,,,,,,./stim/p05_syllable_1_palutrauco_hit.wav,p05,palutrauco,hit,pa-lu-trai-co,pa-lu-trau-co,pa-lu-tra-u-co, ,-0.37962963,-0.116666667,1,0,0,3.5335,text_option_1,,0,106,106,97,1
5eb3e7d2d98e751cd2b2cd08,63f3cfca20052e4ae7554ebf,6453cc687aed3231a40ac312,2023-05-04_17h17.31.206,ga_syllabified_check,2022.2.5,Win32,59.97001499,,,,,,,,,,,,,,./stim/p06_syllable_1_lakatiaisto_hit.wav,p06,lakatiaisto,hit,la-ka-pia-is-to,la-ka-tiais-to,la-ka-ti-ais-to,la-ka-tia-is-to,0.000925926,-0.107407407,1,0,0,3.2999,text_option_3,,0,107,107,120,1
5eb3e7d2d98e751cd2b2cd08,63f3cfca20052e4ae7554ebf,6453cc687aed3231a40ac312,2023-05-04_17h17.31.206,ga_syllabified_check,2022.2.5,Win32,59.97001499,,,,,,,,,,,,,,./stim/p05_syllable_1_pachialo_hit.wav,p05,pachialo,hit,pan-chia-lo,pa-chia-lo,pa-chi-a-lo, ,0.363888889,-0.112962963,1,0,0,1.9833,text_option_2,,0,108,108,92,1
5eb3e7d2d98e751cd2b2cd08,63f3cfca20052e4ae7554ebf,6453cc687aed3231a40ac312,2023-05-04_17h17.31.206,ga_syllabified_check,2022.2.5,Win32,59.97001499,,,,,,,,,,,,,,./stim/p04_syllable_1_lakatuaisto_hit.wav,p04,lakatuaisto,hit,la-ka-kuais-to,la-ka-tuais-to,la-ka-tu-ais-to,la-ka-tua-is-to,-0.386111111,-0.106481481,1,0,0,1.7003,text_option_1,,0,109,109,53,1
5eb3e7d2d98e751cd2b2cd08,63f3cfca20052e4ae7554ebf,6453cc687aed3231a40ac312,2023-05-04_17h17.31.206,ga_syllabified_check,2022.2.5,Win32,59.97001499,,,,,,,,,,,,,,./stim/p05_syllable_1_lakafiaisto_hit.wav,p05,lakafiaisto,hit,la-ka-fi-ais-to,la-ka-fiais-to,la-ka-fi-ais-to,la-ka-fia-is-to,-0.016666667,-0.302777778,1,0,0,7.3005,text_option_other,la-ka-fi-a-is-to,0,110,110,78,1
5eb3e7d2d98e751cd2b2cd08,63f3cfca20052e4ae7554ebf,6453cc687aed3231a40ac312,2023-05-04_17h17.31.206,ga_syllabified_check,2022.2.5,Win32,59.97001499,,,,,,,,,,,,,,./stim/p05_syllable_1_tuliafo_hit.wav,p05,tuliafo,hit,tu-lai-fo,tu-lia-fo,tu-li-a-fo, ,-0.377777778,-0.1,1,0,0,1.6502,text_option_1,,0,111,111,101,1
5eb3e7d2d98e751cd2b2cd08,63f3cfca20052e4ae7554ebf,6453cc687aed3231a40ac312,2023-05-04_17h17.31.206,ga_syllabified_check,2022.2.5,Win32,59.97001499,,,,,,,,,,,,,,./stim/p06_syllable_1_lakabiaisto_hit.wav,p06,lakabiaisto,hit,la-ka-bia-is-to,la-ka-biais-to,la-ka-bi-ais-to,la-ka-bia-is-to,0.068518519,-0.106481481,1,0,0,3.9171,text_option_3,,0,112,112,108,1
5eb3e7d2d98e751cd2b2cd08,63f3cfca20052e4ae7554ebf,6453cc687aed3231a40ac312,2023-05-04_17h17.31.206,ga_syllabified_check,2022.2.5,Win32,59.97001499,,,,,,,,,,,,,,./stim/p08_syllable_1_ruyiola_hit.wav,p08,ruyiola,hit,ru-yio-la,ru-yio-la,ru-yi-o-la, ,-0.373148148,-0.108333333,1,0,0,3.967,text_option_1,,0,113,113,202,1
5eb3e7d2d98e751cd2b2cd08,63f3cfca20052e4ae7554ebf,6453cc687aed3231a40ac312,2023-05-04_17h17.31.206,ga_syllabified_check,2022.2.5,Win32,59.97001499,,,,,,,,,,,,,,./stim/p08_syllable_1_chiaba_hit.wav,p08,chiaba,hit,chi-a-ba,chia-ba,chi-a-ba, ,0.373148148,-0.113888889,1,0,0,0.7169,text_option_2,,0,114,114,170,1
5eb3e7d2d98e751cd2b2cd08,63f3cfca20052e4ae7554ebf,6453cc687aed3231a40ac312,2023-05-04_17h17.31.206,ga_syllabified_check,2022.2.5,Win32,59.97001499,,,,,,,,,,,,,,./stim/p04_syllable_1_palumaisto_hit.wav,p04,palumaisto,hit,pa-lu-mais-to,pa-lu-mais-to,pa-lu-ma-is-to, ,-0.394444444,-0.097222222,1,0,0,0.75,text_option_1,,0,115,115,62,1
5eb3e7d2d98e751cd2b2cd08,63f3cfca20052e4ae7554ebf,6453cc687aed3231a40ac312,2023-05-04_17h17.31.206,ga_syllabified_check,2022.2.5,Win32,59.97001499,,,,,,,,,,,,,,./stim/p07_syllable_1_pachialo_hit.wav,p07,pachialo,hit,pa-cha-lo,pa-chia-lo,pa-chi-a-lo, ,-0.394444444,-0.097222222,1,0,0,1.367,text_option_1,,0,116,116,160,1
5eb3e7d2d98e751cd2b2cd08,63f3cfca20052e4ae7554ebf,6453cc687aed3231a40ac312,2023-05-04_17h17.31.206,ga_syllabified_check,2022.2.5,Win32,59.97001499,,,,,,,,,,,,,,./stim/p03_syllable_1_palumaisto_hit.wav,p03,palumaisto,hit,pa-lu-mais-to,pa-lu-mais-to,pa-lu-ma-is-to, ,-0.394444444,-0.097222222,1,0,0,1.1834,text_option_1,,0,117,117,28,1
5eb3e7d2d98e751cd2b2cd08,63f3cfca20052e4ae7554ebf,6453cc687aed3231a40ac312,2023-05-04_17h17.31.206,ga_syllabified_check,2022.2.5,Win32,59.97001499,,,,,,,,,,,,,,./stim/p07_syllable_1_lakaduaisto_hit.wav,p07,lakaduaisto,hit,la-ka-duais-to,la-ka-duais-to,la-ka-du-ais-to,la-ka-dua-is-to,-0.394444444,-0.097222222,1,0,0,1.7837,text_option_1,,0,118,118,145,1
5eb3e7d2d98e751cd2b2cd08,63f3cfca20052e4ae7554ebf,6453cc687aed3231a40ac312,2023-05-04_17h17.31.206,ga_syllabified_check,2022.2.5,Win32,59.97001499,,,,,,,,,,,,,,./stim/p08_syllable_1_lakadiaisto_hit.wav,p08,lakadiaisto,hit,la-ka-di-jas-to,la-ka-diais-to,la-ka-di-ais-to,la-ka-dia-is-to,0.455555556,-0.101851852,1,0,0,7.5006,text_option_2,,0,119,119,178,1
5eb3e7d2d98e751cd2b2cd08,63f3cfca20052e4ae7554ebf,6453cc687aed3231a40ac312,2023-05-04_17h17.31.206,ga_syllabified_check,2022.2.5,Win32,59.97001499,,,,,,,,,,,,,,./stim/p04_syllable_1_faluduako_hit.wav,p04,faluduako,hit,fa-lu-dua-ko,fa-lu-dua-ko,fa-lu-du-a-ko, ,-0.425,-0.101851852,1,0,0,2.7169,text_option_1,,0,120,120,36,1
5eb3e7d2d98e751cd2b2cd08,63f3cfca20052e4ae7554ebf,6453cc687aed3231a40ac312,2023-05-04_17h17.31.206,ga_syllabified_check,2022.2.5,Win32,59.97001499,,,,,,,,,,,,,,./stim/p06_syllable_1_lakaduaisto_hit.wav,p06,lakaduaisto,hit,la-ka-du-a-is,la-ka-duais-to,la-ka-du-ais-to,la-ka-dua-is-to,0.042592593,-0.09537037,1,0,0,3.9503,text_option_3,,0,121,121,111,1
5eb3e7d2d98e751cd2b2cd08,63f3cfca20052e4ae7554ebf,6453cc687aed3231a40ac312,2023-05-04_17h17.31.206,ga_syllabified_check,2022.2.5,Win32,59.97001499,,,,,,,,,,,,,,./stim/p05_syllable_1_palufauto_hit.wav,p05,palufauto,hit,pa-lu-fau-to,pa-lu-fau-to,pa-lu-fa-u-to, ,-0.393518519,-0.097222222,1,0,0,5.0671,text_option_1,,0,122,122,94,1
5eb3e7d2d98e751cd2b2cd08,63f3cfca20052e4ae7554ebf,6453cc687aed3231a40ac312,2023-05-04_17h17.31.206,ga_syllabified_check,2022.2.5,Win32,59.97001499,,,,,,,,,,,,,,./stim/p05_syllable_1_flauro_hit.wav,p05,flauro,hit,fa-lu-ro,flau-ro,fla-u-ro, ,0.375,-0.107407407,1,0,0,6.3507,text_option_2,,0,123,123,73,1
5eb3e7d2d98e751cd2b2cd08,63f3cfca20052e4ae7554ebf,6453cc687aed3231a40ac312,2023-05-04_17h17.31.206,ga_syllabified_check,2022.2.5,Win32,59.97001499,,,,,,,,,,,,,,./stim/p07_syllable_1_rausto_hit.wav,p07,rausto,hit,raus-to,raus-to,ra-us-to, ,-0.422222222,-0.105555556,1,0,0,2.1001,text_option_1,,0,124,124,167,1
5eb3e7d2d98e751cd2b2cd08,63f3cfca20052e4ae7554ebf,6453cc687aed3231a40ac312,2023-05-04_17h17.31.206,ga_syllabified_check,2022.2.5,Win32,59.97001499,,,,,,,,,,,,,,./stim/p05_syllable_1_faluduako_hit.wav,p05,faluduako,hit,fa-lu-ba-ko,fa-lu-dua-ko,fa-lu-du-a-ko, ,-0.422222222,-0.105555556,1,0,0,2.367,text_option_1,,0,125,125,70,1
5eb3e7d2d98e751cd2b2cd08,63f3cfca20052e4ae7554ebf,6453cc687aed3231a40ac312,2023-05-04_17h17.31.206,ga_syllabified_check,2022.2.5,Win32,59.97001499,,,,,,,,,,,,,,./stim/p06_syllable_1_lakagiaisto_hit.wav,p06,lakagiaisto,hit,la-ka-gia-is-to,la-ka-giais-to,la-ka-gi-ais-to,la-ka-gia-is-to,0.068518519,-0.113888889,1,0,0,4.0505,text_option_3,,0,126,126,114,1
5eb3e7d2d98e751cd2b2cd08,63f3cfca20052e4ae7554ebf,6453cc687aed3231a40ac312,2023-05-04_17h17.31.206,ga_syllabified_check,2022.2.5,Win32,59.97001499,,,,,,,,,,,,,,./stim/p04_syllable_1_lakabuaisto_hit.wav,p04,lakabuaisto,hit,la-ka-buais-to,la-ka-buais-to,la-ka-bu-ais-to,la-ka-bua-is-to,-0.332407407,-0.113888889,1,0,0,1.267,text_option_1,,0,127,127,41,1
5eb3e7d2d98e751cd2b2cd08,63f3cfca20052e4ae7554ebf,6453cc687aed3231a40ac312,2023-05-04_17h17.31.206,ga_syllabified_check,2022.2.5,Win32,59.97001499,,,,,,,,,,,,,,./stim/p04_syllable_1_falufaisto_hit.wav,p04,falufaisto,hit,fa-lu-fais-to,fa-lu-fais-to,fa-lu-fa-is-to, ,-0.332407407,-0.113888889,1,0,0,1.7337,text_option_1,,0,128,128,37,1
5eb3e7d2d98e751cd2b2cd08,63f3cfca20052e4ae7554ebf,6453cc687aed3231a40ac312,2023-05-04_17h17.31.206,ga_syllabified_check,2022.2.5,Win32,59.97001499,,,,,,,,,,,,,,./stim/p04_syllable_1_lakakiaisto_hit.wav,p04,lakakiaisto,hit,la-ka-kiais-to,la-ka-kiais-to,la-ka-ki-ais-to,la-ka-kia-is-to,-0.331481481,-0.107407407,1,0,0,1.517,text_option_1,,0,129,129,48,1
5eb3e7d2d98e751cd2b2cd08,63f3cfca20052e4ae7554ebf,6453cc687aed3231a40ac312,2023-05-04_17h17.31.206,ga_syllabified_check,2022.2.5,Win32,59.97001499,,,,,,,,,,,,,,./stim/p07_syllable_1_lakakuaisto_hit.wav,p07,lakakuaisto,hit,la-ka-kuais-to,la-ka-kuais-to,la-ka-ku-ais-to,la-ka-kua-is-to,-0.331481481,-0.107407407,1,0,0,2.4503,text_option_1,,0,130,130,151,1
5eb3e7d2d98e751cd2b2cd08,63f3cfca20052e4ae7554ebf,6453cc687aed3231a40ac312,2023-05-04_17h17.31.206,ga_syllabified_check,2022.2.5,Win32,59.97001499,,,,,,,,,,,,,,./stim/p06_syllable_1_lakafuaisto_hit.wav,p06,lakafuaisto,hit,la-ka-fu-a-is,la-ka-fuais-to,la-ka-fu-ais-to,la-ka-fua-is-to,0.019444444,-0.301851852,1,0,0,7.0839,text_option_other,la-ka-fu-a-is-to,0,131,131,113,1
5eb3e7d2d98e751cd2b2cd08,63f3cfca20052e4ae7554ebf,6453cc687aed3231a40ac312,2023-05-04_17h17.31.206,ga_syllabified_check,2022.2.5,Win32,59.97001499,,,,,,,,,,,,,,./stim/p08_syllable_1_falutraigo_hit.wav,p08,falutraigo,hit,fa-lu-trai-go,fa-lu-trai-go,fa-lu-tra-i-go, ,-0.402777778,-0.086111111,1,0,0,1.2835,text_option_1,,0,132,132,174,1
5eb3e7d2d98e751cd2b2cd08,63f3cfca20052e4ae7554ebf,6453cc687aed3231a40ac312,2023-05-04_17h17.31.206,ga_syllabified_check,2022.2.5,Win32,59.97001499,,,,,,,,,,,,,,./stim/p03_syllable_1_mebochiana_hit.wav,p03,mebochiana,hit,me-bo-chia-na,me-bo-chia-na,me-bo-chi-a-na, ,-0.359259259,-0.100925926,1,0,0,1.8331,text_option_1,,0,133,133,22,1
5eb3e7d2d98e751cd2b2cd08,63f3cfca20052e4ae7554ebf,6453cc687aed3231a40ac312,2023-05-04_17h17.31.206,ga_syllabified_check,2022.2.5,Win32,59.97001499,,,,,,,,,,,,,,./stim/p07_syllable_1_tuliafo_hit.wav,p07,tuliafo,hit,tu-lia-fo,tu-lia-fo,tu-li-a-fo, ,-0.359259259,-0.100925926,1,0,0,0.7501,text_option_1,,0,134,134,169,1
5eb3e7d2d98e751cd2b2cd08,63f3cfca20052e4ae7554ebf,6453cc687aed3231a40ac312,2023-05-04_17h17.31.206,ga_syllabified_check,2022.2.5,Win32,59.97001499,,,,,,,,,,,,,,./stim/p03_syllable_1_lakabuaisto_hit.wav,p03,lakabuaisto,hit,la-ka-buais-to,la-ka-buais-to,la-ka-bu-ais-to,la-ka-bua-is-to,-0.359259259,-0.100925926,1,0,0,4.6338,text_option_1,,0,135,135,7,1
5eb3e7d2d98e751cd2b2cd08,63f3cfca20052e4ae7554ebf,6453cc687aed3231a40ac312,2023-05-04_17h17.31.206,ga_syllabified_check,2022.2.5,Win32,59.97001499,,,,,,,,,,,,,,./stim/p06_syllable_1_lakakuaisto_hit.wav,p06,lakakuaisto,hit,la-ka-ku-a-is,la-ka-kuais-to,la-ka-ku-ais-to,la-ka-kua-is-to,0.026851852,-0.29537037,1,0,0,5.9671,text_option_other,la-ka-ku-a-is-to,0,136,136,117,1
5eb3e7d2d98e751cd2b2cd08,63f3cfca20052e4ae7554ebf,6453cc687aed3231a40ac312,2023-05-04_17h17.31.206,ga_syllabified_check,2022.2.5,Win32,59.97001499,,,,,,,,,,,,,,./stim/p03_syllable_1_lakakuaisto_hit.wav,p03,lakakuaisto,hit,la-ka-kuais-to,la-ka-kuais-to,la-ka-ku-ais-to,la-ka-kua-is-to,-0.406481481,-0.096296296,1,0,0,3.4002,text_option_1,,0,137,137,15,1
5eb3e7d2d98e751cd2b2cd08,63f3cfca20052e4ae7554ebf,6453cc687aed3231a40ac312,2023-05-04_17h17.31.206,ga_syllabified_check,2022.2.5,Win32,59.97001499,,,,,,,,,,,,,,./stim/p06_syllable_1_mebochiana_hit.wav,p06,mebochiana,hit,me-bo-shi-a-na,me-bo-chia-na,me-bo-chi-a-na, ,0.443518519,-0.108333333,1,0,0,2.9339,text_option_2,,0,138,138,124,1
5eb3e7d2d98e751cd2b2cd08,63f3cfca20052e4ae7554ebf,6453cc687aed3231a40ac312,2023-05-04_17h17.31.206,ga_syllabified_check,2022.2.5,Win32,59.97001499,,,,,,,,,,,,,,./stim/p06_syllable_1_lakapuaisto_hit.wav,p06,lakapuaisto,hit,la-ka-pu-a-is,la-ka-puais-to,la-ka-pu-ais-to,la-ka-pua-is-to,-0.058333333,-0.298148148,1,0,0,6.9176,text_option_other,la-ka-pu-a-is-to,0,139,139,119,1
5eb3e7d2d98e751cd2b2cd08,63f3cfca20052e4ae7554ebf,6453cc687aed3231a40ac312,2023-05-04_17h17.31.206,ga_syllabified_check,2022.2.5,Win32,59.97001499,,,,,,,,,,,,,,./stim/p03_syllable_1_paluguato_hit.wav,p03,paluguato,hit,pa-lu-gua,pa-lu-gua-to,pa-lu-gu-a-to, ,-0.37037037,-0.103703704,1,0,0,1.2501,text_option_1,,0,140,140,27,1
5eb3e7d2d98e751cd2b2cd08,63f3cfca20052e4ae7554ebf,6453cc687aed3231a40ac312,2023-05-04_17h17.31.206,ga_syllabified_check,2022.2.5,Win32,59.97001499,,,,,,,,,,,,,,./stim/p05_syllable_1_mebochiana_hit.wav,p05,mebochiana,hit,me-cho-chai-na,me-bo-chia-na,me-bo-chi-a-na, ,-0.37037037,-0.103703704,1,0,0,2.3336,text_option_1,,0,141,141,90,1
5eb3e7d2d98e751cd2b2cd08,63f3cfca20052e4ae7554ebf,6453cc687aed3231a40ac312,2023-05-04_17h17.31.206,ga_syllabified_check,2022.2.5,Win32,59.97001499,,,,,,,,,,,,,,./stim/p08_syllable_1_manhiala_hit.wav,p08,mañiala,hit,ma-nhia-la,ma-ñia-la,ma-ñi-a-la, ,-0.37037037,-0.103703704,1,0,0,1.3502,text_option_1,,0,142,142,191,1
5eb3e7d2d98e751cd2b2cd08,63f3cfca20052e4ae7554ebf,6453cc687aed3231a40ac312,2023-05-04_17h17.31.206,ga_syllabified_check,2022.2.5,Win32,59.97001499,,,,,,,,,,,,,,./stim/p07_syllable_1_flauro_hit.wav,p07,flauro,hit,flau-ro,flau-ro,fla-u-ro, ,-0.37037037,-0.103703704,1,0,0,0.9333,text_option_1,,0,143,143,141,1
5eb3e7d2d98e751cd2b2cd08,63f3cfca20052e4ae7554ebf,6453cc687aed3231a40ac312,2023-05-04_17h17.31.206,ga_syllabified_check,2022.2.5,Win32,59.97001499,,,,,,,,,,,,,,./stim/p04_syllable_1_ruyiola_hit.wav,p04,ruyiola,hit,ru-yio-la,ru-yio-la,ru-yi-o-la, ,-0.37037037,-0.103703704,1,0,0,0.5667,text_option_1,,0,144,144,66,1
5eb3e7d2d98e751cd2b2cd08,63f3cfca20052e4ae7554ebf,6453cc687aed3231a40ac312,2023-05-04_17h17.31.206,ga_syllabified_check,2022.2.5,Win32,59.97001499,,,,,,,,,,,,,,./stim/p06_syllable_1_palufauro_hit.wav,p06,palufauro,hit,pa-lu-fau-ro,pa-lu-fau-ro,pa-lu-fa-u-ro, ,0.388888889,-0.112037037,1,0,0,6.7339,text_option_2,,0,145,145,127,1
5eb3e7d2d98e751cd2b2cd08,63f3cfca20052e4ae7554ebf,6453cc687aed3231a40ac312,2023-05-04_17h17.31.206,ga_syllabified_check,2022.2.5,Win32,59.97001499,,,,,,,,,,,,,,./stim/p06_syllable_1_palufauto_hit.wav,p06,palufauto,hit,pa-lu-fau-to,pa-lu-fau-to,pa-lu-fa-u-to, ,-0.392592593,-0.112962963,1,0,0,5.1837,text_option_1,,0,146,146,128,1
5eb3e7d2d98e751cd2b2cd08,63f3cfca20052e4ae7554ebf,6453cc687aed3231a40ac312,2023-05-04_17h17.31.206,ga_syllabified_check,2022.2.5,Win32,59.97001499,,,,,,,,,,,,,,./stim/p07_syllable_1_falufaisto_hit.wav,p07,falufaisto,hit,fa-lu-fais-to,fa-lu-fais-to,fa-lu-fa-is-to, ,-0.392592593,-0.112962963,1,0,0,3.681,text_option_1,,0,147,147,139,1
5eb3e7d2d98e751cd2b2cd08,63f3cfca20052e4ae7554ebf,6453cc687aed3231a40ac312,2023-05-04_17h17.31.206,ga_syllabified_check,2022.2.5,Win32,59.97001499,,,,,,,,,,,,,,./stim/p06_syllable_1_flauro_hit.wav,p06,flauro,hit,fla-u-ro,flau-ro,fla-u-ro, ,0.408333333,-0.107407407,1,0,0,1.7003,text_option_2,,0,148,148,107,1
5eb3e7d2d98e751cd2b2cd08,63f3cfca20052e4ae7554ebf,6453cc687aed3231a40ac312,2023-05-04_17h17.31.206,ga_syllabified_check,2022.2.5,Win32,59.97001499,,,,,,,,,,,,,,./stim/p03_syllable_1_falufaisto_hit.wav,p03,falufaisto,hit,fa-lu-fais-to,fa-lu-fais-to,fa-lu-fa-is-to, ,-0.348148148,-0.1,1,0,0,1.8002,text_option_1,,0,149,149,3,1
5eb3e7d2d98e751cd2b2cd08,63f3cfca20052e4ae7554ebf,6453cc687aed3231a40ac312,2023-05-04_17h17.31.206,ga_syllabified_check,2022.2.5,Win32,59.97001499,,,,,,,,,,,,,,./stim/p07_syllable_1_lliape_hit.wav,p07,lliape,hit,lliai-pe,llia-pe,lli-a-pe, ,-0.416666667,-0.105555556,1,0,0,1.6834,text_option_1,,0,150,150,156,1
5eb3e7d2d98e751cd2b2cd08,63f3cfca20052e4ae7554ebf,6453cc687aed3231a40ac312,2023-05-04_17h17.31.206,ga_syllabified_check,2022.2.5,Win32,59.97001499,,,,,,,,,,,,,,./stim/p04_syllable_1_palufauro_hit.wav,p04,palufauro,hit,pa-lu-fau-ro,pa-lu-fau-ro,pa-lu-fa-u-ro, ,-0.413888889,-0.1,1,0,0,4.2502,text_option_1,,0,151,151,59,1
5eb3e7d2d98e751cd2b2cd08,63f3cfca20052e4ae7554ebf,6453cc687aed3231a40ac312,2023-05-04_17h17.31.206,ga_syllabified_check,2022.2.5,Win32,59.97001499,,,,,,,,,,,,,,./stim/p05_syllable_1_falufaisto_hit.wav,p05,falufaisto,hit,fa-lu-fais-to,fa-lu-fais-to,fa-lu-fa-is-to, ,-0.413888889,-0.1,1,0,0,1.9963,text_option_1,,0,152,152,71,1
5eb3e7d2d98e751cd2b2cd08,63f3cfca20052e4ae7554ebf,6453cc687aed3231a40ac312,2023-05-04_17h17.31.206,ga_syllabified_check,2022.2.5,Win32,59.97001499,,,,,,,,,,,,,,./stim/p04_syllable_1_chiaba_hit.wav,p04,chiaba,hit,chia-ba,chia-ba,chi-a-ba, ,-0.413888889,-0.1,1,0,0,0.1973,text_option_1,,0,153,153,34,1
5eb3e7d2d98e751cd2b2cd08,63f3cfca20052e4ae7554ebf,6453cc687aed3231a40ac312,2023-05-04_17h17.31.206,ga_syllabified_check,2022.2.5,Win32,59.97001499,,,,,,,,,,,,,,./stim/p06_syllable_1_lakabuaisto_hit.wav,p06,lakabuaisto,hit,la-ka-bu-a-is,la-ka-buais-to,la-ka-bu-ais-to,la-ka-bua-is-to,-0.034259259,-0.303703704,1,0,0,5.4839,text_option_other,la-ka-bu-a-is-to,0,154,154,109,1
5eb3e7d2d98e751cd2b2cd08,63f3cfca20052e4ae7554ebf,6453cc687aed3231a40ac312,2023-05-04_17h17.31.206,ga_syllabified_check,2022.2.5,Win32,59.97001499,,,,,,,,,,,,,,./stim/p06_syllable_1_ruyiola_hit.wav,p06,ruyiola,hit,ru-yi-o-la,ru-yio-la,ru-yi-o-la, ,0.405555556,-0.114814815,1,0,0,1.5701,text_option_2,,0,155,155,134,1
5eb3e7d2d98e751cd2b2cd08,63f3cfca20052e4ae7554ebf,6453cc687aed3231a40ac312,2023-05-04_17h17.31.206,ga_syllabified_check,2022.2.5,Win32,59.97001499,,,,,,,,,,,,,,./stim/p05_syllable_1_lakaduaisto_hit.wav,p05,lakaduaisto,hit,la-ka-dais-to,la-ka-duais-to,la-ka-du-ais-to,la-ka-dua-is-to,-0.39537037,-0.116666667,1,0,0,2.2005,text_option_1,,0,156,156,77,1
5eb3e7d2d98e751cd2b2cd08,63f3cfca20052e4ae7554ebf,6453cc687aed3231a40ac312,2023-05-04_17h17.31.206,ga_syllabified_check,2022.2.5,Win32,59.97001499,,,,,,,,,,,,,,./stim/p06_syllable_1_lakapiaisto_hit.wav,p06,lakapiaisto,hit,la-ka-pia-is-to,la-ka-piais-to,la-ka-pi-ais-to,la-ka-pia-is-to,0.061111111,-0.100925926,1,0,0,4.984,text_option_3,,0,157,157,118,1
5eb3e7d2d98e751cd2b2cd08,63f3cfca20052e4ae7554ebf,6453cc687aed3231a40ac312,2023-05-04_17h17.31.206,ga_syllabified_check,2022.2.5,Win32,59.97001499,,,,,,,,,,,,,,./stim/p06_syllable_1_rausto_hit.wav,p06,rausto,hit,ra-us-to,raus-to,ra-us-to, ,0.387962963,-0.100925926,1,0,0,1.8035,text_option_2,,0,158,158,133,1
5eb3e7d2d98e751cd2b2cd08,63f3cfca20052e4ae7554ebf,6453cc687aed3231a40ac312,2023-05-04_17h17.31.206,ga_syllabified_check,2022.2.5,Win32,59.97001499,,,,,,,,,,,,,,./stim/p05_syllable_1_lakabiaisto_hit.wav,p05,lakabiaisto,hit,la-ka-bi-ais-to,la-ka-biais-to,la-ka-bi-ais-to,la-ka-bia-is-to,0.427777778,-0.109259259,1,0,0,4.467,text_option_2,,0,159,159,74,1
5eb3e7d2d98e751cd2b2cd08,63f3cfca20052e4ae7554ebf,6453cc687aed3231a40ac312,2023-05-04_17h17.31.206,ga_syllabified_check,2022.2.5,Win32,59.97001499,,,,,,,,,,,,,,./stim/p04_syllable_1_lakakuaisto_hit.wav,p04,lakakuaisto,hit,la-ka-kuais-to,la-ka-kuais-to,la-ka-ku-ais-to,la-ka-kua-is-to,-0.39537037,-0.115740741,1,0,0,1.4834,text_option_1,,0,160,160,49,1
5eb3e7d2d98e751cd2b2cd08,63f3cfca20052e4ae7554ebf,6453cc687aed3231a40ac312,2023-05-04_17h17.31.206,ga_syllabified_check,2022.2.5,Win32,59.97001499,,,,,,,,,,,,,,./stim/p05_syllable_1_palufauro_hit.wav,p05,palufauro,hit,pa-lu-fau-ro,pa-lu-fau-ro,pa-lu-fa-u-ro, ,-0.396296296,-0.115740741,1,0,0,1.2867,text_option_1,,0,161,161,93,1
5eb3e7d2d98e751cd2b2cd08,63f3cfca20052e4ae7554ebf,6453cc687aed3231a40ac312,2023-05-04_17h17.31.206,ga_syllabified_check,2022.2.5,Win32,59.97001499,,,,,,,,,,,,,,./stim/p03_syllable_1_rausto_hit.wav,p03,rausto,hit,raus-to,raus-to,ra-us-to, ,-0.396296296,-0.115740741,1,0,0,0.6539,text_option_1,,0,162,162,31,1
5eb3e7d2d98e751cd2b2cd08,63f3cfca20052e4ae7554ebf,6453cc687aed3231a40ac312,2023-05-04_17h17.31.206,ga_syllabified_check,2022.2.5,Win32,59.97001499,,,,,,,,,,,,,,./stim/p07_syllable_1_lakafiaisto_hit.wav,p07,lakafiaisto,hit,la-ka-fiais-to,la-ka-fiais-to,la-ka-fi-ais-to,la-ka-fia-is-to,-0.396296296,-0.115740741,1,0,0,2.237,text_option_1,,0,163,163,146,1
5eb3e7d2d98e751cd2b2cd08,63f3cfca20052e4ae7554ebf,6453cc687aed3231a40ac312,2023-05-04_17h17.31.206,ga_syllabified_check,2022.2.5,Win32,59.97001499,,,,,,,,,,,,,,./stim/p03_syllable_1_ruyiola_hit.wav,p03,ruyiola,hit,ru-yio-la,ru-yio-la,ru-yi-o-la, ,-0.448148148,-0.112037037,1,0,0,1.8835,text_option_1,,0,164,164,32,1
5eb3e7d2d98e751cd2b2cd08,63f3cfca20052e4ae7554ebf,6453cc687aed3231a40ac312,2023-05-04_17h17.31.206,ga_syllabified_check,2022.2.5,Win32,59.97001499,,,,,,,,,,,,,,./stim/p04_syllable_1_flauro_hit.wav,p04,flauro,hit,flau-ro,flau-ro,fla-u-ro, ,-0.425925926,-0.116666667,1,0,0,0.4003,text_option_1,,0,165,165,39,1
5eb3e7d2d98e751cd2b2cd08,63f3cfca20052e4ae7554ebf,6453cc687aed3231a40ac312,2023-05-04_17h17.31.206,ga_syllabified_check,2022.2.5,Win32,59.97001499,,,,,,,,,,,,,,./stim/p03_syllable_1_falutraigo_hit.wav,p03,falutraigo,hit,fa-lu-trai-go,fa-lu-trai-go,fa-lu-tra-i-go, ,-0.365740741,-0.108333333,1,0,0,2.1528,text_option_1,,0,166,166,4,1
5eb3e7d2d98e751cd2b2cd08,63f3cfca20052e4ae7554ebf,6453cc687aed3231a40ac312,2023-05-04_17h17.31.206,ga_syllabified_check,2022.2.5,Win32,59.97001499,,,,,,,,,,,,,,./stim/p07_syllable_1_lakadiaisto_hit.wav,p07,lakadiaisto,hit,la-ka-dia-is-to,la-ka-diais-to,la-ka-di-ais-to,la-ka-dia-is-to,-0.034259259,-0.10462963,1,0,0,2.8171,text_option_3,,0,167,167,144,1
5eb3e7d2d98e751cd2b2cd08,63f3cfca20052e4ae7554ebf,6453cc687aed3231a40ac312,2023-05-04_17h17.31.206,ga_syllabified_check,2022.2.5,Win32,59.97001499,,,,,,,,,,,,,,./stim/p05_syllable_1_lakatiaisto_hit.wav,p05,lakatiaisto,hit,la-ka-ti-ais-to,la-ka-tiais-to,la-ka-ti-ais-to,la-ka-tia-is-to,0.035185185,-0.093518519,1,0,0,6.1535,text_option_3,,0,168,168,86,1
5eb3e7d2d98e751cd2b2cd08,63f3cfca20052e4ae7554ebf,6453cc687aed3231a40ac312,2023-05-04_17h17.31.206,ga_syllabified_check,2022.2.5,Win32,59.97001499,,,,,,,,,,,,,,./stim/p08_syllable_1_lakapuaisto_hit.wav,p08,lakapuaisto,hit,la-ka-pu-as-to,la-ka-puais-to,la-ka-pu-ais-to,la-ka-pua-is-to,0.364814815,-0.109259259,1,0,0,5.0672,text_option_2,,0,169,169,187,1
5eb3e7d2d98e751cd2b2cd08,63f3cfca20052e4ae7554ebf,6453cc687aed3231a40ac312,2023-05-04_17h17.31.206,ga_syllabified_check,2022.2.5,Win32,59.97001499,,,,,,,,,,,,,,./stim/p03_syllable_1_lakatiaisto_hit.wav,p03,lakatiaisto,hit,la-ka-tiais-to,la-ka-tiais-to,la-ka-ti-ais-to,la-ka-tia-is-to,-0.396296296,-0.088888889,1,0,0,2.1501,text_option_1,,0,170,170,18,1
5eb3e7d2d98e751cd2b2cd08,63f3cfca20052e4ae7554ebf,6453cc687aed3231a40ac312,2023-05-04_17h17.31.206,ga_syllabified_check,2022.2.5,Win32,59.97001499,,,,,,,,,,,,,,./stim/p08_syllable_1_flauro_hit.wav,p08,flauro,hit,flau-ro,flau-ro,fla-u-ro, ,-0.388888889,-0.09537037,1,0,0,3.7146,text_option_1,,0,171,171,175,1
5eb3e7d2d98e751cd2b2cd08,63f3cfca20052e4ae7554ebf,6453cc687aed3231a40ac312,2023-05-04_17h17.31.206,ga_syllabified_check,2022.2.5,Win32,59.97001499,,,,,,,,,,,,,,./stim/p08_syllable_1_paluguato_hit.wav,p08,paluguato,hit,pa-lu-gua-to,pa-lu-gua-to,pa-lu-gu-a-to, ,-0.337037037,-0.101851852,1,0,0,2.4506,text_option_1,,0,172,172,197,1
5eb3e7d2d98e751cd2b2cd08,63f3cfca20052e4ae7554ebf,6453cc687aed3231a40ac312,2023-05-04_17h17.31.206,ga_syllabified_check,2022.2.5,Win32,59.97001499,,,,,,,,,,,,,,./stim/p06_syllable_1_pachialo_hit.wav,p06,pachialo,hit,pa-shi-a-lo,pa-chia-lo,pa-chi-a-lo, ,0.372222222,-0.091666667,1,0,0,1.302,text_option_2,,0,173,173,126,1
5eb3e7d2d98e751cd2b2cd08,63f3cfca20052e4ae7554ebf,6453cc687aed3231a40ac312,2023-05-04_17h17.31.206,ga_syllabified_check,2022.2.5,Win32,59.97001499,,,,,,,,,,,,,,./stim/p04_syllable_1_nhiape_hit.wav,p04,ñiape,hit,nhia-pe,ñia-pe,ñi-a-pe, ,-0.384259259,-0.109259259,1,0,0,0.7833,text_option_1,,0,174,174,57,1
5eb3e7d2d98e751cd2b2cd08,63f3cfca20052e4ae7554ebf,6453cc687aed3231a40ac312,2023-05-04_17h17.31.206,ga_syllabified_check,2022.2.5,Win32,59.97001499,,,,,,,,,,,,,,./stim/p03_syllable_1_flauro_hit.wav,p03,flauro,hit,flau-ro,flau-ro,fla-u-ro, ,-0.387962963,-0.106481481,1,0,0,0.3504,text_option_1,,0,175,175,5,1
5eb3e7d2d98e751cd2b2cd08,63f3cfca20052e4ae7554ebf,6453cc687aed3231a40ac312,2023-05-04_17h17.31.206,ga_syllabified_check,2022.2.5,Win32,59.97001499,,,,,,,,,,,,,,./stim/p08_syllable_1_lakakuaisto_hit.wav,p08,lakakuaisto,hit,la-ka-ku-ais-to,la-ka-kuais-to,la-ka-ku-ais-to,la-ka-kua-is-to,0.427777778,-0.107407407,1,0,0,3.9834,text_option_2,,0,176,176,185,1
5eb3e7d2d98e751cd2b2cd08,63f3cfca20052e4ae7554ebf,6453cc687aed3231a40ac312,2023-05-04_17h17.31.206,ga_syllabified_check,2022.2.5,Win32,59.97001499,,,,,,,,,,,,,,./stim/p04_syllable_1_lakafiaisto_hit.wav,p04,lakafiaisto,hit,la-ka-fiais-to,la-ka-fiais-to,la-ka-fi-ais-to,la-ka-fia-is-to,-0.380555556,-0.084259259,1,0,0,1.5499,text_option_1,,0,177,177,44,1
5eb3e7d2d98e751cd2b2cd08,63f3cfca20052e4ae7554ebf,6453cc687aed3231a40ac312,2023-05-04_17h17.31.206,ga_syllabified_check,2022.2.5,Win32,59.97001499,,,,,,,,,,,,,,./stim/p08_syllable_1_lakabiaisto_hit.wav,p08,lakabiaisto,hit,la-ka-bi-as-to,la-ka-biais-to,la-ka-bi-ais-to,la-ka-bia-is-to,0.466666667,-0.115740741,1,0,0,4.1172,text_option_2,,0,178,178,176,1
5eb3e7d2d98e751cd2b2cd08,63f3cfca20052e4ae7554ebf,6453cc687aed3231a40ac312,2023-05-04_17h17.31.206,ga_syllabified_check,2022.2.5,Win32,59.97001499,,,,,,,,,,,,,,./stim/p05_syllable_1_falutraigo_hit.wav,p05,falutraigo,hit,fa-lu-trai-go,fa-lu-trai-go,fa-lu-tra-i-go, ,-0.385185185,-0.085185185,1,0,0,1.5001,text_option_1,,0,179,179,72,1
5eb3e7d2d98e751cd2b2cd08,63f3cfca20052e4ae7554ebf,6453cc687aed3231a40ac312,2023-05-04_17h17.31.206,ga_syllabified_check,2022.2.5,Win32,59.97001499,,,,,,,,,,,,,,./stim/p05_syllable_1_paluguato_hit.wav,p05,paluguato,hit,pa-lu-gau-to,pa-lu-gua-to,pa-lu-gu-a-to, ,-0.389814815,-0.115740741,1,0,0,6.0974,text_option_1,,0,180,180,95,1
5eb3e7d2d98e751cd2b2cd08,63f3cfca20052e4ae7554ebf,6453cc687aed3231a40ac312,2023-05-04_17h17.31.206,ga_syllabified_check,2022.2.5,Win32,59.97001499,,,,,,,,,,,,,,./stim/p06_syllable_1_palumaisto_hit.wav,p06,palumaisto,hit,pa-lu-ma-is-to,pa-lu-mais-to,pa-lu-ma-is-to, ,0.446296296,-0.115740741,1,0,0,2.7202,text_option_2,,0,181,181,130,1
5eb3e7d2d98e751cd2b2cd08,63f3cfca20052e4ae7554ebf,6453cc687aed3231a40ac312,2023-05-04_17h17.31.206,ga_syllabified_check,2022.2.5,Win32,59.97001499,,,,,,,,,,,,,,./stim/p06_syllable_1_lakatuaisto_hit.wav,p06,lakatuaisto,hit,la-ka-tu-a-is,la-ka-tuais-to,la-ka-tu-ais-to,la-ka-tua-is-to,0.011111111,-0.3,1,0,0,4.4848,text_option_other,la-ka-tu-a-is-to,0,182,182,121,1
5eb3e7d2d98e751cd2b2cd08,63f3cfca20052e4ae7554ebf,6453cc687aed3231a40ac312,2023-05-04_17h17.31.206,ga_syllabified_check,2022.2.5,Win32,59.97001499,,,,,,,,,,,,,,./stim/p04_syllable_1_lliape_hit.wav,p04,lliape,hit,lia-pe,llia-pe,lli-a-pe, ,-0.399074074,-0.106481481,1,0,0,0.6,text_option_1,,0,183,183,54,1
5eb3e7d2d98e751cd2b2cd08,63f3cfca20052e4ae7554ebf,6453cc687aed3231a40ac312,2023-05-04_17h17.31.206,ga_syllabified_check,2022.2.5,Win32,59.97001499,,,,,,,,,,,,,,./stim/p04_syllable_1_pachialo_hit.wav,p04,pachialo,hit,pa-chia-lo,pa-chia-lo,pa-chi-a-lo, ,-0.399074074,-0.106481481,1,0,0,0.9709,text_option_1,,0,184,184,58,1
5eb3e7d2d98e751cd2b2cd08,63f3cfca20052e4ae7554ebf,6453cc687aed3231a40ac312,2023-05-04_17h17.31.206,ga_syllabified_check,2022.2.5,Win32,59.97001499,,,,,,,,,,,,,,./stim/p05_syllable_1_nhiape_hit.wav,p05,ñiape,hit,nhia-pe,ñia-pe,ñi-a-pe, ,-0.399074074,-0.106481481,1,0,0,0.9662,text_option_1,,0,185,185,91,1
5eb3e7d2d98e751cd2b2cd08,63f3cfca20052e4ae7554ebf,6453cc687aed3231a40ac312,2023-05-04_17h17.31.206,ga_syllabified_check,2022.2.5,Win32,59.97001499,,,,,,,,,,,,,,./stim/p07_syllable_1_manhiala_hit.wav,p07,mañiala,hit,ma-nhia-la,ma-ñia-la,ma-ñi-a-la, ,-0.399074074,-0.106481481,1,0,0,1.4869,text_option_1,,0,186,186,157,1
5eb3e7d2d98e751cd2b2cd08,63f3cfca20052e4ae7554ebf,6453cc687aed3231a40ac312,2023-05-04_17h17.31.206,ga_syllabified_check,2022.2.5,Win32,59.97001499,,,,,,,,,,,,,,./stim/p04_syllable_1_lakapuaisto_hit.wav,p04,lakapuaisto,hit,la-ka-puais-to,la-ka-puais-to,la-ka-pu-ais-to,la-ka-pua-is-to,-0.399074074,-0.106481481,1,0,0,0.917,text_option_1,,0,187,187,51,1
5eb3e7d2d98e751cd2b2cd08,63f3cfca20052e4ae7554ebf,6453cc687aed3231a40ac312,2023-05-04_17h17.31.206,ga_syllabified_check,2022.2.5,Win32,59.97001499,,,,,,,,,,,,,,./stim/p03_syllable_1_chiaba_hit.wav,p03,chiaba,hit,chia-ba,chia-ba,chi-a-ba, ,-0.399074074,-0.106481481,1,0,0,0.3835,text_option_1,,0,188,188,0,1
5eb3e7d2d98e751cd2b2cd08,63f3cfca20052e4ae7554ebf,6453cc687aed3231a40ac312,2023-05-04_17h17.31.206,ga_syllabified_check,2022.2.5,Win32,59.97001499,,,,,,,,,,,,,,./stim/p05_syllable_1_lliape_hit.wav,p05,lliape,hit,liai-pe,llia-pe,lli-a-pe, ,-0.399074074,-0.106481481,1,0,0,0.4634,text_option_1,,0,189,189,88,1
5eb3e7d2d98e751cd2b2cd08,63f3cfca20052e4ae7554ebf,6453cc687aed3231a40ac312,2023-05-04_17h17.31.206,ga_syllabified_check,2022.2.5,Win32,59.97001499,,,,,,,,,,,,,,./stim/p08_syllable_1_lakatiaisto_hit.wav,p08,lakatiaisto,hit,la-ka-ti-as-to,la-ka-tiais-to,la-ka-ti-ais-to,la-ka-tia-is-to,0.44537037,-0.107407407,1,0,0,4.3503,text_option_2,,0,190,190,188,1
5eb3e7d2d98e751cd2b2cd08,63f3cfca20052e4ae7554ebf,6453cc687aed3231a40ac312,2023-05-04_17h17.31.206,ga_syllabified_check,2022.2.5,Win32,59.97001499,,,,,,,,,,,,,,./stim/p04_syllable_1_lakapiaisto_hit.wav,p04,lakapiaisto,hit,la-ka-piais-to,la-ka-piais-to,la-ka-pi-ais-to,la-ka-pia-is-to,-0.382407407,-0.092592593,1,0,0,1.2839,text_option_1,,0,191,191,50,1
5eb3e7d2d98e751cd2b2cd08,63f3cfca20052e4ae7554ebf,6453cc687aed3231a40ac312,2023-05-04_17h17.31.206,ga_syllabified_check,2022.2.5,Win32,59.97001499,,,,,,,,,,,,,,./stim/p03_syllable_1_lakapiaisto_hit.wav,p03,lakapiaisto,hit,la-ka-piais-to,la-ka-piais-to,la-ka-pi-ais-to,la-ka-pia-is-to,-0.382407407,-0.092592593,1,0,0,1.2501,text_option_1,,0,192,192,16,1
5eb3e7d2d98e751cd2b2cd08,63f3cfca20052e4ae7554ebf,6453cc687aed3231a40ac312,2023-05-04_17h17.31.206,ga_syllabified_check,2022.2.5,Win32,59.97001499,,,,,,,,,,,,,,./stim/p08_syllable_1_rausto_hit.wav,p08,rausto,hit,raus-to,raus-to,ra-us-to, ,-0.387037037,-0.093518519,1,0,0,0.5464,text_option_1,,0,193,193,201,1
5eb3e7d2d98e751cd2b2cd08,63f3cfca20052e4ae7554ebf,6453cc687aed3231a40ac312,2023-05-04_17h17.31.206,ga_syllabified_check,2022.2.5,Win32,59.97001499,,,,,,,,,,,,,,./stim/p08_syllable_1_lakapiaisto_hit.wav,p08,lakapiaisto,hit,la-ka-pi-as-to,la-ka-piais-to,la-ka-pi-ais-to,la-ka-pia-is-to,0.456481481,-0.094444444,1,0,0,3.1703,text_option_2,,0,194,194,186,1
5eb3e7d2d98e751cd2b2cd08,63f3cfca20052e4ae7554ebf,6453cc687aed3231a40ac312,2023-05-04_17h17.31.206,ga_syllabified_check,2022.2.5,Win32,59.97001499,,,,,,,,,,,,,,./stim/p07_syllable_1_falutraigo_hit.wav,p07,falutraigo,hit,fa-lu-trai-go,fa-lu-trai-go,fa-lu-tra-i-go, ,-0.415740741,-0.102777778,1,0,0,2.9125,text_option_1,,0,195,195,140,1
5eb3e7d2d98e751cd2b2cd08,63f3cfca20052e4ae7554ebf,6453cc687aed3231a40ac312,2023-05-04_17h17.31.206,ga_syllabified_check,2022.2.5,Win32,59.97001499,,,,,,,,,,,,,,./stim/p08_syllable_1_mebochiana_hit.wav,p08,mebochiana,hit,me-bo-chi-a-na,me-bo-chia-na,me-bo-chi-a-na, ,0.484259259,-0.100925926,1,0,0,2.2837,text_option_2,,0,196,196,192,1
5eb3e7d2d98e751cd2b2cd08,63f3cfca20052e4ae7554ebf,6453cc687aed3231a40ac312,2023-05-04_17h17.31.206,ga_syllabified_check,2022.2.5,Win32,59.97001499,,,,,,,,,,,,,,./stim/p04_syllable_1_palufauto_hit.wav,p04,palufauto,hit,pa-lu-fau-to,pa-lu-fau-to,pa-lu-fa-u-to, ,-0.424074074,-0.100925926,1,0,0,1.213,text_option_1,,0,197,197,60,1
5eb3e7d2d98e751cd2b2cd08,63f3cfca20052e4ae7554ebf,6453cc687aed3231a40ac312,2023-05-04_17h17.31.206,ga_syllabified_check,2022.2.5,Win32,59.97001499,,,,,,,,,,,,,,./stim/p08_syllable_1_lakakiaisto_hit.wav,p08,lakakiaisto,hit,la-ka-ki-jas-to,la-ka-kiais-to,la-ka-ki-ais-to,la-ka-kia-is-to,0.332407407,-0.102777778,1,0,0,5.5335,text_option_2,,0,198,198,184,1
5eb3e7d2d98e751cd2b2cd08,63f3cfca20052e4ae7554ebf,6453cc687aed3231a40ac312,2023-05-04_17h17.31.206,ga_syllabified_check,2022.2.5,Win32,59.97001499,,,,,,,,,,,,,,./stim/p07_syllable_1_costonhialo_hit.wav,p07,costoñialo,hit,cos-to-nhia-lo,cos-to-ñia-lo,cos-to-ñi-a-lo, ,-0.334259259,-0.091666667,1,0,0,2.1834,text_option_1,,0,199,199,137,1
5eb3e7d2d98e751cd2b2cd08,63f3cfca20052e4ae7554ebf,6453cc687aed3231a40ac312,2023-05-04_17h17.31.206,ga_syllabified_check,2022.2.5,Win32,59.97001499,,,,,,,,,,,,,,./stim/p08_syllable_1_tuliafo_hit.wav,p08,tuliafo,hit,tu-li-a-fo,tu-lia-fo,tu-li-a-fo, ,0.412962963,-0.099074074,1,0,0,1.7344,text_option_2,,0,200,200,203,1
5eb3e7d2d98e751cd2b2cd08,63f3cfca20052e4ae7554ebf,6453cc687aed3231a40ac312,2023-05-04_17h17.31.206,ga_syllabified_check,2022.2.5,Win32,59.97001499,,,,,,,,,,,,,,./stim/p08_syllable_1_nhiape_hit.wav,p08,ñiape,hit,ni-a-pe,ñia-pe,ñi-a-pe, ,-0.399074074,-0.094444444,1,0,0,2.6335,text_option_1,,0,201,201,193,1
5eb3e7d2d98e751cd2b2cd08,63f3cfca20052e4ae7554ebf,6453cc687aed3231a40ac312,2023-05-04_17h17.31.206,ga_syllabified_check,2022.2.5,Win32,59.97001499,,,,,,,,,,,,,,./stim/p04_syllable_1_lakadiaisto_hit.wav,p04,lakadiaisto,hit,la-ka-dias-to,la-ka-diais-to,la-ka-di-ais-to,la-ka-dia-is-to,-0.399074074,-0.094444444,1,0,0,1.6496,text_option_1,,0,202,202,42,1
5eb3e7d2d98e751cd2b2cd08,63f3cfca20052e4ae7554ebf,6453cc687aed3231a40ac312,2023-05-04_17h17.31.206,ga_syllabified_check,2022.2.5,Win32,59.97001499,,,,,,,,,,,,,,./stim/p06_syllable_1_falufaisto_hit.wav,p06,falufaisto,hit,fa-lu-fa-is-to,fa-lu-fais-to,fa-lu-fa-is-to, ,0.477777778,-0.105555556,1,0,0,2.2705,text_option_2,,0,203,203,105,1
5eb3e7d2d98e751cd2b2cd08,63f3cfca20052e4ae7554ebf,6453cc687aed3231a40ac312,2023-05-04_17h17.31.206,ga_syllabified_check,2022.2.5,Win32,59.97001499,,,,,,,,,,,,,,,,,,,,,,,,,,,,,,,,,,
