participant,study,session,date,expName,psychopyVersion,OS,frameRate,mouse_practice.x,mouse_practice.y,mouse_practice.leftButton,mouse_practice.midButton,mouse_practice.rightButton,mouse_practice.time,mouse_practice.clicked_name,textbox_followup_practice.text,trials_practice.thisRepN,trials_practice.thisTrialN,trials_practice.thisN,trials_practice.thisIndex,trials_practice.ran,file_path,id,item,status,response,op1,op2,op3,mouse.x,mouse.y,mouse.leftButton,mouse.midButton,mouse.rightButton,mouse.time,mouse.clicked_name,textbox_followup.text,trials.thisRepN,trials.thisTrialN,trials.thisN,trials.thisIndex,trials.ran,trials.order
5ec81ba6c71d2b0f9add5de5,63f3cfca20052e4ae7554ebf,6453cd91af80da1c6dc12532,2023-05-04_17h22.45.784,ga_syllabified_check,2022.2.5,MacIntel,3.154424869,,,,,,,,,,,,,,,,,,,,,,,,,,,,,,,,,,,
5ec81ba6c71d2b0f9add5de5,63f3cfca20052e4ae7554ebf,6453cd91af80da1c6dc12532,2023-05-04_17h22.45.784,ga_syllabified_check,2022.2.5,MacIntel,3.154424869,-0.373409526,-0.104711858,1,0,0,11.2501,text_option_1_practice,,0,0,0,0,1,./stim/p03_syllable_1_liamo_hit.wav,p03,liamo,hit,lia-mo,lia-mo,li-a-mo, ,,,,,,,,,,,,,,
5ec81ba6c71d2b0f9add5de5,63f3cfca20052e4ae7554ebf,6453cd91af80da1c6dc12532,2023-05-04_17h22.45.784,ga_syllabified_check,2022.2.5,MacIntel,3.154424869,0.036027527,-0.300001074,1,0,0,6.8874,text_option_other_practice,MATI ,0,1,1,1,1,./stim/p05_syllable_1_matio_hit.wav,p05,matio,hit,ma-tio,ma-tio,ma-ti-o, ,,,,,,,,,,,,,,
5ec81ba6c71d2b0f9add5de5,63f3cfca20052e4ae7554ebf,6453cd91af80da1c6dc12532,2023-05-04_17h22.45.784,ga_syllabified_check,2022.2.5,MacIntel,3.154424869,-0.015676202,-0.307512297,1,0,0,9.5018,text_option_other_practice,LLAMO,0,2,2,2,1,./stim/p08_syllable_1_liamo_hit.wav,p08,liamo,hit,ja-mo,lia-mo,li-a-mo, ,,,,,,,,,,,,,,
5ec81ba6c71d2b0f9add5de5,63f3cfca20052e4ae7554ebf,6453cd91af80da1c6dc12532,2023-05-04_17h22.45.784,ga_syllabified_check,2022.2.5,MacIntel,3.154424869,,,,,,,,,,,,,,,,,,,,,,,,,,,,,,,,,,,
5ec81ba6c71d2b0f9add5de5,63f3cfca20052e4ae7554ebf,6453cd91af80da1c6dc12532,2023-05-04_17h22.45.784,ga_syllabified_check,2022.2.5,MacIntel,3.154424869,,,,,,,,,,,,,,./stim/p04_syllable_1_paluguato_hit.wav,p04,paluguato,hit,pa-lu-gua,pa-lu-gua-to,pa-lu-gu-a-to, ,0.047931378,-0.306155968,1,0,0,38.5597,text_option_other,palugua,0,0,0,61,1,
5ec81ba6c71d2b0f9add5de5,63f3cfca20052e4ae7554ebf,6453cd91af80da1c6dc12532,2023-05-04_17h22.45.784,ga_syllabified_check,2022.2.5,MacIntel,3.154424869,,,,,,,,,,,,,,./stim/p05_syllable_1_lakabiaisto_hit.wav,p05,lakabiaisto,hit,la-ka-bi-ais-to,la-ka-biais-to,la-ka-bi-ais-to,la-ka-bia-is-to,-0.354977298,-0.110563332,1,0,0,4.8618,text_option_1,,0,1,1,74,1,
5ec81ba6c71d2b0f9add5de5,63f3cfca20052e4ae7554ebf,6453cd91af80da1c6dc12532,2023-05-04_17h22.45.784,ga_syllabified_check,2022.2.5,MacIntel,3.154424869,,,,,,,,,,,,,,./stim/p03_syllable_1_costonhialo_hit.wav,p03,costoñialo,hit,cos-to-nhia-lo,cos-to-ñia-lo,cos-to-ñi-a-lo, ,-0.377718082,-0.099891076,1,0,0,10.9457,text_option_1,,0,2,2,1,1,
5ec81ba6c71d2b0f9add5de5,63f3cfca20052e4ae7554ebf,6453cd91af80da1c6dc12532,2023-05-04_17h22.45.784,ga_syllabified_check,2022.2.5,MacIntel,3.154424869,,,,,,,,,,,,,,./stim/p05_syllable_1_faluduako_hit.wav,p05,faluduako,hit,fa-lu-ba-ko,fa-lu-dua-ko,fa-lu-du-a-ko, ,-0.378446715,-0.112474532,1,0,0,2.4456,text_option_1,,0,3,3,70,1,
5ec81ba6c71d2b0f9add5de5,63f3cfca20052e4ae7554ebf,6453cd91af80da1c6dc12532,2023-05-04_17h22.45.784,ga_syllabified_check,2022.2.5,MacIntel,3.154424869,,,,,,,,,,,,,,./stim/p04_syllable_1_palufauto_hit.wav,p04,palufauto,hit,pa-lu-fau-to,pa-lu-fau-to,pa-lu-fa-u-to, ,-0.378725286,-0.111159599,1,0,0,1.3247,text_option_1,,0,4,4,60,1,
5ec81ba6c71d2b0f9add5de5,63f3cfca20052e4ae7554ebf,6453cd91af80da1c6dc12532,2023-05-04_17h22.45.784,ga_syllabified_check,2022.2.5,MacIntel,3.154424869,,,,,,,,,,,,,,./stim/p06_syllable_1_palutrauco_hit.wav,p06,palutrauco,hit,pa-lu-tra-u-co,pa-lu-trau-co,pa-lu-tra-u-co, ,0.421641155,-0.100381663,1,0,0,5.467,text_option_2,,0,5,5,131,1,
5ec81ba6c71d2b0f9add5de5,63f3cfca20052e4ae7554ebf,6453cd91af80da1c6dc12532,2023-05-04_17h22.45.784,ga_syllabified_check,2022.2.5,MacIntel,3.154424869,,,,,,,,,,,,,,./stim/p08_syllable_1_mebochiana_hit.wav,p08,mebochiana,hit,me-bo-chi-a-na,me-bo-chia-na,me-bo-chi-a-na, ,0.421641155,-0.100381663,1,0,0,2.93,text_option_2,,0,6,6,192,1,
5ec81ba6c71d2b0f9add5de5,63f3cfca20052e4ae7554ebf,6453cd91af80da1c6dc12532,2023-05-04_17h22.45.784,ga_syllabified_check,2022.2.5,MacIntel,3.154424869,,,,,,,,,,,,,,./stim/p08_syllable_1_pachialo_hit.wav,p08,pachialo,hit,pa-chi-ja-lo,pa-chia-lo,pa-chi-a-lo, ,0.410831426,-0.102947529,1,0,0,3.4032,text_option_2,,0,7,7,194,1,
5ec81ba6c71d2b0f9add5de5,63f3cfca20052e4ae7554ebf,6453cd91af80da1c6dc12532,2023-05-04_17h22.45.784,ga_syllabified_check,2022.2.5,MacIntel,3.154424869,,,,,,,,,,,,,,./stim/p08_syllable_1_lakakuaisto_hit.wav,p08,lakakuaisto,hit,la-ka-ku-ais-to,la-ka-kuais-to,la-ka-ku-ais-to,la-ka-kua-is-to,0.419473625,-0.105939651,1,0,0,13.2788,text_option_2,,0,8,8,185,1,
5ec81ba6c71d2b0f9add5de5,63f3cfca20052e4ae7554ebf,6453cd91af80da1c6dc12532,2023-05-04_17h22.45.784,ga_syllabified_check,2022.2.5,MacIntel,3.154424869,,,,,,,,,,,,,,./stim/p08_syllable_1_lakadiaisto_hit.wav,p08,lakadiaisto,hit,la-ka-di-jas-to,la-ka-diais-to,la-ka-di-ais-to,la-ka-dia-is-to,0.388048592,-0.101523869,1,0,0,4.0164,text_option_2,,0,9,9,178,1,
5ec81ba6c71d2b0f9add5de5,63f3cfca20052e4ae7554ebf,6453cd91af80da1c6dc12532,2023-05-04_17h22.45.784,ga_syllabified_check,2022.2.5,MacIntel,3.154424869,,,,,,,,,,,,,,./stim/p06_syllable_1_lakatuaisto_hit.wav,p06,lakatuaisto,hit,la-ka-tu-a-is,la-ka-tuais-to,la-ka-tu-ais-to,la-ka-tua-is-to,0.432809271,-0.09917521,1,0,0,8.6311,text_option_2,,0,10,10,121,1,
5ec81ba6c71d2b0f9add5de5,63f3cfca20052e4ae7554ebf,6453cd91af80da1c6dc12532,2023-05-04_17h22.45.784,ga_syllabified_check,2022.2.5,MacIntel,3.154424869,,,,,,,,,,,,,,./stim/p03_syllable_1_palutrauco_hit.wav,p03,palutrauco,hit,pa-lu-trau-co,pa-lu-trau-co,pa-lu-tra-u-co, ,0.333976221,-0.116625499,1,0,0,12.3291,text_option_2,,0,11,11,29,1,
5ec81ba6c71d2b0f9add5de5,63f3cfca20052e4ae7554ebf,6453cd91af80da1c6dc12532,2023-05-04_17h22.45.784,ga_syllabified_check,2022.2.5,MacIntel,3.154424869,,,,,,,,,,,,,,./stim/p04_syllable_1_costonhialo_hit.wav,p04,costoñialo,hit,cos-to-nhia-lo,cos-to-ñia-lo,cos-to-ñi-a-lo, ,-0.323765269,-0.108921808,1,0,0,3.3034,text_option_1,,0,12,12,35,1,
5ec81ba6c71d2b0f9add5de5,63f3cfca20052e4ae7554ebf,6453cd91af80da1c6dc12532,2023-05-04_17h22.45.784,ga_syllabified_check,2022.2.5,MacIntel,3.154424869,,,,,,,,,,,,,,./stim/p03_syllable_1_pachialo_hit.wav,p03,pachialo,hit,pa-chia-lo,pa-chia-lo,pa-chi-a-lo, ,-0.376029443,-0.104537326,1,0,0,1.4757,text_option_1,,0,13,13,24,1,
5ec81ba6c71d2b0f9add5de5,63f3cfca20052e4ae7554ebf,6453cd91af80da1c6dc12532,2023-05-04_17h22.45.784,ga_syllabified_check,2022.2.5,MacIntel,3.154424869,,,,,,,,,,,,,,./stim/p08_syllable_1_lakabuaisto_hit.wav,p08,lakabuaisto,hit,la-ka-bu-ais-to,la-ka-buais-to,la-ka-bu-ais-to,la-ka-bua-is-to,0.322168265,-0.105982401,1,0,0,8.8029,text_option_2,,0,14,14,177,1,
5ec81ba6c71d2b0f9add5de5,63f3cfca20052e4ae7554ebf,6453cd91af80da1c6dc12532,2023-05-04_17h22.45.784,ga_syllabified_check,2022.2.5,MacIntel,3.154424869,,,,,,,,,,,,,,./stim/p05_syllable_1_flauro_hit.wav,p05,flauro,hit,fa-lu-ro,flau-ro,fla-u-ro, ,0.375847738,-0.09784438,1,0,0,2.6659,text_option_2,,0,15,15,73,1,
5ec81ba6c71d2b0f9add5de5,63f3cfca20052e4ae7554ebf,6453cd91af80da1c6dc12532,2023-05-04_17h22.45.784,ga_syllabified_check,2022.2.5,MacIntel,3.154424869,,,,,,,,,,,,,,./stim/p08_syllable_1_palumaisto_hit.wav,p08,palumaisto,hit,pa-lu-mais-to,pa-lu-mais-to,pa-lu-ma-is-to, ,-0.341449691,-0.103710427,1,0,0,6.6481,text_option_1,,0,16,16,198,1,
5ec81ba6c71d2b0f9add5de5,63f3cfca20052e4ae7554ebf,6453cd91af80da1c6dc12532,2023-05-04_17h22.45.784,ga_syllabified_check,2022.2.5,MacIntel,3.154424869,,,,,,,,,,,,,,./stim/p03_syllable_1_chiaba_hit.wav,p03,chiaba,hit,chia-ba,chia-ba,chi-a-ba, ,-0.35653843,-0.104712606,1,0,0,6.0844,text_option_1,,0,17,17,0,1,
5ec81ba6c71d2b0f9add5de5,63f3cfca20052e4ae7554ebf,6453cd91af80da1c6dc12532,2023-05-04_17h22.45.784,ga_syllabified_check,2022.2.5,MacIntel,3.154424869,,,,,,,,,,,,,,./stim/p06_syllable_1_faluduako_hit.wav,p06,faluduako,hit,fa-lu-dua-ko,fa-lu-dua-ko,fa-lu-du-a-ko, ,0.396178952,-0.10276813,1,0,0,2.7924,text_option_2,,0,18,18,104,1,
5ec81ba6c71d2b0f9add5de5,63f3cfca20052e4ae7554ebf,6453cd91af80da1c6dc12532,2023-05-04_17h22.45.784,ga_syllabified_check,2022.2.5,MacIntel,3.154424869,,,,,,,,,,,,,,./stim/p06_syllable_1_lakaguaisto_hit.wav,p06,lakaguaisto,hit,la-ka-gu-a-is,la-ka-guais-to,la-ka-gu-ais-to,la-ka-gua-is-to,0.405565434,-0.114144226,1,0,0,3.7065,text_option_2,,0,19,19,115,1,
5ec81ba6c71d2b0f9add5de5,63f3cfca20052e4ae7554ebf,6453cd91af80da1c6dc12532,2023-05-04_17h22.45.784,ga_syllabified_check,2022.2.5,MacIntel,3.154424869,,,,,,,,,,,,,,./stim/p05_syllable_1_falutraigo_hit.wav,p05,falutraigo,hit,fa-lu-trai-go,fa-lu-trai-go,fa-lu-tra-i-go, ,-0.372503983,-0.106311793,1,0,0,5.3368,text_option_1,,0,20,20,72,1,
5ec81ba6c71d2b0f9add5de5,63f3cfca20052e4ae7554ebf,6453cd91af80da1c6dc12532,2023-05-04_17h22.45.784,ga_syllabified_check,2022.2.5,MacIntel,3.154424869,,,,,,,,,,,,,,./stim/p07_syllable_1_lakabuaisto_hit.wav,p07,lakabuaisto,hit,la-ka-buais-to,la-ka-buais-to,la-ka-bu-ais-to,la-ka-bua-is-to,-0.370050757,-0.107133338,1,0,0,1.3235,text_option_1,,0,21,21,143,1,
5ec81ba6c71d2b0f9add5de5,63f3cfca20052e4ae7554ebf,6453cd91af80da1c6dc12532,2023-05-04_17h22.45.784,ga_syllabified_check,2022.2.5,MacIntel,3.154424869,,,,,,,,,,,,,,./stim/p05_syllable_1_chiaba_hit.wav,p05,chiaba,hit,chia-ba,chia-ba,chi-a-ba, ,-0.402432708,-0.100181178,1,0,0,1.1869,text_option_1,,0,22,22,68,1,
5ec81ba6c71d2b0f9add5de5,63f3cfca20052e4ae7554ebf,6453cd91af80da1c6dc12532,2023-05-04_17h22.45.784,ga_syllabified_check,2022.2.5,MacIntel,3.154424869,,,,,,,,,,,,,,./stim/p07_syllable_1_lakakuaisto_hit.wav,p07,lakakuaisto,hit,la-ka-kuais-to,la-ka-kuais-to,la-ka-ku-ais-to,la-ka-kua-is-to,-0.344822069,-0.101878301,1,0,0,4.1477,text_option_1,,0,23,23,151,1,
5ec81ba6c71d2b0f9add5de5,63f3cfca20052e4ae7554ebf,6453cd91af80da1c6dc12532,2023-05-04_17h22.45.784,ga_syllabified_check,2022.2.5,MacIntel,3.154424869,,,,,,,,,,,,,,./stim/p06_syllable_1_lakafiaisto_hit.wav,p06,lakafiaisto,hit,la-ka-fia-is-to,la-ka-fiais-to,la-ka-fi-ais-to,la-ka-fia-is-to,0.005758638,-0.10674497,1,0,0,7.0149,text_option_3,,0,24,24,112,1,
5ec81ba6c71d2b0f9add5de5,63f3cfca20052e4ae7554ebf,6453cd91af80da1c6dc12532,2023-05-04_17h22.45.784,ga_syllabified_check,2022.2.5,MacIntel,3.154424869,,,,,,,,,,,,,,./stim/p04_syllable_1_lakaguaisto_hit.wav,p04,lakaguaisto,hit,la-ka-guais-to,la-ka-guais-to,la-ka-gu-ais-to,la-ka-gua-is-to,-0.346285801,-0.103348746,1,0,0,2.1353,text_option_1,,0,25,25,47,1,
5ec81ba6c71d2b0f9add5de5,63f3cfca20052e4ae7554ebf,6453cd91af80da1c6dc12532,2023-05-04_17h22.45.784,ga_syllabified_check,2022.2.5,MacIntel,3.154424869,,,,,,,,,,,,,,./stim/p05_syllable_1_costonhialo_hit.wav,p05,costoñialo,hit,cos-to-nhia-lo,cos-to-ñia-lo,cos-to-ñi-a-lo, ,-0.370476315,-0.094271146,1,0,0,2.7138,text_option_1,,0,26,26,69,1,
5ec81ba6c71d2b0f9add5de5,63f3cfca20052e4ae7554ebf,6453cd91af80da1c6dc12532,2023-05-04_17h22.45.784,ga_syllabified_check,2022.2.5,MacIntel,3.154424869,,,,,,,,,,,,,,./stim/p04_syllable_1_chiaba_hit.wav,p04,chiaba,hit,chia-ba,chia-ba,chi-a-ba, ,-0.372566872,-0.111020313,1,0,0,2.588,text_option_1,,0,27,27,34,1,
5ec81ba6c71d2b0f9add5de5,63f3cfca20052e4ae7554ebf,6453cd91af80da1c6dc12532,2023-05-04_17h22.45.784,ga_syllabified_check,2022.2.5,MacIntel,3.154424869,,,,,,,,,,,,,,./stim/p06_syllable_1_lakapiaisto_hit.wav,p06,lakapiaisto,hit,la-ka-pia-is-to,la-ka-piais-to,la-ka-pi-ais-to,la-ka-pia-is-to,0.024502279,-0.112616865,1,0,0,2.9832,text_option_3,,0,28,28,118,1,
5ec81ba6c71d2b0f9add5de5,63f3cfca20052e4ae7554ebf,6453cd91af80da1c6dc12532,2023-05-04_17h22.45.784,ga_syllabified_check,2022.2.5,MacIntel,3.154424869,,,,,,,,,,,,,,./stim/p07_syllable_1_mebochiana_hit.wav,p07,mebochiana,hit,me-bo-chia-na,me-bo-chia-na,me-bo-chi-a-na, ,0.375816026,-0.108115584,1,0,0,1.2066,text_option_2,,0,29,29,158,1,
5ec81ba6c71d2b0f9add5de5,63f3cfca20052e4ae7554ebf,6453cd91af80da1c6dc12532,2023-05-04_17h22.45.784,ga_syllabified_check,2022.2.5,MacIntel,3.154424869,,,,,,,,,,,,,,./stim/p06_syllable_1_lakatiaisto_hit.wav,p06,lakatiaisto,hit,la-ka-pia-is-to,la-ka-tiais-to,la-ka-ti-ais-to,la-ka-tia-is-to,0.089715337,-0.104371188,1,0,0,0.5099,text_option_3,,0,30,30,120,1,
5ec81ba6c71d2b0f9add5de5,63f3cfca20052e4ae7554ebf,6453cd91af80da1c6dc12532,2023-05-04_17h22.45.784,ga_syllabified_check,2022.2.5,MacIntel,3.154424869,,,,,,,,,,,,,,./stim/p08_syllable_1_falufaisto_hit.wav,p08,falufaisto,hit,fa-lu-fais-to,fa-lu-fais-to,fa-lu-fa-is-to, ,-0.362637061,-0.107792797,1,0,0,20.1732,text_option_1,,0,31,31,173,1,
5ec81ba6c71d2b0f9add5de5,63f3cfca20052e4ae7554ebf,6453cd91af80da1c6dc12532,2023-05-04_17h22.45.784,ga_syllabified_check,2022.2.5,MacIntel,3.154424869,,,,,,,,,,,,,,./stim/p08_syllable_1_faluduako_hit.wav,p08,faluduako,hit,fa-lu-duai-ko,fa-lu-dua-ko,fa-lu-du-a-ko, ,0.378848856,-0.105975663,1,0,0,2.0588,text_option_2,,0,32,32,172,1,
5ec81ba6c71d2b0f9add5de5,63f3cfca20052e4ae7554ebf,6453cd91af80da1c6dc12532,2023-05-04_17h22.45.784,ga_syllabified_check,2022.2.5,MacIntel,3.154424869,,,,,,,,,,,,,,./stim/p07_syllable_1_palumaisto_hit.wav,p07,palumaisto,hit,pa-lu-mais-to,pa-lu-mais-to,pa-lu-ma-is-to, ,-0.359684744,-0.10431308,1,0,0,10.7166,text_option_1,,0,33,33,164,1,
5ec81ba6c71d2b0f9add5de5,63f3cfca20052e4ae7554ebf,6453cd91af80da1c6dc12532,2023-05-04_17h22.45.784,ga_syllabified_check,2022.2.5,MacIntel,3.154424869,,,,,,,,,,,,,,./stim/p05_syllable_1_nhiape_hit.wav,p05,ñiape,hit,nhia-pe,ñia-pe,ñi-a-pe, ,-0.372152906,-0.104062728,1,0,0,1.0832,text_option_1,,0,34,34,91,1,
5ec81ba6c71d2b0f9add5de5,63f3cfca20052e4ae7554ebf,6453cd91af80da1c6dc12532,2023-05-04_17h22.45.784,ga_syllabified_check,2022.2.5,MacIntel,3.154424869,,,,,,,,,,,,,,./stim/p03_syllable_1_palufauto_hit.wav,p03,palufauto,hit,pa-lu-fau,pa-lu-fau-to,pa-lu-fa-u-to, ,-0.374728661,-0.100321595,1,0,0,4.6304,text_option_1,,0,35,35,26,1,
5ec81ba6c71d2b0f9add5de5,63f3cfca20052e4ae7554ebf,6453cd91af80da1c6dc12532,2023-05-04_17h22.45.784,ga_syllabified_check,2022.2.5,MacIntel,3.154424869,,,,,,,,,,,,,,./stim/p06_syllable_1_mebochiana_hit.wav,p06,mebochiana,hit,me-bo-shi-a-na,me-bo-chia-na,me-bo-chi-a-na, ,0.435026042,-0.104759243,1,0,0,6.8546,text_option_2,,0,36,36,124,1,
5ec81ba6c71d2b0f9add5de5,63f3cfca20052e4ae7554ebf,6453cd91af80da1c6dc12532,2023-05-04_17h22.45.784,ga_syllabified_check,2022.2.5,MacIntel,3.154424869,,,,,,,,,,,,,,./stim/p06_syllable_1_falufaisto_hit.wav,p06,falufaisto,hit,fa-lu-fa-is-to,fa-lu-fais-to,fa-lu-fa-is-to, ,0.412557537,-0.106693451,1,0,0,0.5426,text_option_2,,0,37,37,105,1,
5ec81ba6c71d2b0f9add5de5,63f3cfca20052e4ae7554ebf,6453cd91af80da1c6dc12532,2023-05-04_17h22.45.784,ga_syllabified_check,2022.2.5,MacIntel,3.154424869,,,,,,,,,,,,,,./stim/p06_syllable_1_lliape_hit.wav,p06,lliape,hit,lli-lla-pe,llia-pe,lli-a-pe, ,0.361464044,-0.097800521,1,0,0,2.135,text_option_2,,0,38,38,122,1,
5ec81ba6c71d2b0f9add5de5,63f3cfca20052e4ae7554ebf,6453cd91af80da1c6dc12532,2023-05-04_17h22.45.784,ga_syllabified_check,2022.2.5,MacIntel,3.154424869,,,,,,,,,,,,,,./stim/p06_syllable_1_flauro_hit.wav,p06,flauro,hit,fla-u-ro,flau-ro,fla-u-ro, ,0.360901521,-0.104429368,1,0,0,0.9503,text_option_2,,0,39,39,107,1,
5ec81ba6c71d2b0f9add5de5,63f3cfca20052e4ae7554ebf,6453cd91af80da1c6dc12532,2023-05-04_17h22.45.784,ga_syllabified_check,2022.2.5,MacIntel,3.154424869,,,,,,,,,,,,,,./stim/p04_syllable_1_manhiala_hit.wav,p04,mañiala,hit,ma-nhia-la,ma-ñia-la,ma-ñi-a-la, ,-0.368006014,-0.095837545,1,0,0,3.2796,text_option_1,,0,40,40,55,1,
5ec81ba6c71d2b0f9add5de5,63f3cfca20052e4ae7554ebf,6453cd91af80da1c6dc12532,2023-05-04_17h22.45.784,ga_syllabified_check,2022.2.5,MacIntel,3.154424869,,,,,,,,,,,,,,./stim/p03_syllable_1_lakabuaisto_hit.wav,p03,lakabuaisto,hit,la-ka-buais-to,la-ka-buais-to,la-ka-bu-ais-to,la-ka-bua-is-to,-0.362928674,-0.099860369,1,0,0,4.4152,text_option_1,,0,41,41,7,1,
5ec81ba6c71d2b0f9add5de5,63f3cfca20052e4ae7554ebf,6453cd91af80da1c6dc12532,2023-05-04_17h22.45.784,ga_syllabified_check,2022.2.5,MacIntel,3.154424869,,,,,,,,,,,,,,./stim/p05_syllable_1_lakadiaisto_hit.wav,p05,lakadiaisto,hit,la-ka-di-ais-to,la-ka-diais-to,la-ka-di-ais-to,la-ka-dia-is-to,-0.348631599,-0.107381827,1,0,0,6.3063,text_option_1,,0,42,42,76,1,
5ec81ba6c71d2b0f9add5de5,63f3cfca20052e4ae7554ebf,6453cd91af80da1c6dc12532,2023-05-04_17h22.45.784,ga_syllabified_check,2022.2.5,MacIntel,3.154424869,,,,,,,,,,,,,,./stim/p06_syllable_1_lakakiaisto_hit.wav,p06,lakakiaisto,hit,la-ka-kia-is-to,la-ka-kiais-to,la-ka-ki-ais-to,la-ka-kia-is-to,-0.00940077,-0.103632984,1,0,0,14.4407,text_option_3,,0,43,43,116,1,
5ec81ba6c71d2b0f9add5de5,63f3cfca20052e4ae7554ebf,6453cd91af80da1c6dc12532,2023-05-04_17h22.45.784,ga_syllabified_check,2022.2.5,MacIntel,3.154424869,,,,,,,,,,,,,,./stim/p07_syllable_1_ruyiola_hit.wav,p07,ruyiola,hit,ru-yio-la,ru-yio-la,ru-yi-o-la, ,-0.379138398,-0.098474407,1,0,0,4.2825,text_option_1,,0,44,44,168,1,
5ec81ba6c71d2b0f9add5de5,63f3cfca20052e4ae7554ebf,6453cd91af80da1c6dc12532,2023-05-04_17h22.45.784,ga_syllabified_check,2022.2.5,MacIntel,3.154424869,,,,,,,,,,,,,,./stim/p04_syllable_1_lakafuaisto_hit.wav,p04,lakafuaisto,hit,la-ka-fuais-to,la-ka-fuais-to,la-ka-fu-ais-to,la-ka-fua-is-to,-0.348025531,-0.09376442,1,0,0,9.8332,text_option_1,,0,45,45,45,1,
5ec81ba6c71d2b0f9add5de5,63f3cfca20052e4ae7554ebf,6453cd91af80da1c6dc12532,2023-05-04_17h22.45.784,ga_syllabified_check,2022.2.5,MacIntel,3.154424869,,,,,,,,,,,,,,./stim/p07_syllable_1_faluduako_hit.wav,p07,faluduako,hit,fa-lu-dua-ko,fa-lu-dua-ko,fa-lu-du-a-ko, ,-0.359105018,-0.09741525,1,0,0,1.1898,text_option_1,,0,46,46,138,1,
5ec81ba6c71d2b0f9add5de5,63f3cfca20052e4ae7554ebf,6453cd91af80da1c6dc12532,2023-05-04_17h22.45.784,ga_syllabified_check,2022.2.5,MacIntel,3.154424869,,,,,,,,,,,,,,./stim/p08_syllable_1_lakapuaisto_hit.wav,p08,lakapuaisto,hit,la-ka-pu-as-to,la-ka-puais-to,la-ka-pu-ais-to,la-ka-pua-is-to,0.392203205,-0.100638835,1,0,0,5.5397,text_option_2,,0,47,47,187,1,
5ec81ba6c71d2b0f9add5de5,63f3cfca20052e4ae7554ebf,6453cd91af80da1c6dc12532,2023-05-04_17h22.45.784,ga_syllabified_check,2022.2.5,MacIntel,3.154424869,,,,,,,,,,,,,,./stim/p07_syllable_1_flauro_hit.wav,p07,flauro,hit,flau-ro,flau-ro,fla-u-ro, ,-0.409565601,-0.10775896,1,0,0,4.8412,text_option_1,,0,48,48,141,1,
5ec81ba6c71d2b0f9add5de5,63f3cfca20052e4ae7554ebf,6453cd91af80da1c6dc12532,2023-05-04_17h22.45.784,ga_syllabified_check,2022.2.5,MacIntel,3.154424869,,,,,,,,,,,,,,./stim/p03_syllable_1_lakafiaisto_hit.wav,p03,lakafiaisto,hit,la-ka-fiais-to,la-ka-fiais-to,la-ka-fi-ais-to,la-ka-fia-is-to,-0.393503861,-0.103803311,1,0,0,6.8623,text_option_1,,0,49,49,10,1,
5ec81ba6c71d2b0f9add5de5,63f3cfca20052e4ae7554ebf,6453cd91af80da1c6dc12532,2023-05-04_17h22.45.784,ga_syllabified_check,2022.2.5,MacIntel,3.154424869,,,,,,,,,,,,,,./stim/p05_syllable_1_tuliafo_hit.wav,p05,tuliafo,hit,tu-lai-fo,tu-lia-fo,tu-li-a-fo, ,0.359781473,-0.105912415,1,0,0,1.8035,text_option_2,,0,50,50,101,1,
5ec81ba6c71d2b0f9add5de5,63f3cfca20052e4ae7554ebf,6453cd91af80da1c6dc12532,2023-05-04_17h22.45.784,ga_syllabified_check,2022.2.5,MacIntel,3.154424869,,,,,,,,,,,,,,./stim/p04_syllable_1_tuliafo_hit.wav,p04,tuliafo,hit,tu-lia-fo,tu-lia-fo,tu-li-a-fo, ,0.359629563,-0.10583646,1,0,0,2.0832,text_option_2,,0,51,51,67,1,
5ec81ba6c71d2b0f9add5de5,63f3cfca20052e4ae7554ebf,6453cd91af80da1c6dc12532,2023-05-04_17h22.45.784,ga_syllabified_check,2022.2.5,MacIntel,3.154424869,,,,,,,,,,,,,,./stim/p04_syllable_1_lakapiaisto_hit.wav,p04,lakapiaisto,hit,la-ka-piais-to,la-ka-piais-to,la-ka-pi-ais-to,la-ka-pia-is-to,0.102598313,-0.108969884,1,0,0,16.0714,text_option_3,,0,52,52,50,1,
5ec81ba6c71d2b0f9add5de5,63f3cfca20052e4ae7554ebf,6453cd91af80da1c6dc12532,2023-05-04_17h22.45.784,ga_syllabified_check,2022.2.5,MacIntel,3.154424869,,,,,,,,,,,,,,./stim/p08_syllable_1_flauro_hit.wav,p08,flauro,hit,flau-ro,flau-ro,fla-u-ro, ,-0.374340392,-0.099946746,1,0,0,7.2471,text_option_1,,0,53,53,175,1,
5ec81ba6c71d2b0f9add5de5,63f3cfca20052e4ae7554ebf,6453cd91af80da1c6dc12532,2023-05-04_17h22.45.784,ga_syllabified_check,2022.2.5,MacIntel,3.154424869,,,,,,,,,,,,,,./stim/p05_syllable_1_lakaduaisto_hit.wav,p05,lakaduaisto,hit,la-ka-dais-to,la-ka-duais-to,la-ka-du-ais-to,la-ka-dua-is-to,-0.04320361,-0.103038551,1,0,0,1.1415,text_option_3,,0,54,54,77,1,
5ec81ba6c71d2b0f9add5de5,63f3cfca20052e4ae7554ebf,6453cd91af80da1c6dc12532,2023-05-04_17h22.45.784,ga_syllabified_check,2022.2.5,MacIntel,3.154424869,,,,,,,,,,,,,,./stim/p08_syllable_1_lakatiaisto_hit.wav,p08,lakatiaisto,hit,la-ka-ti-as-to,la-ka-tiais-to,la-ka-ti-ais-to,la-ka-tia-is-to,0.00296945,-0.107161601,0,0,1,7.4583,text_option_3,,0,55,55,188,1,
5ec81ba6c71d2b0f9add5de5,63f3cfca20052e4ae7554ebf,6453cd91af80da1c6dc12532,2023-05-04_17h22.45.784,ga_syllabified_check,2022.2.5,MacIntel,3.154424869,,,,,,,,,,,,,,./stim/p04_syllable_1_lakapuaisto_hit.wav,p04,lakapuaisto,hit,la-ka-puais-to,la-ka-puais-to,la-ka-pu-ais-to,la-ka-pua-is-to,-0.354909154,-0.112051695,1,0,1,1.6924,text_option_1,,0,56,56,51,1,
5ec81ba6c71d2b0f9add5de5,63f3cfca20052e4ae7554ebf,6453cd91af80da1c6dc12532,2023-05-04_17h22.45.784,ga_syllabified_check,2022.2.5,MacIntel,3.154424869,,,,,,,,,,,,,,./stim/p03_syllable_1_lakaduaisto_hit.wav,p03,lakaduaisto,hit,la-ka-duais-to,la-ka-duais-to,la-ka-du-ais-to,la-ka-dua-is-to,-0.362963439,-0.108354035,1,0,1,1.6485,text_option_1,,0,57,57,9,1,
5ec81ba6c71d2b0f9add5de5,63f3cfca20052e4ae7554ebf,6453cd91af80da1c6dc12532,2023-05-04_17h22.45.784,ga_syllabified_check,2022.2.5,MacIntel,3.154424869,,,,,,,,,,,,,,./stim/p06_syllable_1_lakapuaisto_hit.wav,p06,lakapuaisto,hit,la-ka-pu-a-is,la-ka-puais-to,la-ka-pu-ais-to,la-ka-pua-is-to,0.378087594,-0.110668803,1,0,1,5.3099,text_option_2,,0,58,58,119,1,
5ec81ba6c71d2b0f9add5de5,63f3cfca20052e4ae7554ebf,6453cd91af80da1c6dc12532,2023-05-04_17h22.45.784,ga_syllabified_check,2022.2.5,MacIntel,3.154424869,,,,,,,,,,,,,,./stim/p07_syllable_1_chiaba_hit.wav,p07,chiaba,hit,chia-ba,chia-ba,chi-a-ba, ,-0.371538914,-0.102944607,1,0,1,5.0675,text_option_1,,0,59,59,136,1,
5ec81ba6c71d2b0f9add5de5,63f3cfca20052e4ae7554ebf,6453cd91af80da1c6dc12532,2023-05-04_17h22.45.784,ga_syllabified_check,2022.2.5,MacIntel,3.154424869,,,,,,,,,,,,,,./stim/p06_syllable_1_tuliafo_hit.wav,p06,tuliafo,hit,tu-li-a-fo,tu-lia-fo,tu-li-a-fo, ,0.386425638,-0.096251513,1,0,1,1.9169,text_option_2,,0,60,60,135,1,
5ec81ba6c71d2b0f9add5de5,63f3cfca20052e4ae7554ebf,6453cd91af80da1c6dc12532,2023-05-04_17h22.45.784,ga_syllabified_check,2022.2.5,MacIntel,3.154424869,,,,,,,,,,,,,,./stim/p04_syllable_1_lakabiaisto_hit.wav,p04,lakabiaisto,hit,la-ka-biais-to,la-ka-biais-to,la-ka-bi-ais-to,la-ka-bia-is-to,-0.381666681,-0.104705703,1,0,1,2.0521,text_option_1,,0,61,61,40,1,
5ec81ba6c71d2b0f9add5de5,63f3cfca20052e4ae7554ebf,6453cd91af80da1c6dc12532,2023-05-04_17h22.45.784,ga_syllabified_check,2022.2.5,MacIntel,3.154424869,,,,,,,,,,,,,,./stim/p08_syllable_1_lakaduaisto_hit.wav,p08,lakaduaisto,hit,la-ka-du-ais-to,la-ka-duais-to,la-ka-du-ais-to,la-ka-dua-is-to,-0.326794005,-0.106476151,1,0,1,3.3,text_option_1,,0,62,62,179,1,
5ec81ba6c71d2b0f9add5de5,63f3cfca20052e4ae7554ebf,6453cd91af80da1c6dc12532,2023-05-04_17h22.45.784,ga_syllabified_check,2022.2.5,MacIntel,3.154424869,,,,,,,,,,,,,,./stim/p07_syllable_1_tuliafo_hit.wav,p07,tuliafo,hit,tu-lia-fo,tu-lia-fo,tu-li-a-fo, ,-0.360324579,-0.103991057,1,0,1,4.0707,text_option_1,,0,63,63,169,1,
5ec81ba6c71d2b0f9add5de5,63f3cfca20052e4ae7554ebf,6453cd91af80da1c6dc12532,2023-05-04_17h22.45.784,ga_syllabified_check,2022.2.5,MacIntel,3.154424869,,,,,,,,,,,,,,./stim/p03_syllable_1_palufauro_hit.wav,p03,palufauro,hit,pa-lu-fau-ro,pa-lu-fau-ro,pa-lu-fa-u-ro, ,-0.348609826,-0.10487339,1,0,1,4.6733,text_option_1,,0,64,64,25,1,
5ec81ba6c71d2b0f9add5de5,63f3cfca20052e4ae7554ebf,6453cd91af80da1c6dc12532,2023-05-04_17h22.45.784,ga_syllabified_check,2022.2.5,MacIntel,3.154424869,,,,,,,,,,,,,,./stim/p06_syllable_1_palufauto_hit.wav,p06,palufauto,hit,pa-lu-fau-to,pa-lu-fau-to,pa-lu-fa-u-to, ,-0.345870311,-0.102517432,1,0,1,3.4946,text_option_1,,0,65,65,128,1,
5ec81ba6c71d2b0f9add5de5,63f3cfca20052e4ae7554ebf,6453cd91af80da1c6dc12532,2023-05-04_17h22.45.784,ga_syllabified_check,2022.2.5,MacIntel,3.154424869,,,,,,,,,,,,,,./stim/p07_syllable_1_lakatiaisto_hit.wav,p07,lakatiaisto,hit,la-ka-tiai-sto,la-ka-tiais-to,la-ka-ti-ais-to,la-ka-tia-is-to,-0.347337297,-0.102213542,1,0,1,1.4854,text_option_1,,0,66,66,154,1,
5ec81ba6c71d2b0f9add5de5,63f3cfca20052e4ae7554ebf,6453cd91af80da1c6dc12532,2023-05-04_17h22.45.784,ga_syllabified_check,2022.2.5,MacIntel,3.154424869,,,,,,,,,,,,,,./stim/p08_syllable_1_lakaguaisto_hit.wav,p08,lakaguaisto,hit,la-ka-gu-ais-to,la-ka-guais-to,la-ka-gu-ais-to,la-ka-gua-is-to,-0.347337297,-0.102213542,1,0,1,2.026,text_option_1,,0,67,67,183,1,
5ec81ba6c71d2b0f9add5de5,63f3cfca20052e4ae7554ebf,6453cd91af80da1c6dc12532,2023-05-04_17h22.45.784,ga_syllabified_check,2022.2.5,MacIntel,3.154424869,,,,,,,,,,,,,,./stim/p08_syllable_1_payielo_hit.wav,p08,payielo,hit,pa-yie-lo,pa-yie-lo,pa-yi-e-lo, ,-0.38450064,-0.106229084,1,0,1,7.5097,text_option_1,,0,68,68,200,1,
5ec81ba6c71d2b0f9add5de5,63f3cfca20052e4ae7554ebf,6453cd91af80da1c6dc12532,2023-05-04_17h22.45.784,ga_syllabified_check,2022.2.5,MacIntel,3.154424869,,,,,,,,,,,,,,./stim/p05_syllable_1_palutrauco_hit.wav,p05,palutrauco,hit,pa-lu-trai-co,pa-lu-trau-co,pa-lu-tra-u-co, ,-0.367025525,-0.105294568,1,0,1,9.4758,text_option_1,,0,69,69,97,1,
5ec81ba6c71d2b0f9add5de5,63f3cfca20052e4ae7554ebf,6453cd91af80da1c6dc12532,2023-05-04_17h22.45.784,ga_syllabified_check,2022.2.5,MacIntel,3.154424869,,,,,,,,,,,,,,./stim/p03_syllable_1_lliape_hit.wav,p03,lliape,hit,llia,llia-pe,lli-a-pe, ,-0.362397275,-0.105156079,1,0,1,12.1422,text_option_1,,0,70,70,20,1,
5ec81ba6c71d2b0f9add5de5,63f3cfca20052e4ae7554ebf,6453cd91af80da1c6dc12532,2023-05-04_17h22.45.784,ga_syllabified_check,2022.2.5,MacIntel,3.154424869,,,,,,,,,,,,,,./stim/p06_syllable_1_payielo_hit.wav,p06,payielo,hit,pa-yi-e-lo,pa-yie-lo,pa-yi-e-lo, ,0.401328496,-0.103128712,1,0,1,3.719,text_option_2,,0,71,71,132,1,
5ec81ba6c71d2b0f9add5de5,63f3cfca20052e4ae7554ebf,6453cd91af80da1c6dc12532,2023-05-04_17h22.45.784,ga_syllabified_check,2022.2.5,MacIntel,3.154424869,,,,,,,,,,,,,,./stim/p03_syllable_1_palumaisto_hit.wav,p03,palumaisto,hit,pa-lu-mais-to,pa-lu-mais-to,pa-lu-ma-is-to, ,-0.351416016,-0.097582365,1,0,1,14.6957,text_option_1,,0,72,72,28,1,
5ec81ba6c71d2b0f9add5de5,63f3cfca20052e4ae7554ebf,6453cd91af80da1c6dc12532,2023-05-04_17h22.45.784,ga_syllabified_check,2022.2.5,MacIntel,3.154424869,,,,,,,,,,,,,,./stim/p07_syllable_1_lakaguaisto_hit.wav,p07,lakaguaisto,hit,la-ka-guais-to,la-ka-guais-to,la-ka-gu-ais-to,la-ka-gua-is-to,-0.348786721,-0.100850138,1,0,1,1.5122,text_option_1,,0,73,73,149,1,
5ec81ba6c71d2b0f9add5de5,63f3cfca20052e4ae7554ebf,6453cd91af80da1c6dc12532,2023-05-04_17h22.45.784,ga_syllabified_check,2022.2.5,MacIntel,3.154424869,,,,,,,,,,,,,,./stim/p06_syllable_1_palufauro_hit.wav,p06,palufauro,hit,pa-lu-fau-ro,pa-lu-fau-ro,pa-lu-fa-u-ro, ,-0.349859798,-0.10395979,1,0,1,2.495,text_option_1,,0,74,74,127,1,
5ec81ba6c71d2b0f9add5de5,63f3cfca20052e4ae7554ebf,6453cd91af80da1c6dc12532,2023-05-04_17h22.45.784,ga_syllabified_check,2022.2.5,MacIntel,3.154424869,,,,,,,,,,,,,,./stim/p04_syllable_1_falutraigo_hit.wav,p04,falutraigo,hit,fa-lu-trai-go,fa-lu-trai-go,fa-lu-tra-i-go, ,-0.358650074,-0.104016399,1,0,1,4.999,text_option_1,,0,75,75,38,1,
5ec81ba6c71d2b0f9add5de5,63f3cfca20052e4ae7554ebf,6453cd91af80da1c6dc12532,2023-05-04_17h22.45.784,ga_syllabified_check,2022.2.5,MacIntel,3.154424869,,,,,,,,,,,,,,./stim/p04_syllable_1_falufaisto_hit.wav,p04,falufaisto,hit,fa-lu-fais-to,fa-lu-fais-to,fa-lu-fa-is-to, ,-0.361796704,-0.092828191,1,0,1,7.7182,text_option_1,,0,76,76,37,1,
5ec81ba6c71d2b0f9add5de5,63f3cfca20052e4ae7554ebf,6453cd91af80da1c6dc12532,2023-05-04_17h22.45.784,ga_syllabified_check,2022.2.5,MacIntel,3.154424869,,,,,,,,,,,,,,./stim/p03_syllable_1_tuliafo_hit.wav,p03,tuliafo,hit,tu-lia-fo,tu-lia-fo,tu-li-a-fo, ,-0.383775463,-0.102842168,1,0,1,4.4598,text_option_1,,0,77,77,33,1,
5ec81ba6c71d2b0f9add5de5,63f3cfca20052e4ae7554ebf,6453cd91af80da1c6dc12532,2023-05-04_17h22.45.784,ga_syllabified_check,2022.2.5,MacIntel,3.154424869,,,,,,,,,,,,,,./stim/p08_syllable_1_falutraigo_hit.wav,p08,falutraigo,hit,fa-lu-trai-go,fa-lu-trai-go,fa-lu-tra-i-go, ,0.367691486,-0.108598247,1,0,1,3.7854,text_option_2,,0,78,78,174,1,
5ec81ba6c71d2b0f9add5de5,63f3cfca20052e4ae7554ebf,6453cd91af80da1c6dc12532,2023-05-04_17h22.45.784,ga_syllabified_check,2022.2.5,MacIntel,3.154424869,,,,,,,,,,,,,,./stim/p05_syllable_1_lliape_hit.wav,p05,lliape,hit,liai-pe,llia-pe,lli-a-pe, ,0.381205883,-0.105831606,1,0,1,2.0174,text_option_2,,0,79,79,88,1,
5ec81ba6c71d2b0f9add5de5,63f3cfca20052e4ae7554ebf,6453cd91af80da1c6dc12532,2023-05-04_17h22.45.784,ga_syllabified_check,2022.2.5,MacIntel,3.154424869,,,,,,,,,,,,,,./stim/p03_syllable_1_lakakiaisto_hit.wav,p03,lakakiaisto,hit,la-ka-kiais-to,la-ka-kiais-to,la-ka-ki-ais-to,la-ka-kia-is-to,0.352706249,-0.105201052,1,0,1,2.7839,text_option_2,,0,80,80,14,1,
5ec81ba6c71d2b0f9add5de5,63f3cfca20052e4ae7554ebf,6453cd91af80da1c6dc12532,2023-05-04_17h22.45.784,ga_syllabified_check,2022.2.5,MacIntel,3.154424869,,,,,,,,,,,,,,./stim/p04_syllable_1_lakakuaisto_hit.wav,p04,lakakuaisto,hit,la-ka-kuais-to,la-ka-kuais-to,la-ka-ku-ais-to,la-ka-kua-is-to,-0.008905565,-0.102734018,1,0,1,1.2691,text_option_3,,0,81,81,49,1,
5ec81ba6c71d2b0f9add5de5,63f3cfca20052e4ae7554ebf,6453cd91af80da1c6dc12532,2023-05-04_17h22.45.784,ga_syllabified_check,2022.2.5,MacIntel,3.154424869,,,,,,,,,,,,,,./stim/p03_syllable_1_flauro_hit.wav,p03,flauro,hit,flau-ro,flau-ro,fla-u-ro, ,-0.425013528,-0.101952982,1,0,1,1.2703,text_option_1,,0,82,82,5,1,
5ec81ba6c71d2b0f9add5de5,63f3cfca20052e4ae7554ebf,6453cd91af80da1c6dc12532,2023-05-04_17h22.45.784,ga_syllabified_check,2022.2.5,MacIntel,3.154424869,,,,,,,,,,,,,,./stim/p06_syllable_1_manhiala_hit.wav,p06,mañiala,hit,ma-nhi-a-la,ma-ñia-la,ma-ñi-a-la, ,-0.359034774,-0.10772805,1,0,1,6.0725,text_option_1,,0,83,83,123,1,
5ec81ba6c71d2b0f9add5de5,63f3cfca20052e4ae7554ebf,6453cd91af80da1c6dc12532,2023-05-04_17h22.45.784,ga_syllabified_check,2022.2.5,MacIntel,3.154424869,,,,,,,,,,,,,,./stim/p04_syllable_1_palutrauco_hit.wav,p04,palutrauco,hit,pa-lu-trau-co,pa-lu-trau-co,pa-lu-tra-u-co, ,-0.359514203,-0.107955986,1,0,1,1.247,text_option_1,,0,84,84,63,1,
5ec81ba6c71d2b0f9add5de5,63f3cfca20052e4ae7554ebf,6453cd91af80da1c6dc12532,2023-05-04_17h22.45.784,ga_syllabified_check,2022.2.5,MacIntel,3.154424869,,,,,,,,,,,,,,./stim/p03_syllable_1_lakatuaisto_hit.wav,p03,lakatuaisto,hit,la-ka-tuais-to,la-ka-tuais-to,la-ka-tu-ais-to,la-ka-tua-is-to,-0.047552597,-0.101510959,1,0,1,8.9965,text_option_3,,0,85,85,19,1,
5ec81ba6c71d2b0f9add5de5,63f3cfca20052e4ae7554ebf,6453cd91af80da1c6dc12532,2023-05-04_17h22.45.784,ga_syllabified_check,2022.2.5,MacIntel,3.154424869,,,,,,,,,,,,,,./stim/p07_syllable_1_falutraigo_hit.wav,p07,falutraigo,hit,fa-lu-trai-go,fa-lu-trai-go,fa-lu-tra-i-go, ,-0.356604932,-0.106822731,1,0,1,3.2491,text_option_1,,0,86,86,140,1,
5ec81ba6c71d2b0f9add5de5,63f3cfca20052e4ae7554ebf,6453cd91af80da1c6dc12532,2023-05-04_17h22.45.784,ga_syllabified_check,2022.2.5,MacIntel,3.154424869,,,,,,,,,,,,,,./stim/p06_syllable_1_rausto_hit.wav,p06,rausto,hit,ra-us-to,raus-to,ra-us-to, ,0.398210349,-0.101511673,1,0,1,4.2552,text_option_2,,0,87,87,133,1,
5ec81ba6c71d2b0f9add5de5,63f3cfca20052e4ae7554ebf,6453cd91af80da1c6dc12532,2023-05-04_17h22.45.784,ga_syllabified_check,2022.2.5,MacIntel,3.154424869,,,,,,,,,,,,,,./stim/p08_syllable_1_lakabiaisto_hit.wav,p08,lakabiaisto,hit,la-ka-bi-as-to,la-ka-biais-to,la-ka-bi-ais-to,la-ka-bia-is-to,-0.407682185,-0.098793003,1,0,1,11.9367,text_option_1,,0,88,88,176,1,
5ec81ba6c71d2b0f9add5de5,63f3cfca20052e4ae7554ebf,6453cd91af80da1c6dc12532,2023-05-04_17h22.45.784,ga_syllabified_check,2022.2.5,MacIntel,3.154424869,,,,,,,,,,,,,,./stim/p03_syllable_1_lakapuaisto_hit.wav,p03,lakapuaisto,hit,la-ka-puais-to,la-ka-puais-to,la-ka-pu-ais-to,la-ka-pua-is-to,-0.335038534,-0.108909705,1,0,1,1.7931,text_option_1,,0,89,89,17,1,
5ec81ba6c71d2b0f9add5de5,63f3cfca20052e4ae7554ebf,6453cd91af80da1c6dc12532,2023-05-04_17h22.45.784,ga_syllabified_check,2022.2.5,MacIntel,3.154424869,,,,,,,,,,,,,,./stim/p04_syllable_1_lakakiaisto_hit.wav,p04,lakakiaisto,hit,la-ka-kiais-to,la-ka-kiais-to,la-ka-ki-ais-to,la-ka-kia-is-to,-0.333962317,-0.103768903,1,0,1,2.1248,text_option_1,,0,90,90,48,1,
5ec81ba6c71d2b0f9add5de5,63f3cfca20052e4ae7554ebf,6453cd91af80da1c6dc12532,2023-05-04_17h22.45.784,ga_syllabified_check,2022.2.5,MacIntel,3.154424869,,,,,,,,,,,,,,./stim/p06_syllable_1_pachialo_hit.wav,p06,pachialo,hit,pa-shi-a-lo,pa-chia-lo,pa-chi-a-lo, ,0.347950646,-0.099313765,1,0,1,6.4254,text_option_2,,0,91,91,126,1,
5ec81ba6c71d2b0f9add5de5,63f3cfca20052e4ae7554ebf,6453cd91af80da1c6dc12532,2023-05-04_17h22.45.784,ga_syllabified_check,2022.2.5,MacIntel,3.154424869,,,,,,,,,,,,,,./stim/p05_syllable_1_lakatuaisto_hit.wav,p05,lakatuaisto,hit,la-ka-tais-to,la-ka-tuais-to,la-ka-tu-ais-to,la-ka-tua-is-to,-0.04715105,-0.108132453,1,0,1,10.4365,text_option_3,,0,92,92,87,1,
5ec81ba6c71d2b0f9add5de5,63f3cfca20052e4ae7554ebf,6453cd91af80da1c6dc12532,2023-05-04_17h22.45.784,ga_syllabified_check,2022.2.5,MacIntel,3.154424869,,,,,,,,,,,,,,./stim/p08_syllable_1_lakapiaisto_hit.wav,p08,lakapiaisto,hit,la-ka-pi-as-to,la-ka-piais-to,la-ka-pi-ais-to,la-ka-pia-is-to,-0.367834901,-0.101501893,1,0,1,7.2904,text_option_1,,0,93,93,186,1,
5ec81ba6c71d2b0f9add5de5,63f3cfca20052e4ae7554ebf,6453cd91af80da1c6dc12532,2023-05-04_17h22.45.784,ga_syllabified_check,2022.2.5,MacIntel,3.154424869,,,,,,,,,,,,,,./stim/p05_syllable_1_lakakuaisto_hit.wav,p05,lakakuaisto,hit,la-ka-kais-to,la-ka-kuais-to,la-ka-ku-ais-to,la-ka-kua-is-to,-0.33082875,-0.107582851,1,0,1,2.2824,text_option_1,,0,94,94,83,1,
5ec81ba6c71d2b0f9add5de5,63f3cfca20052e4ae7554ebf,6453cd91af80da1c6dc12532,2023-05-04_17h22.45.784,ga_syllabified_check,2022.2.5,MacIntel,3.154424869,,,,,,,,,,,,,,./stim/p05_syllable_1_lakapuaisto_hit.wav,p05,lakapuaisto,hit,la-ka-pais-to,la-ka-puais-to,la-ka-pu-ais-to,la-ka-pua-is-to,0.03435544,-0.102799479,1,0,1,2.276,text_option_3,,0,95,95,85,1,
5ec81ba6c71d2b0f9add5de5,63f3cfca20052e4ae7554ebf,6453cd91af80da1c6dc12532,2023-05-04_17h22.45.784,ga_syllabified_check,2022.2.5,MacIntel,3.154424869,,,,,,,,,,,,,,./stim/p06_syllable_1_costonhialo_hit.wav,p06,costoñialo,hit,cos-to-nhia-lo,cos-to-ñia-lo,cos-to-ñi-a-lo, ,0.320413868,-0.100063248,1,0,1,6.2105,text_option_2,,0,96,96,103,1,
5ec81ba6c71d2b0f9add5de5,63f3cfca20052e4ae7554ebf,6453cd91af80da1c6dc12532,2023-05-04_17h22.45.784,ga_syllabified_check,2022.2.5,MacIntel,3.154424869,,,,,,,,,,,,,,./stim/p07_syllable_1_lakadiaisto_hit.wav,p07,lakadiaisto,hit,la-ka-dia-is-to,la-ka-diais-to,la-ka-di-ais-to,la-ka-dia-is-to,-0.347599712,-0.108213976,1,0,1,2.0255,text_option_1,,0,97,97,144,1,
5ec81ba6c71d2b0f9add5de5,63f3cfca20052e4ae7554ebf,6453cd91af80da1c6dc12532,2023-05-04_17h22.45.784,ga_syllabified_check,2022.2.5,MacIntel,3.154424869,,,,,,,,,,,,,,./stim/p04_syllable_1_nhiape_hit.wav,p04,ñiape,hit,nhia-pe,ñia-pe,ñi-a-pe, ,-0.354379826,-0.098061866,1,0,1,11.3841,text_option_1,,0,98,98,57,1,
5ec81ba6c71d2b0f9add5de5,63f3cfca20052e4ae7554ebf,6453cd91af80da1c6dc12532,2023-05-04_17h22.45.784,ga_syllabified_check,2022.2.5,MacIntel,3.154424869,,,,,,,,,,,,,,./stim/p05_syllable_1_lakatiaisto_hit.wav,p05,lakatiaisto,hit,la-ka-ti-ais-to,la-ka-tiais-to,la-ka-ti-ais-to,la-ka-tia-is-to,-0.349148506,-0.103419182,1,0,0,15.1803,text_option_1,,0,99,99,86,1,
5ec81ba6c71d2b0f9add5de5,63f3cfca20052e4ae7554ebf,6453cd91af80da1c6dc12532,2023-05-04_17h22.45.784,ga_syllabified_check,2022.2.5,MacIntel,3.154424869,,,,,,,,,,,,,,./stim/p04_syllable_1_ruyiola_hit.wav,p04,ruyiola,hit,ru-yio-la,ru-yio-la,ru-yi-o-la, ,-0.397759689,-0.104584133,1,0,0,10.4627,text_option_1,,0,100,100,66,1,
5ec81ba6c71d2b0f9add5de5,63f3cfca20052e4ae7554ebf,6453cd91af80da1c6dc12532,2023-05-04_17h22.45.784,ga_syllabified_check,2022.2.5,MacIntel,3.154424869,,,,,,,,,,,,,,./stim/p03_syllable_1_lakakuaisto_hit.wav,p03,lakakuaisto,hit,la-ka-kuais-to,la-ka-kuais-to,la-ka-ku-ais-to,la-ka-kua-is-to,-0.359810527,-0.10318939,1,0,0,2.5003,text_option_1,,0,101,101,15,1,
5ec81ba6c71d2b0f9add5de5,63f3cfca20052e4ae7554ebf,6453cd91af80da1c6dc12532,2023-05-04_17h22.45.784,ga_syllabified_check,2022.2.5,MacIntel,3.154424869,,,,,,,,,,,,,,./stim/p07_syllable_1_lakaduaisto_hit.wav,p07,lakaduaisto,hit,la-ka-duais-to,la-ka-duais-to,la-ka-du-ais-to,la-ka-dua-is-to,-0.401765094,-0.102998504,1,0,0,7.3073,text_option_1,,0,102,102,145,1,
5ec81ba6c71d2b0f9add5de5,63f3cfca20052e4ae7554ebf,6453cd91af80da1c6dc12532,2023-05-04_17h22.45.784,ga_syllabified_check,2022.2.5,MacIntel,3.154424869,,,,,,,,,,,,,,./stim/p07_syllable_1_palufauto_hit.wav,p07,palufauto,hit,pa-lu-fau-to,pa-lu-fau-to,pa-lu-fa-u-to, ,-0.370958973,-0.104746394,1,0,0,2.2586,text_option_1,,0,103,103,162,1,
5ec81ba6c71d2b0f9add5de5,63f3cfca20052e4ae7554ebf,6453cd91af80da1c6dc12532,2023-05-04_17h22.45.784,ga_syllabified_check,2022.2.5,MacIntel,3.154424869,,,,,,,,,,,,,,./stim/p05_syllable_1_lakafuaisto_hit.wav,p05,lakafuaisto,hit,la-ka-fais-to,la-ka-fuais-to,la-ka-fu-ais-to,la-ka-fua-is-to,-0.36313912,-0.105874937,1,0,0,1.5168,text_option_1,,0,104,104,79,1,
5ec81ba6c71d2b0f9add5de5,63f3cfca20052e4ae7554ebf,6453cd91af80da1c6dc12532,2023-05-04_17h22.45.784,ga_syllabified_check,2022.2.5,MacIntel,3.154424869,,,,,,,,,,,,,,./stim/p03_syllable_1_paluguato_hit.wav,p03,paluguato,hit,pa-lu-gua,pa-lu-gua-to,pa-lu-gu-a-to, ,-0.365190116,-0.112561392,1,0,0,1.7442,text_option_1,,0,105,105,27,1,
5ec81ba6c71d2b0f9add5de5,63f3cfca20052e4ae7554ebf,6453cd91af80da1c6dc12532,2023-05-04_17h22.45.784,ga_syllabified_check,2022.2.5,MacIntel,3.154424869,,,,,,,,,,,,,,./stim/p03_syllable_1_lakabiaisto_hit.wav,p03,lakabiaisto,hit,la-ka-biais-to,la-ka-biais-to,la-ka-bi-ais-to,la-ka-bia-is-to,-0.354792009,-0.10205021,1,0,0,6.1351,text_option_1,,0,106,106,6,1,
5ec81ba6c71d2b0f9add5de5,63f3cfca20052e4ae7554ebf,6453cd91af80da1c6dc12532,2023-05-04_17h22.45.784,ga_syllabified_check,2022.2.5,MacIntel,3.154424869,,,,,,,,,,,,,,./stim/p08_syllable_1_lakagiaisto_hit.wav,p08,lakagiaisto,hit,la-ka-gi-jas-to,la-ka-giais-to,la-ka-gi-ais-to,la-ka-gia-is-to,0.361917061,-0.105620945,1,0,0,7.1411,text_option_2,,0,107,107,182,1,
5ec81ba6c71d2b0f9add5de5,63f3cfca20052e4ae7554ebf,6453cd91af80da1c6dc12532,2023-05-04_17h22.45.784,ga_syllabified_check,2022.2.5,MacIntel,3.154424869,,,,,,,,,,,,,,./stim/p03_syllable_1_manhiala_hit.wav,p03,mañiala,hit,ma-nhia-la,ma-ñia-la,ma-ñi-a-la, ,-0.352562549,-0.10659094,1,0,0,3.7864,text_option_1,,0,108,108,21,1,
5ec81ba6c71d2b0f9add5de5,63f3cfca20052e4ae7554ebf,6453cd91af80da1c6dc12532,2023-05-04_17h22.45.784,ga_syllabified_check,2022.2.5,MacIntel,3.154424869,,,,,,,,,,,,,,./stim/p04_syllable_1_pachialo_hit.wav,p04,pachialo,hit,pa-chia-lo,pa-chia-lo,pa-chi-a-lo, ,-0.361352039,-0.10576486,1,0,0,7.9744,text_option_1,,0,109,109,58,1,
5ec81ba6c71d2b0f9add5de5,63f3cfca20052e4ae7554ebf,6453cd91af80da1c6dc12532,2023-05-04_17h22.45.784,ga_syllabified_check,2022.2.5,MacIntel,3.154424869,,,,,,,,,,,,,,./stim/p06_syllable_1_falutraigo_hit.wav,p06,falutraigo,hit,fa-lu-tra-i-go,fa-lu-trai-go,fa-lu-tra-i-go, ,-0.367371962,-0.104321789,1,0,0,3.9501,text_option_1,,0,110,110,106,1,
5ec81ba6c71d2b0f9add5de5,63f3cfca20052e4ae7554ebf,6453cd91af80da1c6dc12532,2023-05-04_17h22.45.784,ga_syllabified_check,2022.2.5,MacIntel,3.154424869,,,,,,,,,,,,,,./stim/p06_syllable_1_nhiape_hit.wav,p06,ñiape,hit,nhi-a-pe,ñia-pe,ñi-a-pe, ,0.366516756,-0.108714393,1,0,0,4.8818,text_option_2,,0,111,111,125,1,
5ec81ba6c71d2b0f9add5de5,63f3cfca20052e4ae7554ebf,6453cd91af80da1c6dc12532,2023-05-04_17h22.45.784,ga_syllabified_check,2022.2.5,MacIntel,3.154424869,,,,,,,,,,,,,,./stim/p03_syllable_1_ruyiola_hit.wav,p03,ruyiola,hit,ru-yio-la,ru-yio-la,ru-yi-o-la, ,0.381304253,-0.112035776,1,0,0,2.0862,text_option_2,,0,112,112,32,1,
5ec81ba6c71d2b0f9add5de5,63f3cfca20052e4ae7554ebf,6453cd91af80da1c6dc12532,2023-05-04_17h22.45.784,ga_syllabified_check,2022.2.5,MacIntel,3.154424869,,,,,,,,,,,,,,./stim/p07_syllable_1_pachialo_hit.wav,p07,pachialo,hit,pa-cha-lo,pa-chia-lo,pa-chi-a-lo, ,-0.365132221,-0.096934679,1,0,0,4.1425,text_option_1,,0,113,113,160,1,
5ec81ba6c71d2b0f9add5de5,63f3cfca20052e4ae7554ebf,6453cd91af80da1c6dc12532,2023-05-04_17h22.45.784,ga_syllabified_check,2022.2.5,MacIntel,3.154424869,,,,,,,,,,,,,,./stim/p07_syllable_1_manhiala_hit.wav,p07,mañiala,hit,ma-nhia-la,ma-ñia-la,ma-ñi-a-la, ,0.373532301,-0.106420042,1,0,0,2.8191,text_option_2,,0,114,114,157,1,
5ec81ba6c71d2b0f9add5de5,63f3cfca20052e4ae7554ebf,6453cd91af80da1c6dc12532,2023-05-04_17h22.45.784,ga_syllabified_check,2022.2.5,MacIntel,3.154424869,,,,,,,,,,,,,,./stim/p07_syllable_1_lakatuaisto_hit.wav,p07,lakatuaisto,hit,la-ka-tuais-to,la-ka-tuais-to,la-ka-tu-ais-to,la-ka-tua-is-to,-0.363198228,-0.107827777,1,0,0,3.5422,text_option_1,,0,115,115,155,1,
5ec81ba6c71d2b0f9add5de5,63f3cfca20052e4ae7554ebf,6453cd91af80da1c6dc12532,2023-05-04_17h22.45.784,ga_syllabified_check,2022.2.5,MacIntel,3.154424869,,,,,,,,,,,,,,./stim/p07_syllable_1_palufauro_hit.wav,p07,palufauro,hit,pa-lu-fau-ro,pa-lu-fau-ro,pa-lu-fa-u-ro, ,-0.361525079,-0.107586991,1,0,0,4.7725,text_option_1,,0,116,116,161,1,
5ec81ba6c71d2b0f9add5de5,63f3cfca20052e4ae7554ebf,6453cd91af80da1c6dc12532,2023-05-04_17h22.45.784,ga_syllabified_check,2022.2.5,MacIntel,3.154424869,,,,,,,,,,,,,,./stim/p07_syllable_1_rausto_hit.wav,p07,rausto,hit,raus-to,raus-to,ra-us-to, ,-0.364032232,-0.109638272,1,0,0,1.2428,text_option_1,,0,117,117,167,1,
5ec81ba6c71d2b0f9add5de5,63f3cfca20052e4ae7554ebf,6453cd91af80da1c6dc12532,2023-05-04_17h22.45.784,ga_syllabified_check,2022.2.5,MacIntel,3.154424869,,,,,,,,,,,,,,./stim/p07_syllable_1_falufaisto_hit.wav,p07,falufaisto,hit,fa-lu-fais-to,fa-lu-fais-to,fa-lu-fa-is-to, ,-0.369879971,-0.106346443,1,0,0,9.9548,text_option_1,,0,118,118,139,1,
5ec81ba6c71d2b0f9add5de5,63f3cfca20052e4ae7554ebf,6453cd91af80da1c6dc12532,2023-05-04_17h22.45.784,ga_syllabified_check,2022.2.5,MacIntel,3.154424869,,,,,,,,,,,,,,./stim/p06_syllable_1_lakadiaisto_hit.wav,p06,lakadiaisto,hit,la-ka-dia-is-to,la-ka-diais-to,la-ka-di-ais-to,la-ka-dia-is-to,0.00767551,-0.106660113,1,0,0,2.9972,text_option_3,,0,119,119,110,1,
5ec81ba6c71d2b0f9add5de5,63f3cfca20052e4ae7554ebf,6453cd91af80da1c6dc12532,2023-05-04_17h22.45.784,ga_syllabified_check,2022.2.5,MacIntel,3.154424869,,,,,,,,,,,,,,./stim/p03_syllable_1_lakaguaisto_hit.wav,p03,lakaguaisto,hit,la-ka-guais-to,la-ka-guais-to,la-ka-gu-ais-to,la-ka-gua-is-to,-0.319768609,-0.10473383,1,0,0,3.0164,text_option_1,,0,120,120,13,1,
5ec81ba6c71d2b0f9add5de5,63f3cfca20052e4ae7554ebf,6453cd91af80da1c6dc12532,2023-05-04_17h22.45.784,ga_syllabified_check,2022.2.5,MacIntel,3.154424869,,,,,,,,,,,,,,./stim/p08_syllable_1_palufauto_hit.wav,p08,palufauto,hit,pa-lu-fau-to,pa-lu-fau-to,pa-lu-fa-u-to, ,-0.363602773,-0.108341614,1,0,0,2.7184,text_option_1,,0,121,121,196,1,
5ec81ba6c71d2b0f9add5de5,63f3cfca20052e4ae7554ebf,6453cd91af80da1c6dc12532,2023-05-04_17h22.45.784,ga_syllabified_check,2022.2.5,MacIntel,3.154424869,,,,,,,,,,,,,,./stim/p03_syllable_1_lakagiaisto_hit.wav,p03,lakagiaisto,hit,la-ka-giais-to,la-ka-giais-to,la-ka-gi-ais-to,la-ka-gia-is-to,-0.36428651,-0.10811375,1,0,0,1.2385,text_option_1,,0,122,122,12,1,
5ec81ba6c71d2b0f9add5de5,63f3cfca20052e4ae7554ebf,6453cd91af80da1c6dc12532,2023-05-04_17h22.45.784,ga_syllabified_check,2022.2.5,MacIntel,3.154424869,,,,,,,,,,,,,,./stim/p06_syllable_1_lakabiaisto_hit.wav,p06,lakabiaisto,hit,la-ka-bia-is-to,la-ka-biais-to,la-ka-bi-ais-to,la-ka-bia-is-to,0.007998104,-0.105838959,1,0,0,3.5137,text_option_3,,0,123,123,108,1,
5ec81ba6c71d2b0f9add5de5,63f3cfca20052e4ae7554ebf,6453cd91af80da1c6dc12532,2023-05-04_17h22.45.784,ga_syllabified_check,2022.2.5,MacIntel,3.154424869,,,,,,,,,,,,,,./stim/p03_syllable_1_lakatiaisto_hit.wav,p03,lakatiaisto,hit,la-ka-tiais-to,la-ka-tiais-to,la-ka-ti-ais-to,la-ka-tia-is-to,-0.371270359,-0.105847382,1,0,0,2.259,text_option_1,,0,124,124,18,1,
5ec81ba6c71d2b0f9add5de5,63f3cfca20052e4ae7554ebf,6453cd91af80da1c6dc12532,2023-05-04_17h22.45.784,ga_syllabified_check,2022.2.5,MacIntel,3.154424869,,,,,,,,,,,,,,./stim/p07_syllable_1_nhiape_hit.wav,p07,ñiape,hit,nhia-pe,ñia-pe,ñi-a-pe, ,-0.382203755,-0.111789779,1,0,0,1.0195,text_option_1,,0,125,125,159,1,
5ec81ba6c71d2b0f9add5de5,63f3cfca20052e4ae7554ebf,6453cd91af80da1c6dc12532,2023-05-04_17h22.45.784,ga_syllabified_check,2022.2.5,MacIntel,3.154424869,,,,,,,,,,,,,,./stim/p03_syllable_1_lakadiaisto_hit.wav,p03,lakadiaisto,hit,la-ka-diais-to,la-ka-diais-to,la-ka-di-ais-to,la-ka-dia-is-to,-0.376668508,-0.107349133,1,0,0,1.4805,text_option_1,,0,126,126,8,1,
5ec81ba6c71d2b0f9add5de5,63f3cfca20052e4ae7554ebf,6453cd91af80da1c6dc12532,2023-05-04_17h22.45.784,ga_syllabified_check,2022.2.5,MacIntel,3.154424869,,,,,,,,,,,,,,./stim/p04_syllable_1_faluduako_hit.wav,p04,faluduako,hit,fa-lu-dua-ko,fa-lu-dua-ko,fa-lu-du-a-ko, ,-0.374123378,-0.106057614,1,0,0,2.4895,text_option_1,,0,127,127,36,1,
5ec81ba6c71d2b0f9add5de5,63f3cfca20052e4ae7554ebf,6453cd91af80da1c6dc12532,2023-05-04_17h22.45.784,ga_syllabified_check,2022.2.5,MacIntel,3.154424869,,,,,,,,,,,,,,./stim/p08_syllable_1_lakafuaisto_hit.wav,p08,lakafuaisto,hit,la-ka-fju-ais-to,la-ka-fuais-to,la-ka-fu-ais-to,la-ka-fua-is-to,-0.003780111,-0.112928174,1,0,0,5.035,text_option_3,,0,128,128,181,1,
5ec81ba6c71d2b0f9add5de5,63f3cfca20052e4ae7554ebf,6453cd91af80da1c6dc12532,2023-05-04_17h22.45.784,ga_syllabified_check,2022.2.5,MacIntel,3.154424869,,,,,,,,,,,,,,./stim/p07_syllable_1_lakagiaisto_hit.wav,p07,lakagiaisto,hit,la-ka-gais-to,la-ka-giais-to,la-ka-gi-ais-to,la-ka-gia-is-to,-0.364142667,-0.099393932,1,0,0,6.2897,text_option_1,,0,129,129,148,1,
5ec81ba6c71d2b0f9add5de5,63f3cfca20052e4ae7554ebf,6453cd91af80da1c6dc12532,2023-05-04_17h22.45.784,ga_syllabified_check,2022.2.5,MacIntel,3.154424869,,,,,,,,,,,,,,./stim/p04_syllable_1_lakabuaisto_hit.wav,p04,lakabuaisto,hit,la-ka-buais-to,la-ka-buais-to,la-ka-bu-ais-to,la-ka-bua-is-to,-0.362023212,-0.105554413,1,0,0,6.9815,text_option_1,,0,130,130,41,1,
5ec81ba6c71d2b0f9add5de5,63f3cfca20052e4ae7554ebf,6453cd91af80da1c6dc12532,2023-05-04_17h22.45.784,ga_syllabified_check,2022.2.5,MacIntel,3.154424869,,,,,,,,,,,,,,./stim/p08_syllable_1_tuliafo_hit.wav,p08,tuliafo,hit,tu-li-a-fo,tu-lia-fo,tu-li-a-fo, ,0.389199847,-0.103430104,1,0,0,3.0186,text_option_2,,0,131,131,203,1,
5ec81ba6c71d2b0f9add5de5,63f3cfca20052e4ae7554ebf,6453cd91af80da1c6dc12532,2023-05-04_17h22.45.784,ga_syllabified_check,2022.2.5,MacIntel,3.154424869,,,,,,,,,,,,,,./stim/p04_syllable_1_lakaduaisto_hit.wav,p04,lakaduaisto,hit,la-ka-duais-to,la-ka-duais-to,la-ka-du-ais-to,la-ka-dua-is-to,-0.320448419,-0.103968499,1,0,0,1.7962,text_option_1,,0,132,132,43,1,
5ec81ba6c71d2b0f9add5de5,63f3cfca20052e4ae7554ebf,6453cd91af80da1c6dc12532,2023-05-04_17h22.45.784,ga_syllabified_check,2022.2.5,MacIntel,3.154424869,,,,,,,,,,,,,,./stim/p08_syllable_1_nhiape_hit.wav,p08,ñiape,hit,ni-a-pe,ñia-pe,ñi-a-pe, ,0.379998886,-0.105938399,1,0,0,1.7791,text_option_2,,0,133,133,193,1,
5ec81ba6c71d2b0f9add5de5,63f3cfca20052e4ae7554ebf,6453cd91af80da1c6dc12532,2023-05-04_17h22.45.784,ga_syllabified_check,2022.2.5,MacIntel,3.154424869,,,,,,,,,,,,,,./stim/p05_syllable_1_palufauro_hit.wav,p05,palufauro,hit,pa-lu-fau-ro,pa-lu-fau-ro,pa-lu-fa-u-ro, ,-0.360905376,-0.113766319,1,0,0,3.0325,text_option_1,,0,134,134,93,1,
5ec81ba6c71d2b0f9add5de5,63f3cfca20052e4ae7554ebf,6453cd91af80da1c6dc12532,2023-05-04_17h22.45.784,ga_syllabified_check,2022.2.5,MacIntel,3.154424869,,,,,,,,,,,,,,./stim/p05_syllable_1_falufaisto_hit.wav,p05,falufaisto,hit,fa-lu-fais-to,fa-lu-fais-to,fa-lu-fa-is-to, ,-0.339659931,-0.105374949,1,0,0,9.1966,text_option_1,,0,135,135,71,1,
5ec81ba6c71d2b0f9add5de5,63f3cfca20052e4ae7554ebf,6453cd91af80da1c6dc12532,2023-05-04_17h22.45.784,ga_syllabified_check,2022.2.5,MacIntel,3.154424869,,,,,,,,,,,,,,./stim/p08_syllable_1_palutrauco_hit.wav,p08,palutrauco,hit,pa-lu-trau-ko,pa-lu-trau-co,pa-lu-tra-u-co, ,-0.347767113,-0.110803794,1,0,0,5.9682,text_option_1,,0,136,136,199,1,
5ec81ba6c71d2b0f9add5de5,63f3cfca20052e4ae7554ebf,6453cd91af80da1c6dc12532,2023-05-04_17h22.45.784,ga_syllabified_check,2022.2.5,MacIntel,3.154424869,,,,,,,,,,,,,,./stim/p05_syllable_1_palumaisto_hit.wav,p05,palumaisto,hit,pa-lu-mais-to,pa-lu-mais-to,pa-lu-ma-is-to, ,-0.354057446,-0.105961957,1,0,0,4.2291,text_option_1,,0,137,137,96,1,
5ec81ba6c71d2b0f9add5de5,63f3cfca20052e4ae7554ebf,6453cd91af80da1c6dc12532,2023-05-04_17h22.45.784,ga_syllabified_check,2022.2.5,MacIntel,3.154424869,,,,,,,,,,,,,,./stim/p03_syllable_1_payielo_hit.wav,p03,payielo,hit,pa-yie-lo,pa-yie-lo,pa-yi-e-lo, ,-0.362381356,-0.106613355,1,0,0,1.5607,text_option_1,,0,138,138,30,1,
5ec81ba6c71d2b0f9add5de5,63f3cfca20052e4ae7554ebf,6453cd91af80da1c6dc12532,2023-05-04_17h22.45.784,ga_syllabified_check,2022.2.5,MacIntel,3.154424869,,,,,,,,,,,,,,./stim/p06_syllable_1_lakabuaisto_hit.wav,p06,lakabuaisto,hit,la-ka-bu-a-is,la-ka-buais-to,la-ka-bu-ais-to,la-ka-bua-is-to,0.299600523,-0.105720243,1,0,0,4.1692,text_option_2,,0,139,139,109,1,
5ec81ba6c71d2b0f9add5de5,63f3cfca20052e4ae7554ebf,6453cd91af80da1c6dc12532,2023-05-04_17h22.45.784,ga_syllabified_check,2022.2.5,MacIntel,3.154424869,,,,,,,,,,,,,,./stim/p04_syllable_1_lakadiaisto_hit.wav,p04,lakadiaisto,hit,la-ka-dias-to,la-ka-diais-to,la-ka-di-ais-to,la-ka-dia-is-to,-0.323483116,-0.106099304,1,0,0,5.867,text_option_1,,0,140,140,42,1,
5ec81ba6c71d2b0f9add5de5,63f3cfca20052e4ae7554ebf,6453cd91af80da1c6dc12532,2023-05-04_17h22.45.784,ga_syllabified_check,2022.2.5,MacIntel,3.154424869,,,,,,,,,,,,,,./stim/p03_syllable_1_lakapiaisto_hit.wav,p03,lakapiaisto,hit,la-ka-piais-to,la-ka-piais-to,la-ka-pi-ais-to,la-ka-pia-is-to,-0.327801764,-0.106213379,1,0,0,7.3384,text_option_1,,0,141,141,16,1,
5ec81ba6c71d2b0f9add5de5,63f3cfca20052e4ae7554ebf,6453cd91af80da1c6dc12532,2023-05-04_17h22.45.784,ga_syllabified_check,2022.2.5,MacIntel,3.154424869,,,,,,,,,,,,,,./stim/p08_syllable_1_ruyiola_hit.wav,p08,ruyiola,hit,ru-yio-la,ru-yio-la,ru-yi-o-la, ,0.362778977,-0.1067794,1,0,0,9.8344,text_option_2,,0,142,142,202,1,
5ec81ba6c71d2b0f9add5de5,63f3cfca20052e4ae7554ebf,6453cd91af80da1c6dc12532,2023-05-04_17h22.45.784,ga_syllabified_check,2022.2.5,MacIntel,3.154424869,,,,,,,,,,,,,,./stim/p06_syllable_1_ruyiola_hit.wav,p06,ruyiola,hit,ru-yi-o-la,ru-yio-la,ru-yi-o-la, ,0.380325978,-0.112116942,1,0,0,8.0465,text_option_2,,0,143,143,134,1,
5ec81ba6c71d2b0f9add5de5,63f3cfca20052e4ae7554ebf,6453cd91af80da1c6dc12532,2023-05-04_17h22.45.784,ga_syllabified_check,2022.2.5,MacIntel,3.154424869,,,,,,,,,,,,,,./stim/p08_syllable_1_chiaba_hit.wav,p08,chiaba,hit,chi-a-ba,chia-ba,chi-a-ba, ,0.377046213,-0.102691115,1,0,0,1.7371,text_option_2,,0,144,144,170,1,
5ec81ba6c71d2b0f9add5de5,63f3cfca20052e4ae7554ebf,6453cd91af80da1c6dc12532,2023-05-04_17h22.45.784,ga_syllabified_check,2022.2.5,MacIntel,3.154424869,,,,,,,,,,,,,,./stim/p08_syllable_1_palufauro_hit.wav,p08,palufauro,hit,pa-lu-fau-ro,pa-lu-fau-ro,pa-lu-fa-u-ro, ,-0.371816035,-0.101409948,1,0,0,4.9829,text_option_1,,0,145,145,195,1,
5ec81ba6c71d2b0f9add5de5,63f3cfca20052e4ae7554ebf,6453cd91af80da1c6dc12532,2023-05-04_17h22.45.784,ga_syllabified_check,2022.2.5,MacIntel,3.154424869,,,,,,,,,,,,,,./stim/p05_syllable_1_lakabuaisto_hit.wav,p05,lakabuaisto,hit,la-ka-buais-to,la-ka-buais-to,la-ka-bu-ais-to,la-ka-bua-is-to,-0.009754417,-0.111567554,1,0,0,3.7788,text_option_3,,0,146,146,75,1,
5ec81ba6c71d2b0f9add5de5,63f3cfca20052e4ae7554ebf,6453cd91af80da1c6dc12532,2023-05-04_17h22.45.784,ga_syllabified_check,2022.2.5,MacIntel,3.154424869,,,,,,,,,,,,,,./stim/p03_syllable_1_falufaisto_hit.wav,p03,falufaisto,hit,fa-lu-fais-to,fa-lu-fais-to,fa-lu-fa-is-to, ,-0.402024154,-0.096392215,1,0,0,3.0534,text_option_1,,0,147,147,3,1,
5ec81ba6c71d2b0f9add5de5,63f3cfca20052e4ae7554ebf,6453cd91af80da1c6dc12532,2023-05-04_17h22.45.784,ga_syllabified_check,2022.2.5,MacIntel,3.154424869,,,,,,,,,,,,,,./stim/p04_syllable_1_lakafiaisto_hit.wav,p04,lakafiaisto,hit,la-ka-fiais-to,la-ka-fiais-to,la-ka-fi-ais-to,la-ka-fia-is-to,-0.382996569,-0.107957557,1,0,0,9.8746,text_option_1,,0,148,148,44,1,
5ec81ba6c71d2b0f9add5de5,63f3cfca20052e4ae7554ebf,6453cd91af80da1c6dc12532,2023-05-04_17h22.45.784,ga_syllabified_check,2022.2.5,MacIntel,3.154424869,,,,,,,,,,,,,,./stim/p07_syllable_1_palutrauco_hit.wav,p07,palutrauco,hit,pa-lu-trau-co,pa-lu-trau-co,pa-lu-tra-u-co, ,-0.369119923,-0.10473847,1,0,0,8.2315,text_option_1,,0,149,149,165,1,
5ec81ba6c71d2b0f9add5de5,63f3cfca20052e4ae7554ebf,6453cd91af80da1c6dc12532,2023-05-04_17h22.45.784,ga_syllabified_check,2022.2.5,MacIntel,3.154424869,,,,,,,,,,,,,,./stim/p05_syllable_1_palufauto_hit.wav,p05,palufauto,hit,pa-lu-fau-to,pa-lu-fau-to,pa-lu-fa-u-to, ,-0.372078807,-0.106734426,1,0,0,18.9298,text_option_1,,0,150,150,94,1,
5ec81ba6c71d2b0f9add5de5,63f3cfca20052e4ae7554ebf,6453cd91af80da1c6dc12532,2023-05-04_17h22.45.784,ga_syllabified_check,2022.2.5,MacIntel,3.154424869,,,,,,,,,,,,,,./stim/p05_syllable_1_lakafiaisto_hit.wav,p05,lakafiaisto,hit,la-ka-fi-ais-to,la-ka-fiais-to,la-ka-fi-ais-to,la-ka-fia-is-to,-0.372850634,-0.106658472,1,0,0,1.2436,text_option_1,,0,151,151,78,1,
5ec81ba6c71d2b0f9add5de5,63f3cfca20052e4ae7554ebf,6453cd91af80da1c6dc12532,2023-05-04_17h22.45.784,ga_syllabified_check,2022.2.5,MacIntel,3.154424869,,,,,,,,,,,,,,./stim/p07_syllable_1_lakabiaisto_hit.wav,p07,lakabiaisto,hit,la-ka-bais-to,la-ka-biais-to,la-ka-bi-ais-to,la-ka-bia-is-to,-0.102229247,-0.105320695,1,0,0,0.4889,text_option_3,,0,152,152,142,1,
5ec81ba6c71d2b0f9add5de5,63f3cfca20052e4ae7554ebf,6453cd91af80da1c6dc12532,2023-05-04_17h22.45.784,ga_syllabified_check,2022.2.5,MacIntel,3.154424869,,,,,,,,,,,,,,./stim/p07_syllable_1_lliape_hit.wav,p07,lliape,hit,lliai-pe,llia-pe,lli-a-pe, ,0.072536892,-0.298634597,1,0,0,5.3385,text_option_other,,0,153,153,156,1,203
