participant,study,session,date,expName,psychopyVersion,OS,frameRate,mouse_practice.x,mouse_practice.y,mouse_practice.leftButton,mouse_practice.midButton,mouse_practice.rightButton,mouse_practice.time,mouse_practice.clicked_name,textbox_followup_practice.text,trials_practice.thisRepN,trials_practice.thisTrialN,trials_practice.thisN,trials_practice.thisIndex,trials_practice.ran,file_path,id,item,status,response,op1,op2,op3,mouse.x,mouse.y,mouse.leftButton,mouse.midButton,mouse.rightButton,mouse.time,mouse.clicked_name,textbox_followup.text,trials.thisRepN,trials.thisTrialN,trials.thisN,trials.thisIndex,trials.ran
5ecee03e0e92803029b7ad82,63f3cfca20052e4ae7554ebf,6453ce14af80da1c6dc1254d,2023-05-04_17h25.11.678,ga_syllabified_check,2022.2.5,Win32,59.95203837,,,,,,,,,,,,,,,,,,,,,,,,,,,,,,,,,,
5ecee03e0e92803029b7ad82,63f3cfca20052e4ae7554ebf,6453ce14af80da1c6dc1254d,2023-05-04_17h25.11.678,ga_syllabified_check,2022.2.5,Win32,59.95203837,-0.396990741,-0.099537037,1,0,0,1.985,text_option_1_practice,,0,0,0,0,1,./stim/p03_syllable_1_liamo_hit.wav,p03,liamo,hit,lia-mo,lia-mo,li-a-mo, ,,,,,,,,,,,,,
5ecee03e0e92803029b7ad82,63f3cfca20052e4ae7554ebf,6453ce14af80da1c6dc1254d,2023-05-04_17h25.11.678,ga_syllabified_check,2022.2.5,Win32,59.95203837,-0.392361111,-0.087962963,1,0,0,2.298,text_option_1_practice,,0,1,1,1,1,./stim/p05_syllable_1_matio_hit.wav,p05,matio,hit,ma-tio,ma-tio,ma-ti-o, ,,,,,,,,,,,,,
5ecee03e0e92803029b7ad82,63f3cfca20052e4ae7554ebf,6453ce14af80da1c6dc1254d,2023-05-04_17h25.11.678,ga_syllabified_check,2022.2.5,Win32,59.95203837,0.390046296,-0.100694444,1,0,0,2.084,text_option_2_practice,,0,2,2,2,1,./stim/p08_syllable_1_liamo_hit.wav,p08,liamo,hit,ja-mo,lia-mo,li-a-mo, ,,,,,,,,,,,,,
5ecee03e0e92803029b7ad82,63f3cfca20052e4ae7554ebf,6453ce14af80da1c6dc1254d,2023-05-04_17h25.11.678,ga_syllabified_check,2022.2.5,Win32,59.95203837,,,,,,,,,,,,,,,,,,,,,,,,,,,,,,,,,,
5ecee03e0e92803029b7ad82,63f3cfca20052e4ae7554ebf,6453ce14af80da1c6dc1254d,2023-05-04_17h25.11.678,ga_syllabified_check,2022.2.5,Win32,59.95203837,,,,,,,,,,,,,,./stim/p04_syllable_1_faluduako_hit.wav,p04,faluduako,hit,fa-lu-dua-ko,fa-lu-dua-ko,fa-lu-du-a-ko, ,0.358796296,-0.114583333,1,0,0,2.05,text_option_2,,0,0,0,36,1
5ecee03e0e92803029b7ad82,63f3cfca20052e4ae7554ebf,6453ce14af80da1c6dc1254d,2023-05-04_17h25.11.678,ga_syllabified_check,2022.2.5,Win32,59.95203837,,,,,,,,,,,,,,./stim/p05_syllable_1_lakatiaisto_hit.wav,p05,lakatiaisto,hit,la-ka-ti-ais-to,la-ka-tiais-to,la-ka-ti-ais-to,la-ka-tia-is-to,-0.368055556,-0.103009259,1,0,0,3.438,text_option_1,,0,1,1,86,1
5ecee03e0e92803029b7ad82,63f3cfca20052e4ae7554ebf,6453ce14af80da1c6dc1254d,2023-05-04_17h25.11.678,ga_syllabified_check,2022.2.5,Win32,59.95203837,,,,,,,,,,,,,,./stim/p05_syllable_1_payielo_hit.wav,p05,payielo,hit,pai-yu-we-lo,pa-yie-lo,pa-yi-e-lo, ,-0.436342593,-0.104166667,1,0,0,1.5,text_option_1,,0,2,2,98,1
5ecee03e0e92803029b7ad82,63f3cfca20052e4ae7554ebf,6453ce14af80da1c6dc1254d,2023-05-04_17h25.11.678,ga_syllabified_check,2022.2.5,Win32,59.95203837,,,,,,,,,,,,,,./stim/p03_syllable_1_pachialo_hit.wav,p03,pachialo,hit,pa-chia-lo,pa-chia-lo,pa-chi-a-lo, ,-0.361111111,-0.104166667,1,0,0,2.266,text_option_1,,0,3,3,24,1
5ecee03e0e92803029b7ad82,63f3cfca20052e4ae7554ebf,6453ce14af80da1c6dc1254d,2023-05-04_17h25.11.678,ga_syllabified_check,2022.2.5,Win32,59.95203837,,,,,,,,,,,,,,./stim/p03_syllable_1_lakaguaisto_hit.wav,p03,lakaguaisto,hit,la-ka-guais-to,la-ka-guais-to,la-ka-gu-ais-to,la-ka-gua-is-to,-0.336805556,-0.116898148,1,0,0,4.25,text_option_1,,0,4,4,13,1
5ecee03e0e92803029b7ad82,63f3cfca20052e4ae7554ebf,6453ce14af80da1c6dc1254d,2023-05-04_17h25.11.678,ga_syllabified_check,2022.2.5,Win32,59.95203837,,,,,,,,,,,,,,./stim/p08_syllable_1_lakaduaisto_hit.wav,p08,lakaduaisto,hit,la-ka-du-ais-to,la-ka-duais-to,la-ka-du-ais-to,la-ka-dua-is-to,0.425925926,-0.090277778,1,0,0,6.349,text_option_2,,0,5,5,179,1
5ecee03e0e92803029b7ad82,63f3cfca20052e4ae7554ebf,6453ce14af80da1c6dc1254d,2023-05-04_17h25.11.678,ga_syllabified_check,2022.2.5,Win32,59.95203837,,,,,,,,,,,,,,./stim/p05_syllable_1_paluguato_hit.wav,p05,paluguato,hit,pa-lu-gau-to,pa-lu-gua-to,pa-lu-gu-a-to, ,0.424768519,-0.105324074,1,0,0,2.567,text_option_2,,0,6,6,95,1
5ecee03e0e92803029b7ad82,63f3cfca20052e4ae7554ebf,6453ce14af80da1c6dc1254d,2023-05-04_17h25.11.678,ga_syllabified_check,2022.2.5,Win32,59.95203837,,,,,,,,,,,,,,./stim/p07_syllable_1_chiaba_hit.wav,p07,chiaba,hit,chia-ba,chia-ba,chi-a-ba, ,-0.405092593,-0.097222222,1,0,0,1.269,text_option_1,,0,7,7,136,1
5ecee03e0e92803029b7ad82,63f3cfca20052e4ae7554ebf,6453ce14af80da1c6dc1254d,2023-05-04_17h25.11.678,ga_syllabified_check,2022.2.5,Win32,59.95203837,,,,,,,,,,,,,,./stim/p08_syllable_1_costonhialo_hit.wav,p08,costoñialo,hit,cos-to-nhia-lo,cos-to-ñia-lo,cos-to-ñi-a-lo, ,0.34837963,-0.108796296,1,0,0,5.034,text_option_2,,0,8,8,171,1
5ecee03e0e92803029b7ad82,63f3cfca20052e4ae7554ebf,6453ce14af80da1c6dc1254d,2023-05-04_17h25.11.678,ga_syllabified_check,2022.2.5,Win32,59.95203837,,,,,,,,,,,,,,./stim/p03_syllable_1_lakapuaisto_hit.wav,p03,lakapuaisto,hit,la-ka-puais-to,la-ka-puais-to,la-ka-pu-ais-to,la-ka-pua-is-to,-0.377314815,-0.106481481,1,0,0,3.416,text_option_1,,0,9,9,17,1
5ecee03e0e92803029b7ad82,63f3cfca20052e4ae7554ebf,6453ce14af80da1c6dc1254d,2023-05-04_17h25.11.678,ga_syllabified_check,2022.2.5,Win32,59.95203837,,,,,,,,,,,,,,./stim/p05_syllable_1_lakapiaisto_hit.wav,p05,lakapiaisto,hit,la-ka-pais-to,la-ka-piais-to,la-ka-pi-ais-to,la-ka-pia-is-to,-0.390046296,-0.104166667,1,0,0,3.716,text_option_1,,0,10,10,84,1
5ecee03e0e92803029b7ad82,63f3cfca20052e4ae7554ebf,6453ce14af80da1c6dc1254d,2023-05-04_17h25.11.678,ga_syllabified_check,2022.2.5,Win32,59.95203837,,,,,,,,,,,,,,./stim/p07_syllable_1_lakatuaisto_hit.wav,p07,lakatuaisto,hit,la-ka-tuais-to,la-ka-tuais-to,la-ka-tu-ais-to,la-ka-tua-is-to,-0.368055556,-0.09375,1,0,0,4.966,text_option_1,,0,11,11,155,1
5ecee03e0e92803029b7ad82,63f3cfca20052e4ae7554ebf,6453ce14af80da1c6dc1254d,2023-05-04_17h25.11.678,ga_syllabified_check,2022.2.5,Win32,59.95203837,,,,,,,,,,,,,,./stim/p04_syllable_1_lakatuaisto_hit.wav,p04,lakatuaisto,hit,la-ka-kuais-to,la-ka-tuais-to,la-ka-tu-ais-to,la-ka-tua-is-to,0.364583333,-0.094907407,1,0,0,4.9,text_option_2,,0,12,12,53,1
5ecee03e0e92803029b7ad82,63f3cfca20052e4ae7554ebf,6453ce14af80da1c6dc1254d,2023-05-04_17h25.11.678,ga_syllabified_check,2022.2.5,Win32,59.95203837,,,,,,,,,,,,,,./stim/p04_syllable_1_ruyiola_hit.wav,p04,ruyiola,hit,ru-yio-la,ru-yio-la,ru-yi-o-la, ,-0.344907407,-0.105324074,1,0,0,2.35,text_option_1,,0,13,13,66,1
5ecee03e0e92803029b7ad82,63f3cfca20052e4ae7554ebf,6453ce14af80da1c6dc1254d,2023-05-04_17h25.11.678,ga_syllabified_check,2022.2.5,Win32,59.95203837,,,,,,,,,,,,,,./stim/p07_syllable_1_falutraigo_hit.wav,p07,falutraigo,hit,fa-lu-trai-go,fa-lu-trai-go,fa-lu-tra-i-go, ,-0.336805556,-0.111111111,1,0,0,3.666,text_option_1,,0,14,14,140,1
5ecee03e0e92803029b7ad82,63f3cfca20052e4ae7554ebf,6453ce14af80da1c6dc1254d,2023-05-04_17h25.11.678,ga_syllabified_check,2022.2.5,Win32,59.95203837,,,,,,,,,,,,,,./stim/p08_syllable_1_palufauto_hit.wav,p08,palufauto,hit,pa-lu-fau-to,pa-lu-fau-to,pa-lu-fa-u-to, ,-0.375,-0.112268519,1,0,0,4.066,text_option_1,,0,15,15,196,1
5ecee03e0e92803029b7ad82,63f3cfca20052e4ae7554ebf,6453ce14af80da1c6dc1254d,2023-05-04_17h25.11.678,ga_syllabified_check,2022.2.5,Win32,59.95203837,,,,,,,,,,,,,,./stim/p06_syllable_1_palufauto_hit.wav,p06,palufauto,hit,pa-lu-fau-to,pa-lu-fau-to,pa-lu-fa-u-to, ,-0.380787037,-0.114583333,1,0,0,3.15,text_option_1,,0,16,16,128,1
5ecee03e0e92803029b7ad82,63f3cfca20052e4ae7554ebf,6453ce14af80da1c6dc1254d,2023-05-04_17h25.11.678,ga_syllabified_check,2022.2.5,Win32,59.95203837,,,,,,,,,,,,,,./stim/p07_syllable_1_faluduako_hit.wav,p07,faluduako,hit,fa-lu-dua-ko,fa-lu-dua-ko,fa-lu-du-a-ko, ,-0.349537037,-0.113425926,1,0,0,3.999,text_option_1,,0,17,17,138,1
5ecee03e0e92803029b7ad82,63f3cfca20052e4ae7554ebf,6453ce14af80da1c6dc1254d,2023-05-04_17h25.11.678,ga_syllabified_check,2022.2.5,Win32,59.95203837,,,,,,,,,,,,,,./stim/p06_syllable_1_manhiala_hit.wav,p06,mañiala,hit,ma-nhi-a-la,ma-ñia-la,ma-ñi-a-la, ,0.44212963,-0.112268519,1,0,0,2.35,text_option_2,,0,18,18,123,1
5ecee03e0e92803029b7ad82,63f3cfca20052e4ae7554ebf,6453ce14af80da1c6dc1254d,2023-05-04_17h25.11.678,ga_syllabified_check,2022.2.5,Win32,59.95203837,,,,,,,,,,,,,,./stim/p07_syllable_1_lakapiaisto_hit.wav,p07,lakapiaisto,hit,la-ka-pia-sto,la-ka-piais-to,la-ka-pi-ais-to,la-ka-pia-is-to,0.331018519,-0.096064815,1,0,0,9.151,text_option_2,,0,19,19,152,1
5ecee03e0e92803029b7ad82,63f3cfca20052e4ae7554ebf,6453ce14af80da1c6dc1254d,2023-05-04_17h25.11.678,ga_syllabified_check,2022.2.5,Win32,59.95203837,,,,,,,,,,,,,,./stim/p07_syllable_1_manhiala_hit.wav,p07,mañiala,hit,ma-nhia-la,ma-ñia-la,ma-ñi-a-la, ,-0.414351852,-0.097222222,1,0,0,3.101,text_option_1,,0,20,20,157,1
5ecee03e0e92803029b7ad82,63f3cfca20052e4ae7554ebf,6453ce14af80da1c6dc1254d,2023-05-04_17h25.11.678,ga_syllabified_check,2022.2.5,Win32,59.95203837,,,,,,,,,,,,,,./stim/p07_syllable_1_palutrauco_hit.wav,p07,palutrauco,hit,pa-lu-trau-co,pa-lu-trau-co,pa-lu-tra-u-co, ,-0.340277778,-0.099537037,1,0,0,1.966,text_option_1,,0,21,21,165,1
5ecee03e0e92803029b7ad82,63f3cfca20052e4ae7554ebf,6453ce14af80da1c6dc1254d,2023-05-04_17h25.11.678,ga_syllabified_check,2022.2.5,Win32,59.95203837,,,,,,,,,,,,,,./stim/p08_syllable_1_lakafuaisto_hit.wav,p08,lakafuaisto,hit,la-ka-fju-ais-to,la-ka-fuais-to,la-ka-fu-ais-to,la-ka-fua-is-to,0.40625,-0.118055556,1,0,0,4.849,text_option_2,,0,22,22,181,1
5ecee03e0e92803029b7ad82,63f3cfca20052e4ae7554ebf,6453ce14af80da1c6dc1254d,2023-05-04_17h25.11.678,ga_syllabified_check,2022.2.5,Win32,59.95203837,,,,,,,,,,,,,,./stim/p04_syllable_1_lakagiaisto_hit.wav,p04,lakagiaisto,hit,la-ka-giais-to,la-ka-giais-to,la-ka-gi-ais-to,la-ka-gia-is-to,-0.415509259,-0.092592593,1,0,0,2.816,text_option_1,,0,23,23,46,1
5ecee03e0e92803029b7ad82,63f3cfca20052e4ae7554ebf,6453ce14af80da1c6dc1254d,2023-05-04_17h25.11.678,ga_syllabified_check,2022.2.5,Win32,59.95203837,,,,,,,,,,,,,,./stim/p07_syllable_1_lakabiaisto_hit.wav,p07,lakabiaisto,hit,la-ka-bais-to,la-ka-biais-to,la-ka-bi-ais-to,la-ka-bia-is-to,-0.340277778,-0.101851852,1,0,0,4.084,text_option_1,,0,24,24,142,1
5ecee03e0e92803029b7ad82,63f3cfca20052e4ae7554ebf,6453ce14af80da1c6dc1254d,2023-05-04_17h25.11.678,ga_syllabified_check,2022.2.5,Win32,59.95203837,,,,,,,,,,,,,,./stim/p08_syllable_1_lliape_hit.wav,p08,lliape,hit,li-a-pe,llia-pe,lli-a-pe, ,0.386574074,-0.077546296,1,0,0,1.267,text_option_2,,0,25,25,190,1
5ecee03e0e92803029b7ad82,63f3cfca20052e4ae7554ebf,6453ce14af80da1c6dc1254d,2023-05-04_17h25.11.678,ga_syllabified_check,2022.2.5,Win32,59.95203837,,,,,,,,,,,,,,./stim/p07_syllable_1_ruyiola_hit.wav,p07,ruyiola,hit,ru-yio-la,ru-yio-la,ru-yi-o-la, ,-0.372685185,-0.090277778,1,0,0,1.434,text_option_1,,0,26,26,168,1
5ecee03e0e92803029b7ad82,63f3cfca20052e4ae7554ebf,6453ce14af80da1c6dc1254d,2023-05-04_17h25.11.678,ga_syllabified_check,2022.2.5,Win32,59.95203837,,,,,,,,,,,,,,./stim/p06_syllable_1_lakakiaisto_hit.wav,p06,lakakiaisto,hit,la-ka-kia-is-to,la-ka-kiais-to,la-ka-ki-ais-to,la-ka-kia-is-to,0.005787037,-0.105324074,1,0,0,6.082,text_option_3,,0,27,27,116,1
5ecee03e0e92803029b7ad82,63f3cfca20052e4ae7554ebf,6453ce14af80da1c6dc1254d,2023-05-04_17h25.11.678,ga_syllabified_check,2022.2.5,Win32,59.95203837,,,,,,,,,,,,,,./stim/p03_syllable_1_falutraigo_hit.wav,p03,falutraigo,hit,fa-lu-trai-go,fa-lu-trai-go,fa-lu-tra-i-go, ,-0.34375,-0.108796296,1,0,0,2.1,text_option_1,,0,28,28,4,1
5ecee03e0e92803029b7ad82,63f3cfca20052e4ae7554ebf,6453ce14af80da1c6dc1254d,2023-05-04_17h25.11.678,ga_syllabified_check,2022.2.5,Win32,59.95203837,,,,,,,,,,,,,,./stim/p07_syllable_1_pachialo_hit.wav,p07,pachialo,hit,pa-cha-lo,pa-chia-lo,pa-chi-a-lo, ,-0.394675926,-0.118055556,1,0,0,2.366,text_option_1,,0,29,29,160,1
5ecee03e0e92803029b7ad82,63f3cfca20052e4ae7554ebf,6453ce14af80da1c6dc1254d,2023-05-04_17h25.11.678,ga_syllabified_check,2022.2.5,Win32,59.95203837,,,,,,,,,,,,,,./stim/p06_syllable_1_palufauro_hit.wav,p06,palufauro,hit,pa-lu-fau-ro,pa-lu-fau-ro,pa-lu-fa-u-ro, ,0.388888889,-0.108796296,1,0,0,4.217,text_option_2,,0,30,30,127,1
5ecee03e0e92803029b7ad82,63f3cfca20052e4ae7554ebf,6453ce14af80da1c6dc1254d,2023-05-04_17h25.11.678,ga_syllabified_check,2022.2.5,Win32,59.95203837,,,,,,,,,,,,,,./stim/p06_syllable_1_rausto_hit.wav,p06,rausto,hit,ra-us-to,raus-to,ra-us-to, ,0.418981481,-0.103009259,1,0,0,2.349,text_option_2,,0,31,31,133,1
5ecee03e0e92803029b7ad82,63f3cfca20052e4ae7554ebf,6453ce14af80da1c6dc1254d,2023-05-04_17h25.11.678,ga_syllabified_check,2022.2.5,Win32,59.95203837,,,,,,,,,,,,,,./stim/p08_syllable_1_lakaguaisto_hit.wav,p08,lakaguaisto,hit,la-ka-gu-ais-to,la-ka-guais-to,la-ka-gu-ais-to,la-ka-gua-is-to,0.351851852,-0.097222222,1,0,0,5.882,text_option_2,,0,32,32,183,1
5ecee03e0e92803029b7ad82,63f3cfca20052e4ae7554ebf,6453ce14af80da1c6dc1254d,2023-05-04_17h25.11.678,ga_syllabified_check,2022.2.5,Win32,59.95203837,,,,,,,,,,,,,,./stim/p07_syllable_1_rausto_hit.wav,p07,rausto,hit,raus-to,raus-to,ra-us-to, ,-0.390046296,-0.111111111,1,0,0,1.3,text_option_1,,0,33,33,167,1
5ecee03e0e92803029b7ad82,63f3cfca20052e4ae7554ebf,6453ce14af80da1c6dc1254d,2023-05-04_17h25.11.678,ga_syllabified_check,2022.2.5,Win32,59.95203837,,,,,,,,,,,,,,./stim/p04_syllable_1_rausto_hit.wav,p04,rausto,hit,raus-to,raus-to,ra-us-to, ,-0.377314815,-0.108796296,1,0,0,0.85,text_option_1,,0,34,34,65,1
5ecee03e0e92803029b7ad82,63f3cfca20052e4ae7554ebf,6453ce14af80da1c6dc1254d,2023-05-04_17h25.11.678,ga_syllabified_check,2022.2.5,Win32,59.95203837,,,,,,,,,,,,,,./stim/p03_syllable_1_lakakiaisto_hit.wav,p03,lakakiaisto,hit,la-ka-kiais-to,la-ka-kiais-to,la-ka-ki-ais-to,la-ka-kia-is-to,-0.471064815,-0.108796296,1,0,0,4.182,text_option_1,,0,35,35,14,1
5ecee03e0e92803029b7ad82,63f3cfca20052e4ae7554ebf,6453ce14af80da1c6dc1254d,2023-05-04_17h25.11.678,ga_syllabified_check,2022.2.5,Win32,59.95203837,,,,,,,,,,,,,,./stim/p03_syllable_1_ruyiola_hit.wav,p03,ruyiola,hit,ru-yio-la,ru-yio-la,ru-yi-o-la, ,-0.354166667,-0.108796296,1,0,0,2.633,text_option_1,,0,36,36,32,1
5ecee03e0e92803029b7ad82,63f3cfca20052e4ae7554ebf,6453ce14af80da1c6dc1254d,2023-05-04_17h25.11.678,ga_syllabified_check,2022.2.5,Win32,59.95203837,,,,,,,,,,,,,,./stim/p06_syllable_1_lliape_hit.wav,p06,lliape,hit,lli-lla-pe,llia-pe,lli-a-pe, ,0.386574074,-0.105324074,1,0,0,1.366,text_option_2,,0,37,37,122,1
5ecee03e0e92803029b7ad82,63f3cfca20052e4ae7554ebf,6453ce14af80da1c6dc1254d,2023-05-04_17h25.11.678,ga_syllabified_check,2022.2.5,Win32,59.95203837,,,,,,,,,,,,,,./stim/p08_syllable_1_faluduako_hit.wav,p08,faluduako,hit,fa-lu-duai-ko,fa-lu-dua-ko,fa-lu-du-a-ko, ,0.006944444,-0.300925926,1,0,0,9.133,text_option_other,fa lu duai ko,0,38,38,172,1
5ecee03e0e92803029b7ad82,63f3cfca20052e4ae7554ebf,6453ce14af80da1c6dc1254d,2023-05-04_17h25.11.678,ga_syllabified_check,2022.2.5,Win32,59.95203837,,,,,,,,,,,,,,./stim/p06_syllable_1_lakapuaisto_hit.wav,p06,lakapuaisto,hit,la-ka-pu-a-is,la-ka-puais-to,la-ka-pu-ais-to,la-ka-pua-is-to,0.041666667,-0.105324074,1,0,0,12.949,text_option_3,,0,39,39,119,1
5ecee03e0e92803029b7ad82,63f3cfca20052e4ae7554ebf,6453ce14af80da1c6dc1254d,2023-05-04_17h25.11.678,ga_syllabified_check,2022.2.5,Win32,59.95203837,,,,,,,,,,,,,,./stim/p06_syllable_1_faluduako_hit.wav,p06,faluduako,hit,fa-lu-dua-ko,fa-lu-dua-ko,fa-lu-du-a-ko, ,0.40162037,-0.094907407,1,0,0,5.566,text_option_2,,0,40,40,104,1
5ecee03e0e92803029b7ad82,63f3cfca20052e4ae7554ebf,6453ce14af80da1c6dc1254d,2023-05-04_17h25.11.678,ga_syllabified_check,2022.2.5,Win32,59.95203837,,,,,,,,,,,,,,./stim/p04_syllable_1_lliape_hit.wav,p04,lliape,hit,lia-pe,llia-pe,lli-a-pe, ,-0.395833333,-0.114583333,1,0,0,0.866,text_option_1,,0,41,41,54,1
5ecee03e0e92803029b7ad82,63f3cfca20052e4ae7554ebf,6453ce14af80da1c6dc1254d,2023-05-04_17h25.11.678,ga_syllabified_check,2022.2.5,Win32,59.95203837,,,,,,,,,,,,,,./stim/p04_syllable_1_pachialo_hit.wav,p04,pachialo,hit,pa-chia-lo,pa-chia-lo,pa-chi-a-lo, ,-0.384259259,-0.107638889,1,0,0,2.533,text_option_1,,0,42,42,58,1
5ecee03e0e92803029b7ad82,63f3cfca20052e4ae7554ebf,6453ce14af80da1c6dc1254d,2023-05-04_17h25.11.678,ga_syllabified_check,2022.2.5,Win32,59.95203837,,,,,,,,,,,,,,./stim/p08_syllable_1_chiaba_hit.wav,p08,chiaba,hit,chi-a-ba,chia-ba,chi-a-ba, ,0.429398148,-0.090277778,1,0,0,0.917,text_option_2,,0,43,43,170,1
5ecee03e0e92803029b7ad82,63f3cfca20052e4ae7554ebf,6453ce14af80da1c6dc1254d,2023-05-04_17h25.11.678,ga_syllabified_check,2022.2.5,Win32,59.95203837,,,,,,,,,,,,,,./stim/p05_syllable_1_pachialo_hit.wav,p05,pachialo,hit,pan-chia-lo,pa-chia-lo,pa-chi-a-lo, ,-0.375,-0.083333333,1,0,0,2.432,text_option_1,,0,44,44,92,1
5ecee03e0e92803029b7ad82,63f3cfca20052e4ae7554ebf,6453ce14af80da1c6dc1254d,2023-05-04_17h25.11.678,ga_syllabified_check,2022.2.5,Win32,59.95203837,,,,,,,,,,,,,,./stim/p08_syllable_1_tuliafo_hit.wav,p08,tuliafo,hit,tu-li-a-fo,tu-lia-fo,tu-li-a-fo, ,0.395833333,-0.107638889,1,0,0,1.517,text_option_2,,0,45,45,203,1
5ecee03e0e92803029b7ad82,63f3cfca20052e4ae7554ebf,6453ce14af80da1c6dc1254d,2023-05-04_17h25.11.678,ga_syllabified_check,2022.2.5,Win32,59.95203837,,,,,,,,,,,,,,./stim/p05_syllable_1_tuliafo_hit.wav,p05,tuliafo,hit,tu-lai-fo,tu-lia-fo,tu-li-a-fo, ,-0.405092593,-0.100694444,1,0,0,1.049,text_option_1,,0,46,46,101,1
5ecee03e0e92803029b7ad82,63f3cfca20052e4ae7554ebf,6453ce14af80da1c6dc1254d,2023-05-04_17h25.11.678,ga_syllabified_check,2022.2.5,Win32,59.95203837,,,,,,,,,,,,,,./stim/p04_syllable_1_lakadiaisto_hit.wav,p04,lakadiaisto,hit,la-ka-dias-to,la-ka-diais-to,la-ka-di-ais-to,la-ka-dia-is-to,-0.361111111,-0.090277778,1,0,0,1.267,text_option_1,,0,47,47,42,1
5ecee03e0e92803029b7ad82,63f3cfca20052e4ae7554ebf,6453ce14af80da1c6dc1254d,2023-05-04_17h25.11.678,ga_syllabified_check,2022.2.5,Win32,59.95203837,,,,,,,,,,,,,,./stim/p03_syllable_1_lakapiaisto_hit.wav,p03,lakapiaisto,hit,la-ka-piais-to,la-ka-piais-to,la-ka-pi-ais-to,la-ka-pia-is-to,-0.354166667,-0.112268519,1,0,0,2.333,text_option_1,,0,48,48,16,1
5ecee03e0e92803029b7ad82,63f3cfca20052e4ae7554ebf,6453ce14af80da1c6dc1254d,2023-05-04_17h25.11.678,ga_syllabified_check,2022.2.5,Win32,59.95203837,,,,,,,,,,,,,,./stim/p07_syllable_1_lakakiaisto_hit.wav,p07,lakakiaisto,hit,la-ka-kais-to,la-ka-kiais-to,la-ka-ki-ais-to,la-ka-kia-is-to,-0.334490741,-0.105324074,1,0,0,8.648,text_option_1,,0,49,49,150,1
5ecee03e0e92803029b7ad82,63f3cfca20052e4ae7554ebf,6453ce14af80da1c6dc1254d,2023-05-04_17h25.11.678,ga_syllabified_check,2022.2.5,Win32,59.95203837,,,,,,,,,,,,,,./stim/p05_syllable_1_palufauto_hit.wav,p05,palufauto,hit,pa-lu-fau-to,pa-lu-fau-to,pa-lu-fa-u-to, ,-0.366898148,-0.103009259,1,0,0,1.899,text_option_1,,0,50,50,94,1
5ecee03e0e92803029b7ad82,63f3cfca20052e4ae7554ebf,6453ce14af80da1c6dc1254d,2023-05-04_17h25.11.678,ga_syllabified_check,2022.2.5,Win32,59.95203837,,,,,,,,,,,,,,./stim/p03_syllable_1_lakatuaisto_hit.wav,p03,lakatuaisto,hit,la-ka-tuais-to,la-ka-tuais-to,la-ka-tu-ais-to,la-ka-tua-is-to,-0.349537037,-0.094907407,1,0,0,3.6,text_option_1,,0,51,51,19,1
5ecee03e0e92803029b7ad82,63f3cfca20052e4ae7554ebf,6453ce14af80da1c6dc1254d,2023-05-04_17h25.11.678,ga_syllabified_check,2022.2.5,Win32,59.95203837,,,,,,,,,,,,,,./stim/p07_syllable_1_falufaisto_hit.wav,p07,falufaisto,hit,fa-lu-fais-to,fa-lu-fais-to,fa-lu-fa-is-to, ,-0.363425926,-0.104166667,1,0,0,2.882,text_option_1,,0,52,52,139,1
5ecee03e0e92803029b7ad82,63f3cfca20052e4ae7554ebf,6453ce14af80da1c6dc1254d,2023-05-04_17h25.11.678,ga_syllabified_check,2022.2.5,Win32,59.95203837,,,,,,,,,,,,,,./stim/p06_syllable_1_ruyiola_hit.wav,p06,ruyiola,hit,ru-yi-o-la,ru-yio-la,ru-yi-o-la, ,0.436342593,-0.09837963,1,0,0,1.683,text_option_2,,0,53,53,134,1
5ecee03e0e92803029b7ad82,63f3cfca20052e4ae7554ebf,6453ce14af80da1c6dc1254d,2023-05-04_17h25.11.678,ga_syllabified_check,2022.2.5,Win32,59.95203837,,,,,,,,,,,,,,./stim/p04_syllable_1_manhiala_hit.wav,p04,mañiala,hit,ma-nhia-la,ma-ñia-la,ma-ñi-a-la, ,-0.335648148,-0.105324074,1,0,0,1.9,text_option_1,,0,54,54,55,1
5ecee03e0e92803029b7ad82,63f3cfca20052e4ae7554ebf,6453ce14af80da1c6dc1254d,2023-05-04_17h25.11.678,ga_syllabified_check,2022.2.5,Win32,59.95203837,,,,,,,,,,,,,,./stim/p04_syllable_1_lakaduaisto_hit.wav,p04,lakaduaisto,hit,la-ka-duais-to,la-ka-duais-to,la-ka-du-ais-to,la-ka-dua-is-to,-0.333333333,-0.104166667,1,0,0,0.916,text_option_1,,0,55,55,43,1
5ecee03e0e92803029b7ad82,63f3cfca20052e4ae7554ebf,6453ce14af80da1c6dc1254d,2023-05-04_17h25.11.678,ga_syllabified_check,2022.2.5,Win32,59.95203837,,,,,,,,,,,,,,./stim/p06_syllable_1_falufaisto_hit.wav,p06,falufaisto,hit,fa-lu-fa-is-to,fa-lu-fais-to,fa-lu-fa-is-to, ,0.383101852,-0.103009259,1,0,0,2.883,text_option_2,,0,56,56,105,1
5ecee03e0e92803029b7ad82,63f3cfca20052e4ae7554ebf,6453ce14af80da1c6dc1254d,2023-05-04_17h25.11.678,ga_syllabified_check,2022.2.5,Win32,59.95203837,,,,,,,,,,,,,,./stim/p05_syllable_1_lakatuaisto_hit.wav,p05,lakatuaisto,hit,la-ka-tais-to,la-ka-tuais-to,la-ka-tu-ais-to,la-ka-tua-is-to,-0.047453704,-0.302083333,1,0,0,3.783,text_option_other,la ka tais to,0,57,57,87,1
5ecee03e0e92803029b7ad82,63f3cfca20052e4ae7554ebf,6453ce14af80da1c6dc1254d,2023-05-04_17h25.11.678,ga_syllabified_check,2022.2.5,Win32,59.95203837,,,,,,,,,,,,,,./stim/p04_syllable_1_costonhialo_hit.wav,p04,costoñialo,hit,cos-to-nhia-lo,cos-to-ñia-lo,cos-to-ñi-a-lo, ,-0.353009259,-0.116898148,1,0,0,2.016,text_option_1,,0,58,58,35,1
5ecee03e0e92803029b7ad82,63f3cfca20052e4ae7554ebf,6453ce14af80da1c6dc1254d,2023-05-04_17h25.11.678,ga_syllabified_check,2022.2.5,Win32,59.95203837,,,,,,,,,,,,,,./stim/p08_syllable_1_lakapiaisto_hit.wav,p08,lakapiaisto,hit,la-ka-pi-as-to,la-ka-piais-to,la-ka-pi-ais-to,la-ka-pia-is-to,0.40162037,-0.108796296,1,0,0,7.085,text_option_2,,0,59,59,186,1
5ecee03e0e92803029b7ad82,63f3cfca20052e4ae7554ebf,6453ce14af80da1c6dc1254d,2023-05-04_17h25.11.678,ga_syllabified_check,2022.2.5,Win32,59.95203837,,,,,,,,,,,,,,./stim/p07_syllable_1_costonhialo_hit.wav,p07,costoñialo,hit,cos-to-nhia-lo,cos-to-ñia-lo,cos-to-ñi-a-lo, ,-0.395833333,-0.096064815,1,0,0,3.283,text_option_1,,0,60,60,137,1
5ecee03e0e92803029b7ad82,63f3cfca20052e4ae7554ebf,6453ce14af80da1c6dc1254d,2023-05-04_17h25.11.678,ga_syllabified_check,2022.2.5,Win32,59.95203837,,,,,,,,,,,,,,./stim/p04_syllable_1_falutraigo_hit.wav,p04,falutraigo,hit,fa-lu-trai-go,fa-lu-trai-go,fa-lu-tra-i-go, ,-0.341435185,-0.109953704,1,0,0,3.167,text_option_1,,0,61,61,38,1
5ecee03e0e92803029b7ad82,63f3cfca20052e4ae7554ebf,6453ce14af80da1c6dc1254d,2023-05-04_17h25.11.678,ga_syllabified_check,2022.2.5,Win32,59.95203837,,,,,,,,,,,,,,./stim/p05_syllable_1_lakaguaisto_hit.wav,p05,lakaguaisto,hit,la-ka-gais,la-ka-guais-to,la-ka-gu-ais-to,la-ka-gua-is-to,-0.400462963,-0.103009259,1,0,0,1.999,text_option_1,,0,62,62,81,1
5ecee03e0e92803029b7ad82,63f3cfca20052e4ae7554ebf,6453ce14af80da1c6dc1254d,2023-05-04_17h25.11.678,ga_syllabified_check,2022.2.5,Win32,59.95203837,,,,,,,,,,,,,,./stim/p05_syllable_1_faluduako_hit.wav,p05,faluduako,hit,fa-lu-ba-ko,fa-lu-dua-ko,fa-lu-du-a-ko, ,-0.351851852,-0.12037037,1,0,0,2.05,text_option_1,,0,63,63,70,1
5ecee03e0e92803029b7ad82,63f3cfca20052e4ae7554ebf,6453ce14af80da1c6dc1254d,2023-05-04_17h25.11.678,ga_syllabified_check,2022.2.5,Win32,59.95203837,,,,,,,,,,,,,,./stim/p05_syllable_1_costonhialo_hit.wav,p05,costoñialo,hit,cos-to-nhia-lo,cos-to-ñia-lo,cos-to-ñi-a-lo, ,-0.357638889,-0.107638889,1,0,0,3.883,text_option_1,,0,64,64,69,1
5ecee03e0e92803029b7ad82,63f3cfca20052e4ae7554ebf,6453ce14af80da1c6dc1254d,2023-05-04_17h25.11.678,ga_syllabified_check,2022.2.5,Win32,59.95203837,,,,,,,,,,,,,,./stim/p03_syllable_1_lakabuaisto_hit.wav,p03,lakabuaisto,hit,la-ka-buais-to,la-ka-buais-to,la-ka-bu-ais-to,la-ka-bua-is-to,-0.371527778,-0.107638889,1,0,0,3.499,text_option_1,,0,65,65,7,1
5ecee03e0e92803029b7ad82,63f3cfca20052e4ae7554ebf,6453ce14af80da1c6dc1254d,2023-05-04_17h25.11.678,ga_syllabified_check,2022.2.5,Win32,59.95203837,,,,,,,,,,,,,,./stim/p07_syllable_1_palumaisto_hit.wav,p07,palumaisto,hit,pa-lu-mais-to,pa-lu-mais-to,pa-lu-ma-is-to, ,-0.349537037,-0.101851852,1,0,0,3.3,text_option_1,,0,66,66,164,1
5ecee03e0e92803029b7ad82,63f3cfca20052e4ae7554ebf,6453ce14af80da1c6dc1254d,2023-05-04_17h25.11.678,ga_syllabified_check,2022.2.5,Win32,59.95203837,,,,,,,,,,,,,,./stim/p04_syllable_1_flauro_hit.wav,p04,flauro,hit,flau-ro,flau-ro,fla-u-ro, ,-0.385416667,-0.092592593,1,0,0,0.849,text_option_1,,0,67,67,39,1
5ecee03e0e92803029b7ad82,63f3cfca20052e4ae7554ebf,6453ce14af80da1c6dc1254d,2023-05-04_17h25.11.678,ga_syllabified_check,2022.2.5,Win32,59.95203837,,,,,,,,,,,,,,./stim/p03_syllable_1_nhiape_hit.wav,p03,ñiape,hit,nhia-pe,ñia-pe,ñi-a-pe, ,-0.427083333,-0.091435185,1,0,0,1.034,text_option_1,,0,68,68,23,1
5ecee03e0e92803029b7ad82,63f3cfca20052e4ae7554ebf,6453ce14af80da1c6dc1254d,2023-05-04_17h25.11.678,ga_syllabified_check,2022.2.5,Win32,59.95203837,,,,,,,,,,,,,,./stim/p07_syllable_1_lliape_hit.wav,p07,lliape,hit,lliai-pe,llia-pe,lli-a-pe, ,-0.413194444,-0.09375,1,0,0,1.7,text_option_1,,0,69,69,156,1
5ecee03e0e92803029b7ad82,63f3cfca20052e4ae7554ebf,6453ce14af80da1c6dc1254d,2023-05-04_17h25.11.678,ga_syllabified_check,2022.2.5,Win32,59.95203837,,,,,,,,,,,,,,./stim/p05_syllable_1_lakakuaisto_hit.wav,p05,lakakuaisto,hit,la-ka-kais-to,la-ka-kuais-to,la-ka-ku-ais-to,la-ka-kua-is-to,-0.349537037,-0.106481481,1,0,0,3.45,text_option_1,,0,70,70,83,1
5ecee03e0e92803029b7ad82,63f3cfca20052e4ae7554ebf,6453ce14af80da1c6dc1254d,2023-05-04_17h25.11.678,ga_syllabified_check,2022.2.5,Win32,59.95203837,,,,,,,,,,,,,,./stim/p05_syllable_1_falutraigo_hit.wav,p05,falutraigo,hit,fa-lu-trai-go,fa-lu-trai-go,fa-lu-tra-i-go, ,0.381944444,-0.091435185,1,0,0,3.883,text_option_2,,0,71,71,72,1
5ecee03e0e92803029b7ad82,63f3cfca20052e4ae7554ebf,6453ce14af80da1c6dc1254d,2023-05-04_17h25.11.678,ga_syllabified_check,2022.2.5,Win32,59.95203837,,,,,,,,,,,,,,./stim/p03_syllable_1_lakafuaisto_hit.wav,p03,lakafuaisto,hit,la-ka-fuais-to,la-ka-fuais-to,la-ka-fu-ais-to,la-ka-fua-is-to,-0.356481481,-0.107638889,1,0,0,3.033,text_option_1,,0,72,72,11,1
5ecee03e0e92803029b7ad82,63f3cfca20052e4ae7554ebf,6453ce14af80da1c6dc1254d,2023-05-04_17h25.11.678,ga_syllabified_check,2022.2.5,Win32,59.95203837,,,,,,,,,,,,,,./stim/p03_syllable_1_lakatiaisto_hit.wav,p03,lakatiaisto,hit,la-ka-tiais-to,la-ka-tiais-to,la-ka-ti-ais-to,la-ka-tia-is-to,-0.354166667,-0.090277778,1,0,0,1.683,text_option_1,,0,73,73,18,1
5ecee03e0e92803029b7ad82,63f3cfca20052e4ae7554ebf,6453ce14af80da1c6dc1254d,2023-05-04_17h25.11.678,ga_syllabified_check,2022.2.5,Win32,59.95203837,,,,,,,,,,,,,,./stim/p03_syllable_1_rausto_hit.wav,p03,rausto,hit,raus-to,raus-to,ra-us-to, ,-0.412037037,-0.081018519,1,0,0,0.684,text_option_1,,0,74,74,31,1
5ecee03e0e92803029b7ad82,63f3cfca20052e4ae7554ebf,6453ce14af80da1c6dc1254d,2023-05-04_17h25.11.678,ga_syllabified_check,2022.2.5,Win32,59.95203837,,,,,,,,,,,,,,./stim/p08_syllable_1_pachialo_hit.wav,p08,pachialo,hit,pa-chi-ja-lo,pa-chia-lo,pa-chi-a-lo, ,0.466435185,-0.101851852,1,0,0,1.249,text_option_2,,0,75,75,194,1
5ecee03e0e92803029b7ad82,63f3cfca20052e4ae7554ebf,6453ce14af80da1c6dc1254d,2023-05-04_17h25.11.678,ga_syllabified_check,2022.2.5,Win32,59.95203837,,,,,,,,,,,,,,./stim/p03_syllable_1_chiaba_hit.wav,p03,chiaba,hit,chia-ba,chia-ba,chi-a-ba, ,-0.364583333,-0.090277778,1,0,0,0.584,text_option_1,,0,76,76,0,1
5ecee03e0e92803029b7ad82,63f3cfca20052e4ae7554ebf,6453ce14af80da1c6dc1254d,2023-05-04_17h25.11.678,ga_syllabified_check,2022.2.5,Win32,59.95203837,,,,,,,,,,,,,,./stim/p07_syllable_1_lakaduaisto_hit.wav,p07,lakaduaisto,hit,la-ka-duais-to,la-ka-duais-to,la-ka-du-ais-to,la-ka-dua-is-to,-0.342592593,-0.104166667,1,0,0,2.316,text_option_1,,0,77,77,145,1
5ecee03e0e92803029b7ad82,63f3cfca20052e4ae7554ebf,6453ce14af80da1c6dc1254d,2023-05-04_17h25.11.678,ga_syllabified_check,2022.2.5,Win32,59.95203837,,,,,,,,,,,,,,./stim/p03_syllable_1_flauro_hit.wav,p03,flauro,hit,flau-ro,flau-ro,fla-u-ro, ,-0.371527778,-0.099537037,1,0,0,0.665,text_option_1,,0,78,78,5,1
5ecee03e0e92803029b7ad82,63f3cfca20052e4ae7554ebf,6453ce14af80da1c6dc1254d,2023-05-04_17h25.11.678,ga_syllabified_check,2022.2.5,Win32,59.95203837,,,,,,,,,,,,,,./stim/p05_syllable_1_ruyiola_hit.wav,p05,ruyiola,hit,ru-yio-la,ru-yio-la,ru-yi-o-la, ,0.409722222,-0.09375,1,0,0,4.465,text_option_2,,0,79,79,100,1
5ecee03e0e92803029b7ad82,63f3cfca20052e4ae7554ebf,6453ce14af80da1c6dc1254d,2023-05-04_17h25.11.678,ga_syllabified_check,2022.2.5,Win32,59.95203837,,,,,,,,,,,,,,./stim/p03_syllable_1_costonhialo_hit.wav,p03,costoñialo,hit,cos-to-nhia-lo,cos-to-ñia-lo,cos-to-ñi-a-lo, ,-0.324074074,-0.099537037,1,0,0,1.416,text_option_1,,0,80,80,1,1
5ecee03e0e92803029b7ad82,63f3cfca20052e4ae7554ebf,6453ce14af80da1c6dc1254d,2023-05-04_17h25.11.678,ga_syllabified_check,2022.2.5,Win32,59.95203837,,,,,,,,,,,,,,./stim/p07_syllable_1_paluguato_hit.wav,p07,paluguato,hit,pa-lu-gua-to,pa-lu-gua-to,pa-lu-gu-a-to, ,-0.346064815,-0.096064815,1,0,0,1.516,text_option_1,,0,81,81,163,1
5ecee03e0e92803029b7ad82,63f3cfca20052e4ae7554ebf,6453ce14af80da1c6dc1254d,2023-05-04_17h25.11.678,ga_syllabified_check,2022.2.5,Win32,59.95203837,,,,,,,,,,,,,,./stim/p03_syllable_1_mebochiana_hit.wav,p03,mebochiana,hit,me-bo-chia-na,me-bo-chia-na,me-bo-chi-a-na, ,-0.335648148,-0.090277778,1,0,0,2.083,text_option_1,,0,82,82,22,1
5ecee03e0e92803029b7ad82,63f3cfca20052e4ae7554ebf,6453ce14af80da1c6dc1254d,2023-05-04_17h25.11.678,ga_syllabified_check,2022.2.5,Win32,59.95203837,,,,,,,,,,,,,,./stim/p03_syllable_1_payielo_hit.wav,p03,payielo,hit,pa-yie-lo,pa-yie-lo,pa-yi-e-lo, ,-0.337962963,-0.113425926,1,0,0,0.916,text_option_1,,0,83,83,30,1
5ecee03e0e92803029b7ad82,63f3cfca20052e4ae7554ebf,6453ce14af80da1c6dc1254d,2023-05-04_17h25.11.678,ga_syllabified_check,2022.2.5,Win32,59.95203837,,,,,,,,,,,,,,./stim/p06_syllable_1_lakakuaisto_hit.wav,p06,lakakuaisto,hit,la-ka-ku-a-is,la-ka-kuais-to,la-ka-ku-ais-to,la-ka-kua-is-to,0.048611111,-0.099537037,1,0,0,10.083,text_option_3,,0,84,84,117,1
5ecee03e0e92803029b7ad82,63f3cfca20052e4ae7554ebf,6453ce14af80da1c6dc1254d,2023-05-04_17h25.11.678,ga_syllabified_check,2022.2.5,Win32,59.95203837,,,,,,,,,,,,,,./stim/p05_syllable_1_palumaisto_hit.wav,p05,palumaisto,hit,pa-lu-mais-to,pa-lu-mais-to,pa-lu-ma-is-to, ,0.409722222,-0.104166667,1,0,0,2.834,text_option_2,,0,85,85,96,1
5ecee03e0e92803029b7ad82,63f3cfca20052e4ae7554ebf,6453ce14af80da1c6dc1254d,2023-05-04_17h25.11.678,ga_syllabified_check,2022.2.5,Win32,59.95203837,,,,,,,,,,,,,,./stim/p06_syllable_1_falutraigo_hit.wav,p06,falutraigo,hit,fa-lu-tra-i-go,fa-lu-trai-go,fa-lu-tra-i-go, ,0.413194444,-0.106481481,1,0,0,3.983,text_option_2,,0,86,86,106,1
5ecee03e0e92803029b7ad82,63f3cfca20052e4ae7554ebf,6453ce14af80da1c6dc1254d,2023-05-04_17h25.11.678,ga_syllabified_check,2022.2.5,Win32,59.95203837,,,,,,,,,,,,,,./stim/p08_syllable_1_lakakiaisto_hit.wav,p08,lakakiaisto,hit,la-ka-ki-jas-to,la-ka-kiais-to,la-ka-ki-ais-to,la-ka-kia-is-to,0.385416667,-0.100694444,1,0,0,5.283,text_option_2,,0,87,87,184,1
5ecee03e0e92803029b7ad82,63f3cfca20052e4ae7554ebf,6453ce14af80da1c6dc1254d,2023-05-04_17h25.11.678,ga_syllabified_check,2022.2.5,Win32,59.95203837,,,,,,,,,,,,,,./stim/p06_syllable_1_lakabiaisto_hit.wav,p06,lakabiaisto,hit,la-ka-bia-is-to,la-ka-biais-to,la-ka-bi-ais-to,la-ka-bia-is-to,0.047453704,-0.105324074,1,0,0,3.85,text_option_3,,0,88,88,108,1
5ecee03e0e92803029b7ad82,63f3cfca20052e4ae7554ebf,6453ce14af80da1c6dc1254d,2023-05-04_17h25.11.678,ga_syllabified_check,2022.2.5,Win32,59.95203837,,,,,,,,,,,,,,./stim/p06_syllable_1_tuliafo_hit.wav,p06,tuliafo,hit,tu-li-a-fo,tu-lia-fo,tu-li-a-fo, ,0.400462963,-0.104166667,1,0,0,1.55,text_option_2,,0,89,89,135,1
5ecee03e0e92803029b7ad82,63f3cfca20052e4ae7554ebf,6453ce14af80da1c6dc1254d,2023-05-04_17h25.11.678,ga_syllabified_check,2022.2.5,Win32,59.95203837,,,,,,,,,,,,,,./stim/p08_syllable_1_lakafiaisto_hit.wav,p08,lakafiaisto,hit,la-ka-fi-as-to,la-ka-fiais-to,la-ka-fi-ais-to,la-ka-fia-is-to,0.377314815,-0.111111111,1,0,0,3.816,text_option_2,,0,90,90,180,1
5ecee03e0e92803029b7ad82,63f3cfca20052e4ae7554ebf,6453ce14af80da1c6dc1254d,2023-05-04_17h25.11.678,ga_syllabified_check,2022.2.5,Win32,59.95203837,,,,,,,,,,,,,,./stim/p06_syllable_1_mebochiana_hit.wav,p06,mebochiana,hit,me-bo-shi-a-na,me-bo-chia-na,me-bo-chi-a-na, ,0.412037037,-0.108796296,1,0,0,3.617,text_option_2,,0,91,91,124,1
5ecee03e0e92803029b7ad82,63f3cfca20052e4ae7554ebf,6453ce14af80da1c6dc1254d,2023-05-04_17h25.11.678,ga_syllabified_check,2022.2.5,Win32,59.95203837,,,,,,,,,,,,,,./stim/p04_syllable_1_paluguato_hit.wav,p04,paluguato,hit,pa-lu-gua,pa-lu-gua-to,pa-lu-gu-a-to, ,-0.418981481,-0.113425926,1,0,0,2.05,text_option_1,,0,92,92,61,1
5ecee03e0e92803029b7ad82,63f3cfca20052e4ae7554ebf,6453ce14af80da1c6dc1254d,2023-05-04_17h25.11.678,ga_syllabified_check,2022.2.5,Win32,59.95203837,,,,,,,,,,,,,,./stim/p06_syllable_1_payielo_hit.wav,p06,payielo,hit,pa-yi-e-lo,pa-yie-lo,pa-yi-e-lo, ,0.369212963,-0.104166667,1,0,0,1.667,text_option_2,,0,93,93,132,1
5ecee03e0e92803029b7ad82,63f3cfca20052e4ae7554ebf,6453ce14af80da1c6dc1254d,2023-05-04_17h25.11.678,ga_syllabified_check,2022.2.5,Win32,59.95203837,,,,,,,,,,,,,,./stim/p07_syllable_1_lakabuaisto_hit.wav,p07,lakabuaisto,hit,la-ka-buais-to,la-ka-buais-to,la-ka-bu-ais-to,la-ka-bua-is-to,-0.349537037,-0.103009259,1,0,0,2.283,text_option_1,,0,94,94,143,1
5ecee03e0e92803029b7ad82,63f3cfca20052e4ae7554ebf,6453ce14af80da1c6dc1254d,2023-05-04_17h25.11.678,ga_syllabified_check,2022.2.5,Win32,59.95203837,,,,,,,,,,,,,,./stim/p05_syllable_1_palutrauco_hit.wav,p05,palutrauco,hit,pa-lu-trai-co,pa-lu-trau-co,pa-lu-tra-u-co, ,-0.366898148,-0.092592593,1,0,0,2.267,text_option_1,,0,95,95,97,1
5ecee03e0e92803029b7ad82,63f3cfca20052e4ae7554ebf,6453ce14af80da1c6dc1254d,2023-05-04_17h25.11.678,ga_syllabified_check,2022.2.5,Win32,59.95203837,,,,,,,,,,,,,,./stim/p05_syllable_1_lliape_hit.wav,p05,lliape,hit,liai-pe,llia-pe,lli-a-pe, ,-0.395833333,-0.105324074,1,0,0,0.449,text_option_1,,0,96,96,88,1
5ecee03e0e92803029b7ad82,63f3cfca20052e4ae7554ebf,6453ce14af80da1c6dc1254d,2023-05-04_17h25.11.678,ga_syllabified_check,2022.2.5,Win32,59.95203837,,,,,,,,,,,,,,./stim/p06_syllable_1_palutrauco_hit.wav,p06,palutrauco,hit,pa-lu-tra-u-co,pa-lu-trau-co,pa-lu-tra-u-co, ,0.363425926,-0.109953704,1,0,0,2.666,text_option_2,,0,97,97,131,1
5ecee03e0e92803029b7ad82,63f3cfca20052e4ae7554ebf,6453ce14af80da1c6dc1254d,2023-05-04_17h25.11.678,ga_syllabified_check,2022.2.5,Win32,59.95203837,,,,,,,,,,,,,,./stim/p07_syllable_1_lakafuaisto_hit.wav,p07,lakafuaisto,hit,la-ka-fuais-to,la-ka-fuais-to,la-ka-fu-ais-to,la-ka-fua-is-to,-0.371527778,-0.104166667,1,0,0,50.927,text_option_1,,0,98,98,147,1
5ecee03e0e92803029b7ad82,63f3cfca20052e4ae7554ebf,6453ce14af80da1c6dc1254d,2023-05-04_17h25.11.678,ga_syllabified_check,2022.2.5,Win32,59.95203837,,,,,,,,,,,,,,./stim/p04_syllable_1_lakabiaisto_hit.wav,p04,lakabiaisto,hit,la-ka-biais-to,la-ka-biais-to,la-ka-bi-ais-to,la-ka-bia-is-to,-0.418981481,-0.108796296,1,0,0,4.248,text_option_1,,0,99,99,40,1
5ecee03e0e92803029b7ad82,63f3cfca20052e4ae7554ebf,6453ce14af80da1c6dc1254d,2023-05-04_17h25.11.678,ga_syllabified_check,2022.2.5,Win32,59.95203837,,,,,,,,,,,,,,./stim/p03_syllable_1_paluguato_hit.wav,p03,paluguato,hit,pa-lu-gua,pa-lu-gua-to,pa-lu-gu-a-to, ,-0.335648148,-0.113425926,1,0,0,1.583,text_option_1,,0,100,100,27,1
5ecee03e0e92803029b7ad82,63f3cfca20052e4ae7554ebf,6453ce14af80da1c6dc1254d,2023-05-04_17h25.11.678,ga_syllabified_check,2022.2.5,Win32,59.95203837,,,,,,,,,,,,,,./stim/p03_syllable_1_lakafiaisto_hit.wav,p03,lakafiaisto,hit,la-ka-fiais-to,la-ka-fiais-to,la-ka-fi-ais-to,la-ka-fia-is-to,-0.358796296,-0.090277778,1,0,0,1.417,text_option_1,,0,101,101,10,1
5ecee03e0e92803029b7ad82,63f3cfca20052e4ae7554ebf,6453ce14af80da1c6dc1254d,2023-05-04_17h25.11.678,ga_syllabified_check,2022.2.5,Win32,59.95203837,,,,,,,,,,,,,,./stim/p07_syllable_1_lakaguaisto_hit.wav,p07,lakaguaisto,hit,la-ka-guais-to,la-ka-guais-to,la-ka-gu-ais-to,la-ka-gua-is-to,-0.362268519,-0.09375,1,0,0,1.967,text_option_1,,0,102,102,149,1
5ecee03e0e92803029b7ad82,63f3cfca20052e4ae7554ebf,6453ce14af80da1c6dc1254d,2023-05-04_17h25.11.678,ga_syllabified_check,2022.2.5,Win32,59.95203837,,,,,,,,,,,,,,./stim/p03_syllable_1_lakadiaisto_hit.wav,p03,lakadiaisto,hit,la-ka-diais-to,la-ka-diais-to,la-ka-di-ais-to,la-ka-dia-is-to,-0.384259259,-0.100694444,1,0,0,2.003,text_option_1,,0,103,103,8,1
5ecee03e0e92803029b7ad82,63f3cfca20052e4ae7554ebf,6453ce14af80da1c6dc1254d,2023-05-04_17h25.11.678,ga_syllabified_check,2022.2.5,Win32,59.95203837,,,,,,,,,,,,,,./stim/p08_syllable_1_palufauro_hit.wav,p08,palufauro,hit,pa-lu-fau-ro,pa-lu-fau-ro,pa-lu-fa-u-ro, ,0.353009259,-0.107638889,1,0,0,3.134,text_option_2,,0,104,104,195,1
5ecee03e0e92803029b7ad82,63f3cfca20052e4ae7554ebf,6453ce14af80da1c6dc1254d,2023-05-04_17h25.11.678,ga_syllabified_check,2022.2.5,Win32,59.95203837,,,,,,,,,,,,,,./stim/p06_syllable_1_nhiape_hit.wav,p06,ñiape,hit,nhi-a-pe,ñia-pe,ñi-a-pe, ,0.409722222,-0.099537037,1,0,0,1.349,text_option_2,,0,105,105,125,1
5ecee03e0e92803029b7ad82,63f3cfca20052e4ae7554ebf,6453ce14af80da1c6dc1254d,2023-05-04_17h25.11.678,ga_syllabified_check,2022.2.5,Win32,59.95203837,,,,,,,,,,,,,,./stim/p03_syllable_1_tuliafo_hit.wav,p03,tuliafo,hit,tu-lia-fo,tu-lia-fo,tu-li-a-fo, ,-0.355324074,-0.090277778,1,0,0,0.8,text_option_1,,0,106,106,33,1
5ecee03e0e92803029b7ad82,63f3cfca20052e4ae7554ebf,6453ce14af80da1c6dc1254d,2023-05-04_17h25.11.678,ga_syllabified_check,2022.2.5,Win32,59.95203837,,,,,,,,,,,,,,./stim/p06_syllable_1_flauro_hit.wav,p06,flauro,hit,fla-u-ro,flau-ro,fla-u-ro, ,0.409722222,-0.112268519,1,0,0,0.95,text_option_2,,0,107,107,107,1
5ecee03e0e92803029b7ad82,63f3cfca20052e4ae7554ebf,6453ce14af80da1c6dc1254d,2023-05-04_17h25.11.678,ga_syllabified_check,2022.2.5,Win32,59.95203837,,,,,,,,,,,,,,./stim/p07_syllable_1_palufauro_hit.wav,p07,palufauro,hit,pa-lu-fau-ro,pa-lu-fau-ro,pa-lu-fa-u-ro, ,-0.328703704,-0.097222222,1,0,0,2.5,text_option_1,,0,108,108,161,1
5ecee03e0e92803029b7ad82,63f3cfca20052e4ae7554ebf,6453ce14af80da1c6dc1254d,2023-05-04_17h25.11.678,ga_syllabified_check,2022.2.5,Win32,59.95203837,,,,,,,,,,,,,,./stim/p08_syllable_1_lakagiaisto_hit.wav,p08,lakagiaisto,hit,la-ka-gi-jas-to,la-ka-giais-to,la-ka-gi-ais-to,la-ka-gia-is-to,0.391203704,-0.106481481,1,0,0,5.966,text_option_2,,0,109,109,182,1
5ecee03e0e92803029b7ad82,63f3cfca20052e4ae7554ebf,6453ce14af80da1c6dc1254d,2023-05-04_17h25.11.678,ga_syllabified_check,2022.2.5,Win32,59.95203837,,,,,,,,,,,,,,./stim/p05_syllable_1_flauro_hit.wav,p05,flauro,hit,fa-lu-ro,flau-ro,fla-u-ro, ,0.354166667,-0.106481481,1,0,0,2.349,text_option_2,,0,110,110,73,1
5ecee03e0e92803029b7ad82,63f3cfca20052e4ae7554ebf,6453ce14af80da1c6dc1254d,2023-05-04_17h25.11.678,ga_syllabified_check,2022.2.5,Win32,59.95203837,,,,,,,,,,,,,,./stim/p04_syllable_1_payielo_hit.wav,p04,payielo,hit,pa-yie-lo,pa-yie-lo,pa-yi-e-lo, ,-0.428240741,-0.111111111,1,0,0,2.549,text_option_1,,0,111,111,64,1
5ecee03e0e92803029b7ad82,63f3cfca20052e4ae7554ebf,6453ce14af80da1c6dc1254d,2023-05-04_17h25.11.678,ga_syllabified_check,2022.2.5,Win32,59.95203837,,,,,,,,,,,,,,./stim/p03_syllable_1_palufauto_hit.wav,p03,palufauto,hit,pa-lu-fau,pa-lu-fau-to,pa-lu-fa-u-to, ,-0.384259259,-0.105324074,1,0,0,1.101,text_option_1,,0,112,112,26,1
5ecee03e0e92803029b7ad82,63f3cfca20052e4ae7554ebf,6453ce14af80da1c6dc1254d,2023-05-04_17h25.11.678,ga_syllabified_check,2022.2.5,Win32,59.95203837,,,,,,,,,,,,,,./stim/p08_syllable_1_falufaisto_hit.wav,p08,falufaisto,hit,fa-lu-fais-to,fa-lu-fais-to,fa-lu-fa-is-to, ,-0.415509259,-0.101851852,1,0,0,3.001,text_option_1,,0,113,113,173,1
5ecee03e0e92803029b7ad82,63f3cfca20052e4ae7554ebf,6453ce14af80da1c6dc1254d,2023-05-04_17h25.11.678,ga_syllabified_check,2022.2.5,Win32,59.95203837,,,,,,,,,,,,,,./stim/p03_syllable_1_lakagiaisto_hit.wav,p03,lakagiaisto,hit,la-ka-giais-to,la-ka-giais-to,la-ka-gi-ais-to,la-ka-gia-is-to,-0.405092593,-0.108796296,1,0,0,1.883,text_option_1,,0,114,114,12,1
5ecee03e0e92803029b7ad82,63f3cfca20052e4ae7554ebf,6453ce14af80da1c6dc1254d,2023-05-04_17h25.11.678,ga_syllabified_check,2022.2.5,Win32,59.95203837,,,,,,,,,,,,,,./stim/p06_syllable_1_lakaguaisto_hit.wav,p06,lakaguaisto,hit,la-ka-gu-a-is,la-ka-guais-to,la-ka-gu-ais-to,la-ka-gua-is-to,-0.020833333,-0.096064815,1,0,0,8.282,text_option_3,,0,115,115,115,1
5ecee03e0e92803029b7ad82,63f3cfca20052e4ae7554ebf,6453ce14af80da1c6dc1254d,2023-05-04_17h25.11.678,ga_syllabified_check,2022.2.5,Win32,59.95203837,,,,,,,,,,,,,,./stim/p08_syllable_1_lakatiaisto_hit.wav,p08,lakatiaisto,hit,la-ka-ti-as-to,la-ka-tiais-to,la-ka-ti-ais-to,la-ka-tia-is-to,-0.371527778,-0.08912037,1,0,0,3.6,text_option_1,,0,116,116,188,1
5ecee03e0e92803029b7ad82,63f3cfca20052e4ae7554ebf,6453ce14af80da1c6dc1254d,2023-05-04_17h25.11.678,ga_syllabified_check,2022.2.5,Win32,59.95203837,,,,,,,,,,,,,,./stim/p03_syllable_1_lakaduaisto_hit.wav,p03,lakaduaisto,hit,la-ka-duais-to,la-ka-duais-to,la-ka-du-ais-to,la-ka-dua-is-to,-0.363425926,-0.09375,1,0,0,1.234,text_option_1,,0,117,117,9,1
5ecee03e0e92803029b7ad82,63f3cfca20052e4ae7554ebf,6453ce14af80da1c6dc1254d,2023-05-04_17h25.11.678,ga_syllabified_check,2022.2.5,Win32,59.95203837,,,,,,,,,,,,,,./stim/p03_syllable_1_lakakuaisto_hit.wav,p03,lakakuaisto,hit,la-ka-kuais-to,la-ka-kuais-to,la-ka-ku-ais-to,la-ka-kua-is-to,-0.361111111,-0.106481481,1,0,0,1.068,text_option_1,,0,118,118,15,1
5ecee03e0e92803029b7ad82,63f3cfca20052e4ae7554ebf,6453ce14af80da1c6dc1254d,2023-05-04_17h25.11.678,ga_syllabified_check,2022.2.5,Win32,59.95203837,,,,,,,,,,,,,,./stim/p04_syllable_1_palumaisto_hit.wav,p04,palumaisto,hit,pa-lu-mais-to,pa-lu-mais-to,pa-lu-ma-is-to, ,-0.356481481,-0.094907407,1,0,0,0.934,text_option_1,,0,119,119,62,1
5ecee03e0e92803029b7ad82,63f3cfca20052e4ae7554ebf,6453ce14af80da1c6dc1254d,2023-05-04_17h25.11.678,ga_syllabified_check,2022.2.5,Win32,59.95203837,,,,,,,,,,,,,,./stim/p04_syllable_1_lakakuaisto_hit.wav,p04,lakakuaisto,hit,la-ka-kuais-to,la-ka-kuais-to,la-ka-ku-ais-to,la-ka-kua-is-to,-0.350694444,-0.090277778,1,0,0,0.967,text_option_1,,0,120,120,49,1
5ecee03e0e92803029b7ad82,63f3cfca20052e4ae7554ebf,6453ce14af80da1c6dc1254d,2023-05-04_17h25.11.678,ga_syllabified_check,2022.2.5,Win32,59.95203837,,,,,,,,,,,,,,./stim/p05_syllable_1_lakafuaisto_hit.wav,p05,lakafuaisto,hit,la-ka-fais-to,la-ka-fuais-to,la-ka-fu-ais-to,la-ka-fua-is-to,-0.356481481,-0.092592593,1,0,0,1.35,text_option_1,,0,121,121,79,1
5ecee03e0e92803029b7ad82,63f3cfca20052e4ae7554ebf,6453ce14af80da1c6dc1254d,2023-05-04_17h25.11.678,ga_syllabified_check,2022.2.5,Win32,59.95203837,,,,,,,,,,,,,,./stim/p07_syllable_1_lakakuaisto_hit.wav,p07,lakakuaisto,hit,la-ka-kuais-to,la-ka-kuais-to,la-ka-ku-ais-to,la-ka-kua-is-to,-0.368055556,-0.106481481,1,0,0,2.182,text_option_1,,0,122,122,151,1
5ecee03e0e92803029b7ad82,63f3cfca20052e4ae7554ebf,6453ce14af80da1c6dc1254d,2023-05-04_17h25.11.678,ga_syllabified_check,2022.2.5,Win32,59.95203837,,,,,,,,,,,,,,./stim/p05_syllable_1_lakabuaisto_hit.wav,p05,lakabuaisto,hit,la-ka-buais-to,la-ka-buais-to,la-ka-bu-ais-to,la-ka-bua-is-to,-0.363425926,-0.104166667,1,0,0,1.182,text_option_1,,0,123,123,75,1
5ecee03e0e92803029b7ad82,63f3cfca20052e4ae7554ebf,6453ce14af80da1c6dc1254d,2023-05-04_17h25.11.678,ga_syllabified_check,2022.2.5,Win32,59.95203837,,,,,,,,,,,,,,./stim/p08_syllable_1_falutraigo_hit.wav,p08,falutraigo,hit,fa-lu-trai-go,fa-lu-trai-go,fa-lu-tra-i-go, ,0.336805556,-0.105324074,1,0,0,3.35,text_option_2,,0,124,124,174,1
5ecee03e0e92803029b7ad82,63f3cfca20052e4ae7554ebf,6453ce14af80da1c6dc1254d,2023-05-04_17h25.11.678,ga_syllabified_check,2022.2.5,Win32,59.95203837,,,,,,,,,,,,,,./stim/p05_syllable_1_lakakiaisto_hit.wav,p05,lakakiaisto,hit,la-ka-ki-ais-to,la-ka-kiais-to,la-ka-ki-ais-to,la-ka-kia-is-to,-0.423611111,-0.09375,1,0,0,1.133,text_option_1,,0,125,125,82,1
5ecee03e0e92803029b7ad82,63f3cfca20052e4ae7554ebf,6453ce14af80da1c6dc1254d,2023-05-04_17h25.11.678,ga_syllabified_check,2022.2.5,Win32,59.95203837,,,,,,,,,,,,,,./stim/p04_syllable_1_falufaisto_hit.wav,p04,falufaisto,hit,fa-lu-fais-to,fa-lu-fais-to,fa-lu-fa-is-to, ,-0.33912037,-0.099537037,1,0,0,0.7,text_option_1,,0,126,126,37,1
5ecee03e0e92803029b7ad82,63f3cfca20052e4ae7554ebf,6453ce14af80da1c6dc1254d,2023-05-04_17h25.11.678,ga_syllabified_check,2022.2.5,Win32,59.95203837,,,,,,,,,,,,,,./stim/p03_syllable_1_faluduako_hit.wav,p03,faluduako,hit,fa-lu-dua-ko,fa-lu-dua-ko,fa-lu-du-a-ko, ,-0.356481481,-0.116898148,1,0,0,1.417,text_option_1,,0,127,127,2,1
5ecee03e0e92803029b7ad82,63f3cfca20052e4ae7554ebf,6453ce14af80da1c6dc1254d,2023-05-04_17h25.11.678,ga_syllabified_check,2022.2.5,Win32,59.95203837,,,,,,,,,,,,,,./stim/p04_syllable_1_chiaba_hit.wav,p04,chiaba,hit,chia-ba,chia-ba,chi-a-ba, ,-0.385416667,-0.092592593,1,0,0,0.416,text_option_1,,0,128,128,34,1
5ecee03e0e92803029b7ad82,63f3cfca20052e4ae7554ebf,6453ce14af80da1c6dc1254d,2023-05-04_17h25.11.678,ga_syllabified_check,2022.2.5,Win32,59.95203837,,,,,,,,,,,,,,./stim/p05_syllable_1_lakafiaisto_hit.wav,p05,lakafiaisto,hit,la-ka-fi-ais-to,la-ka-fiais-to,la-ka-fi-ais-to,la-ka-fia-is-to,0.40162037,-0.101851852,1,0,0,2.1,text_option_2,,0,129,129,78,1
5ecee03e0e92803029b7ad82,63f3cfca20052e4ae7554ebf,6453ce14af80da1c6dc1254d,2023-05-04_17h25.11.678,ga_syllabified_check,2022.2.5,Win32,59.95203837,,,,,,,,,,,,,,./stim/p08_syllable_1_lakakuaisto_hit.wav,p08,lakakuaisto,hit,la-ka-ku-ais-to,la-ka-kuais-to,la-ka-ku-ais-to,la-ka-kua-is-to,0.457175926,-0.104166667,1,0,0,3.283,text_option_2,,0,130,130,185,1
5ecee03e0e92803029b7ad82,63f3cfca20052e4ae7554ebf,6453ce14af80da1c6dc1254d,2023-05-04_17h25.11.678,ga_syllabified_check,2022.2.5,Win32,59.95203837,,,,,,,,,,,,,,./stim/p07_syllable_1_tuliafo_hit.wav,p07,tuliafo,hit,tu-lia-fo,tu-lia-fo,tu-li-a-fo, ,-0.375,-0.103009259,1,0,0,2.185,text_option_1,,0,131,131,169,1
5ecee03e0e92803029b7ad82,63f3cfca20052e4ae7554ebf,6453ce14af80da1c6dc1254d,2023-05-04_17h25.11.678,ga_syllabified_check,2022.2.5,Win32,59.95203837,,,,,,,,,,,,,,./stim/p05_syllable_1_lakapuaisto_hit.wav,p05,lakapuaisto,hit,la-ka-pais-to,la-ka-puais-to,la-ka-pu-ais-to,la-ka-pua-is-to,-0.325231481,-0.109953704,1,0,0,2.417,text_option_1,,0,132,132,85,1
5ecee03e0e92803029b7ad82,63f3cfca20052e4ae7554ebf,6453ce14af80da1c6dc1254d,2023-05-04_17h25.11.678,ga_syllabified_check,2022.2.5,Win32,59.95203837,,,,,,,,,,,,,,./stim/p08_syllable_1_manhiala_hit.wav,p08,mañiala,hit,ma-nhia-la,ma-ñia-la,ma-ñi-a-la, ,-0.378472222,-0.099537037,1,0,0,1.599,text_option_1,,0,133,133,191,1
5ecee03e0e92803029b7ad82,63f3cfca20052e4ae7554ebf,6453ce14af80da1c6dc1254d,2023-05-04_17h25.11.678,ga_syllabified_check,2022.2.5,Win32,59.95203837,,,,,,,,,,,,,,./stim/p03_syllable_1_lliape_hit.wav,p03,lliape,hit,llia,llia-pe,lli-a-pe, ,-0.354166667,-0.108796296,1,0,0,0.7,text_option_1,,0,134,134,20,1
5ecee03e0e92803029b7ad82,63f3cfca20052e4ae7554ebf,6453ce14af80da1c6dc1254d,2023-05-04_17h25.11.678,ga_syllabified_check,2022.2.5,Win32,59.95203837,,,,,,,,,,,,,,./stim/p04_syllable_1_lakafuaisto_hit.wav,p04,lakafuaisto,hit,la-ka-fuais-to,la-ka-fuais-to,la-ka-fu-ais-to,la-ka-fua-is-to,-0.33912037,-0.107638889,1,0,0,0.65,text_option_1,,0,135,135,45,1
5ecee03e0e92803029b7ad82,63f3cfca20052e4ae7554ebf,6453ce14af80da1c6dc1254d,2023-05-04_17h25.11.678,ga_syllabified_check,2022.2.5,Win32,59.95203837,,,,,,,,,,,,,,./stim/p04_syllable_1_palutrauco_hit.wav,p04,palutrauco,hit,pa-lu-trau-co,pa-lu-trau-co,pa-lu-tra-u-co, ,0.482638889,-0.115740741,1,0,0,2.012,text_option_2,,0,136,136,63,1
5ecee03e0e92803029b7ad82,63f3cfca20052e4ae7554ebf,6453ce14af80da1c6dc1254d,2023-05-04_17h25.11.678,ga_syllabified_check,2022.2.5,Win32,59.95203837,,,,,,,,,,,,,,./stim/p07_syllable_1_nhiape_hit.wav,p07,ñiape,hit,nhia-pe,ñia-pe,ñi-a-pe, ,-0.355324074,-0.112268519,1,0,0,1.551,text_option_1,,0,137,137,159,1
5ecee03e0e92803029b7ad82,63f3cfca20052e4ae7554ebf,6453ce14af80da1c6dc1254d,2023-05-04_17h25.11.678,ga_syllabified_check,2022.2.5,Win32,59.95203837,,,,,,,,,,,,,,./stim/p08_syllable_1_lakapuaisto_hit.wav,p08,lakapuaisto,hit,la-ka-pu-as-to,la-ka-puais-to,la-ka-pu-ais-to,la-ka-pua-is-to,0.423611111,-0.111111111,1,0,0,4.217,text_option_2,,0,138,138,187,1
5ecee03e0e92803029b7ad82,63f3cfca20052e4ae7554ebf,6453ce14af80da1c6dc1254d,2023-05-04_17h25.11.678,ga_syllabified_check,2022.2.5,Win32,59.95203837,,,,,,,,,,,,,,./stim/p04_syllable_1_tuliafo_hit.wav,p04,tuliafo,hit,tu-lia-fo,tu-lia-fo,tu-li-a-fo, ,-0.368055556,-0.104166667,1,0,0,1.017,text_option_1,,0,139,139,67,1
5ecee03e0e92803029b7ad82,63f3cfca20052e4ae7554ebf,6453ce14af80da1c6dc1254d,2023-05-04_17h25.11.678,ga_syllabified_check,2022.2.5,Win32,59.95203837,,,,,,,,,,,,,,./stim/p06_syllable_1_pachialo_hit.wav,p06,pachialo,hit,pa-shi-a-lo,pa-chia-lo,pa-chi-a-lo, ,0.423611111,-0.104166667,1,0,0,1.283,text_option_2,,0,140,140,126,1
5ecee03e0e92803029b7ad82,63f3cfca20052e4ae7554ebf,6453ce14af80da1c6dc1254d,2023-05-04_17h25.11.678,ga_syllabified_check,2022.2.5,Win32,59.95203837,,,,,,,,,,,,,,./stim/p07_syllable_1_flauro_hit.wav,p07,flauro,hit,flau-ro,flau-ro,fla-u-ro, ,-0.349537037,-0.111111111,1,0,0,1.484,text_option_1,,0,141,141,141,1
5ecee03e0e92803029b7ad82,63f3cfca20052e4ae7554ebf,6453ce14af80da1c6dc1254d,2023-05-04_17h25.11.678,ga_syllabified_check,2022.2.5,Win32,59.95203837,,,,,,,,,,,,,,./stim/p08_syllable_1_mebochiana_hit.wav,p08,mebochiana,hit,me-bo-chi-a-na,me-bo-chia-na,me-bo-chi-a-na, ,0.454861111,-0.077546296,1,0,0,2.083,text_option_2,,0,142,142,192,1
5ecee03e0e92803029b7ad82,63f3cfca20052e4ae7554ebf,6453ce14af80da1c6dc1254d,2023-05-04_17h25.11.678,ga_syllabified_check,2022.2.5,Win32,59.95203837,,,,,,,,,,,,,,./stim/p08_syllable_1_payielo_hit.wav,p08,payielo,hit,pa-yie-lo,pa-yie-lo,pa-yi-e-lo, ,-0.386574074,-0.118055556,1,0,0,1.117,text_option_1,,0,143,143,200,1
5ecee03e0e92803029b7ad82,63f3cfca20052e4ae7554ebf,6453ce14af80da1c6dc1254d,2023-05-04_17h25.11.678,ga_syllabified_check,2022.2.5,Win32,59.95203837,,,,,,,,,,,,,,./stim/p05_syllable_1_lakagiaisto_hit.wav,p05,lakagiaisto,hit,la-ka-ki-ais-to,la-ka-giais-to,la-ka-gi-ais-to,la-ka-gia-is-to,-0.344907407,-0.108796296,1,0,0,1.133,text_option_1,,0,144,144,80,1
5ecee03e0e92803029b7ad82,63f3cfca20052e4ae7554ebf,6453ce14af80da1c6dc1254d,2023-05-04_17h25.11.678,ga_syllabified_check,2022.2.5,Win32,59.95203837,,,,,,,,,,,,,,./stim/p07_syllable_1_palufauto_hit.wav,p07,palufauto,hit,pa-lu-fau-to,pa-lu-fau-to,pa-lu-fa-u-to, ,-0.381944444,-0.096064815,1,0,0,2.483,text_option_1,,0,145,145,162,1
5ecee03e0e92803029b7ad82,63f3cfca20052e4ae7554ebf,6453ce14af80da1c6dc1254d,2023-05-04_17h25.11.678,ga_syllabified_check,2022.2.5,Win32,59.95203837,,,,,,,,,,,,,,./stim/p06_syllable_1_lakatuaisto_hit.wav,p06,lakatuaisto,hit,la-ka-tu-a-is,la-ka-tuais-to,la-ka-tu-ais-to,la-ka-tua-is-to,0.4375,-0.108796296,1,0,0,5.783,text_option_2,,0,146,146,121,1
5ecee03e0e92803029b7ad82,63f3cfca20052e4ae7554ebf,6453ce14af80da1c6dc1254d,2023-05-04_17h25.11.678,ga_syllabified_check,2022.2.5,Win32,59.95203837,,,,,,,,,,,,,,./stim/p07_syllable_1_payielo_hit.wav,p07,payielo,hit,pa-yie-lo,pa-yie-lo,pa-yi-e-lo, ,-0.405092593,-0.104166667,1,0,0,2.615,text_option_1,,0,147,147,166,1
5ecee03e0e92803029b7ad82,63f3cfca20052e4ae7554ebf,6453ce14af80da1c6dc1254d,2023-05-04_17h25.11.678,ga_syllabified_check,2022.2.5,Win32,59.95203837,,,,,,,,,,,,,,./stim/p06_syllable_1_lakafuaisto_hit.wav,p06,lakafuaisto,hit,la-ka-fu-a-is,la-ka-fuais-to,la-ka-fu-ais-to,la-ka-fua-is-to,-0.063657407,-0.08912037,1,0,0,5.082,text_option_3,,0,148,148,113,1
5ecee03e0e92803029b7ad82,63f3cfca20052e4ae7554ebf,6453ce14af80da1c6dc1254d,2023-05-04_17h25.11.678,ga_syllabified_check,2022.2.5,Win32,59.95203837,,,,,,,,,,,,,,./stim/p03_syllable_1_lakabiaisto_hit.wav,p03,lakabiaisto,hit,la-ka-biais-to,la-ka-biais-to,la-ka-bi-ais-to,la-ka-bia-is-to,-0.297453704,-0.100694444,1,0,0,1.301,text_option_1,,0,149,149,6,1
5ecee03e0e92803029b7ad82,63f3cfca20052e4ae7554ebf,6453ce14af80da1c6dc1254d,2023-05-04_17h25.11.678,ga_syllabified_check,2022.2.5,Win32,59.95203837,,,,,,,,,,,,,,./stim/p05_syllable_1_falufaisto_hit.wav,p05,falufaisto,hit,fa-lu-fais-to,fa-lu-fais-to,fa-lu-fa-is-to, ,-0.346064815,-0.104166667,1,0,0,0.699,text_option_1,,0,150,150,71,1
5ecee03e0e92803029b7ad82,63f3cfca20052e4ae7554ebf,6453ce14af80da1c6dc1254d,2023-05-04_17h25.11.678,ga_syllabified_check,2022.2.5,Win32,59.95203837,,,,,,,,,,,,,,./stim/p07_syllable_1_lakadiaisto_hit.wav,p07,lakadiaisto,hit,la-ka-dia-is-to,la-ka-diais-to,la-ka-di-ais-to,la-ka-dia-is-to,0.020833333,-0.112268519,1,0,0,2.216,text_option_3,,0,151,151,144,1
5ecee03e0e92803029b7ad82,63f3cfca20052e4ae7554ebf,6453ce14af80da1c6dc1254d,2023-05-04_17h25.11.678,ga_syllabified_check,2022.2.5,Win32,59.95203837,,,,,,,,,,,,,,./stim/p03_syllable_1_manhiala_hit.wav,p03,mañiala,hit,ma-nhia-la,ma-ñia-la,ma-ñi-a-la, ,-0.385416667,-0.092592593,1,0,0,1.151,text_option_1,,0,152,152,21,1
5ecee03e0e92803029b7ad82,63f3cfca20052e4ae7554ebf,6453ce14af80da1c6dc1254d,2023-05-04_17h25.11.678,ga_syllabified_check,2022.2.5,Win32,59.95203837,,,,,,,,,,,,,,./stim/p08_syllable_1_lakabiaisto_hit.wav,p08,lakabiaisto,hit,la-ka-bi-as-to,la-ka-biais-to,la-ka-bi-ais-to,la-ka-bia-is-to,0.402777778,-0.106481481,1,0,0,4.166,text_option_2,,0,153,153,176,1
5ecee03e0e92803029b7ad82,63f3cfca20052e4ae7554ebf,6453ce14af80da1c6dc1254d,2023-05-04_17h25.11.678,ga_syllabified_check,2022.2.5,Win32,59.95203837,,,,,,,,,,,,,,./stim/p08_syllable_1_palutrauco_hit.wav,p08,palutrauco,hit,pa-lu-trau-ko,pa-lu-trau-co,pa-lu-tra-u-co, ,-0.334490741,-0.113425926,1,0,0,2.933,text_option_1,,0,154,154,199,1
5ecee03e0e92803029b7ad82,63f3cfca20052e4ae7554ebf,6453ce14af80da1c6dc1254d,2023-05-04_17h25.11.678,ga_syllabified_check,2022.2.5,Win32,59.95203837,,,,,,,,,,,,,,./stim/p07_syllable_1_lakafiaisto_hit.wav,p07,lakafiaisto,hit,la-ka-fiais-to,la-ka-fiais-to,la-ka-fi-ais-to,la-ka-fia-is-to,-0.329861111,-0.104166667,1,0,0,1.75,text_option_1,,0,155,155,146,1
5ecee03e0e92803029b7ad82,63f3cfca20052e4ae7554ebf,6453ce14af80da1c6dc1254d,2023-05-04_17h25.11.678,ga_syllabified_check,2022.2.5,Win32,59.95203837,,,,,,,,,,,,,,./stim/p04_syllable_1_lakakiaisto_hit.wav,p04,lakakiaisto,hit,la-ka-kiais-to,la-ka-kiais-to,la-ka-ki-ais-to,la-ka-kia-is-to,-0.319444444,-0.106481481,1,0,0,1.3,text_option_1,,0,156,156,48,1
5ecee03e0e92803029b7ad82,63f3cfca20052e4ae7554ebf,6453ce14af80da1c6dc1254d,2023-05-04_17h25.11.678,ga_syllabified_check,2022.2.5,Win32,59.95203837,,,,,,,,,,,,,,./stim/p04_syllable_1_lakatiaisto_hit.wav,p04,lakatiaisto,hit,la-ka-kiais-to,la-ka-tiais-to,la-ka-ti-ais-to,la-ka-tia-is-to,-0.318287037,-0.104166667,1,0,0,1.301,text_option_1,,0,157,157,52,1
5ecee03e0e92803029b7ad82,63f3cfca20052e4ae7554ebf,6453ce14af80da1c6dc1254d,2023-05-04_17h25.11.678,ga_syllabified_check,2022.2.5,Win32,59.95203837,,,,,,,,,,,,,,./stim/p04_syllable_1_lakapiaisto_hit.wav,p04,lakapiaisto,hit,la-ka-piais-to,la-ka-piais-to,la-ka-pi-ais-to,la-ka-pia-is-to,-0.31712963,-0.104166667,1,0,0,0.969,text_option_1,,0,158,158,50,1
5ecee03e0e92803029b7ad82,63f3cfca20052e4ae7554ebf,6453ce14af80da1c6dc1254d,2023-05-04_17h25.11.678,ga_syllabified_check,2022.2.5,Win32,59.95203837,,,,,,,,,,,,,,./stim/p05_syllable_1_palufauro_hit.wav,p05,palufauro,hit,pa-lu-fau-ro,pa-lu-fau-ro,pa-lu-fa-u-ro, ,0.403935185,-0.08912037,1,0,0,1.749,text_option_2,,0,159,159,93,1
5ecee03e0e92803029b7ad82,63f3cfca20052e4ae7554ebf,6453ce14af80da1c6dc1254d,2023-05-04_17h25.11.678,ga_syllabified_check,2022.2.5,Win32,59.95203837,,,,,,,,,,,,,,./stim/p04_syllable_1_mebochiana_hit.wav,p04,mebochiana,hit,me-bo-chia-na,me-bo-chia-na,me-bo-chi-a-na, ,-0.292824074,-0.09375,1,0,0,1.383,text_option_1,,0,160,160,56,1
5ecee03e0e92803029b7ad82,63f3cfca20052e4ae7554ebf,6453ce14af80da1c6dc1254d,2023-05-04_17h25.11.678,ga_syllabified_check,2022.2.5,Win32,59.95203837,,,,,,,,,,,,,,./stim/p04_syllable_1_lakabuaisto_hit.wav,p04,lakabuaisto,hit,la-ka-buais-to,la-ka-buais-to,la-ka-bu-ais-to,la-ka-bua-is-to,-0.335648148,-0.104166667,1,0,0,0.717,text_option_1,,0,161,161,41,1
5ecee03e0e92803029b7ad82,63f3cfca20052e4ae7554ebf,6453ce14af80da1c6dc1254d,2023-05-04_17h25.11.678,ga_syllabified_check,2022.2.5,Win32,59.95203837,,,,,,,,,,,,,,./stim/p07_syllable_1_lakapuaisto_hit.wav,p07,lakapuaisto,hit,la-ka-puais-to,la-ka-puais-to,la-ka-pu-ais-to,la-ka-pua-is-to,-0.358796296,-0.105324074,1,0,0,2.368,text_option_1,,0,162,162,153,1
5ecee03e0e92803029b7ad82,63f3cfca20052e4ae7554ebf,6453ce14af80da1c6dc1254d,2023-05-04_17h25.11.678,ga_syllabified_check,2022.2.5,Win32,59.95203837,,,,,,,,,,,,,,./stim/p04_syllable_1_lakaguaisto_hit.wav,p04,lakaguaisto,hit,la-ka-guais-to,la-ka-guais-to,la-ka-gu-ais-to,la-ka-gua-is-to,-0.34375,-0.105324074,1,0,0,1.25,text_option_1,,0,163,163,47,1
5ecee03e0e92803029b7ad82,63f3cfca20052e4ae7554ebf,6453ce14af80da1c6dc1254d,2023-05-04_17h25.11.678,ga_syllabified_check,2022.2.5,Win32,59.95203837,,,,,,,,,,,,,,./stim/p06_syllable_1_palumaisto_hit.wav,p06,palumaisto,hit,pa-lu-ma-is-to,pa-lu-mais-to,pa-lu-ma-is-to, ,0.395833333,-0.109953704,1,0,0,2.267,text_option_2,,0,164,164,130,1
5ecee03e0e92803029b7ad82,63f3cfca20052e4ae7554ebf,6453ce14af80da1c6dc1254d,2023-05-04_17h25.11.678,ga_syllabified_check,2022.2.5,Win32,59.95203837,,,,,,,,,,,,,,./stim/p08_syllable_1_nhiape_hit.wav,p08,ñiape,hit,ni-a-pe,ñia-pe,ñi-a-pe, ,0.420138889,-0.099537037,1,0,0,0.817,text_option_2,,0,165,165,193,1
5ecee03e0e92803029b7ad82,63f3cfca20052e4ae7554ebf,6453ce14af80da1c6dc1254d,2023-05-04_17h25.11.678,ga_syllabified_check,2022.2.5,Win32,59.95203837,,,,,,,,,,,,,,./stim/p05_syllable_1_manhiala_hit.wav,p05,mañiala,hit,ma-nhia-la,ma-ñia-la,ma-ñi-a-la, ,-0.344907407,-0.100694444,1,0,0,1.785,text_option_1,,0,166,166,89,1
5ecee03e0e92803029b7ad82,63f3cfca20052e4ae7554ebf,6453ce14af80da1c6dc1254d,2023-05-04_17h25.11.678,ga_syllabified_check,2022.2.5,Win32,59.95203837,,,,,,,,,,,,,,./stim/p04_syllable_1_palufauro_hit.wav,p04,palufauro,hit,pa-lu-fau-ro,pa-lu-fau-ro,pa-lu-fa-u-ro, ,0.31712963,-0.096064815,1,0,0,2.867,text_option_2,,0,167,167,59,1
5ecee03e0e92803029b7ad82,63f3cfca20052e4ae7554ebf,6453ce14af80da1c6dc1254d,2023-05-04_17h25.11.678,ga_syllabified_check,2022.2.5,Win32,59.95203837,,,,,,,,,,,,,,./stim/p03_syllable_1_palumaisto_hit.wav,p03,palumaisto,hit,pa-lu-mais-to,pa-lu-mais-to,pa-lu-ma-is-to, ,-0.354166667,-0.104166667,1,0,0,1.284,text_option_1,,0,168,168,28,1
5ecee03e0e92803029b7ad82,63f3cfca20052e4ae7554ebf,6453ce14af80da1c6dc1254d,2023-05-04_17h25.11.678,ga_syllabified_check,2022.2.5,Win32,59.95203837,,,,,,,,,,,,,,./stim/p06_syllable_1_lakafiaisto_hit.wav,p06,lakafiaisto,hit,la-ka-fia-is-to,la-ka-fiais-to,la-ka-fi-ais-to,la-ka-fia-is-to,-0.019675926,-0.111111111,1,0,0,3.799,text_option_3,,0,169,169,112,1
5ecee03e0e92803029b7ad82,63f3cfca20052e4ae7554ebf,6453ce14af80da1c6dc1254d,2023-05-04_17h25.11.678,ga_syllabified_check,2022.2.5,Win32,59.95203837,,,,,,,,,,,,,,./stim/p05_syllable_1_lakaduaisto_hit.wav,p05,lakaduaisto,hit,la-ka-dais-to,la-ka-duais-to,la-ka-du-ais-to,la-ka-dua-is-to,-0.344907407,-0.09375,1,0,0,2.432,text_option_1,,0,170,170,77,1
5ecee03e0e92803029b7ad82,63f3cfca20052e4ae7554ebf,6453ce14af80da1c6dc1254d,2023-05-04_17h25.11.678,ga_syllabified_check,2022.2.5,Win32,59.95203837,,,,,,,,,,,,,,./stim/p06_syllable_1_lakatiaisto_hit.wav,p06,lakatiaisto,hit,la-ka-pia-is-to,la-ka-tiais-to,la-ka-ti-ais-to,la-ka-tia-is-to,0.368055556,-0.108796296,1,0,0,4.465,text_option_2,,0,171,171,120,1
5ecee03e0e92803029b7ad82,63f3cfca20052e4ae7554ebf,6453ce14af80da1c6dc1254d,2023-05-04_17h25.11.678,ga_syllabified_check,2022.2.5,Win32,59.95203837,,,,,,,,,,,,,,./stim/p05_syllable_1_lakabiaisto_hit.wav,p05,lakabiaisto,hit,la-ka-bi-ais-to,la-ka-biais-to,la-ka-bi-ais-to,la-ka-bia-is-to,0.336805556,-0.103009259,1,0,0,3.05,text_option_2,,0,172,172,74,1
5ecee03e0e92803029b7ad82,63f3cfca20052e4ae7554ebf,6453ce14af80da1c6dc1254d,2023-05-04_17h25.11.678,ga_syllabified_check,2022.2.5,Win32,59.95203837,,,,,,,,,,,,,,./stim/p08_syllable_1_paluguato_hit.wav,p08,paluguato,hit,pa-lu-gua-to,pa-lu-gua-to,pa-lu-gu-a-to, ,-0.366898148,-0.090277778,1,0,0,1.767,text_option_1,,0,173,173,197,1
5ecee03e0e92803029b7ad82,63f3cfca20052e4ae7554ebf,6453ce14af80da1c6dc1254d,2023-05-04_17h25.11.678,ga_syllabified_check,2022.2.5,Win32,59.95203837,,,,,,,,,,,,,,./stim/p04_syllable_1_lakapuaisto_hit.wav,p04,lakapuaisto,hit,la-ka-puais-to,la-ka-puais-to,la-ka-pu-ais-to,la-ka-pua-is-to,-0.363425926,-0.104166667,1,0,0,0.85,text_option_1,,0,174,174,51,1
5ecee03e0e92803029b7ad82,63f3cfca20052e4ae7554ebf,6453ce14af80da1c6dc1254d,2023-05-04_17h25.11.678,ga_syllabified_check,2022.2.5,Win32,59.95203837,,,,,,,,,,,,,,./stim/p03_syllable_1_palutrauco_hit.wav,p03,palutrauco,hit,pa-lu-trau-co,pa-lu-trau-co,pa-lu-tra-u-co, ,-0.355324074,-0.113425926,1,0,0,1.616,text_option_1,,0,175,175,29,1
5ecee03e0e92803029b7ad82,63f3cfca20052e4ae7554ebf,6453ce14af80da1c6dc1254d,2023-05-04_17h25.11.678,ga_syllabified_check,2022.2.5,Win32,59.95203837,,,,,,,,,,,,,,./stim/p04_syllable_1_lakafiaisto_hit.wav,p04,lakafiaisto,hit,la-ka-fiais-to,la-ka-fiais-to,la-ka-fi-ais-to,la-ka-fia-is-to,-0.371527778,-0.108796296,1,0,0,0.95,text_option_1,,0,176,176,44,1
5ecee03e0e92803029b7ad82,63f3cfca20052e4ae7554ebf,6453ce14af80da1c6dc1254d,2023-05-04_17h25.11.678,ga_syllabified_check,2022.2.5,Win32,59.95203837,,,,,,,,,,,,,,./stim/p05_syllable_1_lakadiaisto_hit.wav,p05,lakadiaisto,hit,la-ka-di-ais-to,la-ka-diais-to,la-ka-di-ais-to,la-ka-dia-is-to,0.362268519,-0.119212963,1,0,0,6.399,text_option_2,,0,177,177,76,1
5ecee03e0e92803029b7ad82,63f3cfca20052e4ae7554ebf,6453ce14af80da1c6dc1254d,2023-05-04_17h25.11.678,ga_syllabified_check,2022.2.5,Win32,59.95203837,,,,,,,,,,,,,,./stim/p06_syllable_1_lakadiaisto_hit.wav,p06,lakadiaisto,hit,la-ka-dia-is-to,la-ka-diais-to,la-ka-di-ais-to,la-ka-dia-is-to,0.065972222,-0.091435185,1,0,0,2.484,text_option_3,,0,178,178,110,1
5ecee03e0e92803029b7ad82,63f3cfca20052e4ae7554ebf,6453ce14af80da1c6dc1254d,2023-05-04_17h25.11.678,ga_syllabified_check,2022.2.5,Win32,59.95203837,,,,,,,,,,,,,,./stim/p06_syllable_1_lakagiaisto_hit.wav,p06,lakagiaisto,hit,la-ka-gia-is-to,la-ka-giais-to,la-ka-gi-ais-to,la-ka-gia-is-to,0.021990741,-0.107638889,1,0,0,3.417,text_option_3,,0,179,179,114,1
5ecee03e0e92803029b7ad82,63f3cfca20052e4ae7554ebf,6453ce14af80da1c6dc1254d,2023-05-04_17h25.11.678,ga_syllabified_check,2022.2.5,Win32,59.95203837,,,,,,,,,,,,,,./stim/p05_syllable_1_mebochiana_hit.wav,p05,mebochiana,hit,me-cho-chai-na,me-bo-chia-na,me-bo-chi-a-na, ,-0.332175926,-0.101851852,1,0,0,4.316,text_option_1,,0,180,180,90,1
5ecee03e0e92803029b7ad82,63f3cfca20052e4ae7554ebf,6453ce14af80da1c6dc1254d,2023-05-04_17h25.11.678,ga_syllabified_check,2022.2.5,Win32,59.95203837,,,,,,,,,,,,,,./stim/p06_syllable_1_lakapiaisto_hit.wav,p06,lakapiaisto,hit,la-ka-pia-is-to,la-ka-piais-to,la-ka-pi-ais-to,la-ka-pia-is-to,0.053240741,-0.113425926,1,0,0,4.833,text_option_3,,0,181,181,118,1
5ecee03e0e92803029b7ad82,63f3cfca20052e4ae7554ebf,6453ce14af80da1c6dc1254d,2023-05-04_17h25.11.678,ga_syllabified_check,2022.2.5,Win32,59.95203837,,,,,,,,,,,,,,./stim/p06_syllable_1_costonhialo_hit.wav,p06,costoñialo,hit,cos-to-nhia-lo,cos-to-ñia-lo,cos-to-ñi-a-lo, ,-0.377314815,-0.114583333,1,0,0,2.95,text_option_1,,0,182,182,103,1
5ecee03e0e92803029b7ad82,63f3cfca20052e4ae7554ebf,6453ce14af80da1c6dc1254d,2023-05-04_17h25.11.678,ga_syllabified_check,2022.2.5,Win32,59.95203837,,,,,,,,,,,,,,./stim/p03_syllable_1_palufauro_hit.wav,p03,palufauro,hit,pa-lu-fau-ro,pa-lu-fau-ro,pa-lu-fa-u-ro, ,-0.369212963,-0.118055556,1,0,0,2.949,text_option_1,,0,183,183,25,1
5ecee03e0e92803029b7ad82,63f3cfca20052e4ae7554ebf,6453ce14af80da1c6dc1254d,2023-05-04_17h25.11.678,ga_syllabified_check,2022.2.5,Win32,59.95203837,,,,,,,,,,,,,,./stim/p05_syllable_1_chiaba_hit.wav,p05,chiaba,hit,chia-ba,chia-ba,chi-a-ba, ,-0.37037037,-0.116898148,1,0,0,1.017,text_option_1,,0,184,184,68,1
5ecee03e0e92803029b7ad82,63f3cfca20052e4ae7554ebf,6453ce14af80da1c6dc1254d,2023-05-04_17h25.11.678,ga_syllabified_check,2022.2.5,Win32,59.95203837,,,,,,,,,,,,,,./stim/p07_syllable_1_lakagiaisto_hit.wav,p07,lakagiaisto,hit,la-ka-gais-to,la-ka-giais-to,la-ka-gi-ais-to,la-ka-gia-is-to,-0.383101852,-0.103009259,1,0,0,2.049,text_option_1,,0,185,185,148,1
5ecee03e0e92803029b7ad82,63f3cfca20052e4ae7554ebf,6453ce14af80da1c6dc1254d,2023-05-04_17h25.11.678,ga_syllabified_check,2022.2.5,Win32,59.95203837,,,,,,,,,,,,,,./stim/p05_syllable_1_rausto_hit.wav,p05,rausto,hit,raus-to,raus-to,ra-us-to, ,-0.344907407,-0.108796296,1,0,0,0.316,text_option_1,,0,186,186,99,1
5ecee03e0e92803029b7ad82,63f3cfca20052e4ae7554ebf,6453ce14af80da1c6dc1254d,2023-05-04_17h25.11.678,ga_syllabified_check,2022.2.5,Win32,59.95203837,,,,,,,,,,,,,,./stim/p06_syllable_1_chiaba_hit.wav,p06,chiaba,hit,chi-a-ba,chia-ba,chi-a-ba, ,0.376157407,-0.099537037,1,0,0,1.068,text_option_2,,0,187,187,102,1
5ecee03e0e92803029b7ad82,63f3cfca20052e4ae7554ebf,6453ce14af80da1c6dc1254d,2023-05-04_17h25.11.678,ga_syllabified_check,2022.2.5,Win32,59.95203837,,,,,,,,,,,,,,./stim/p08_syllable_1_rausto_hit.wav,p08,rausto,hit,raus-to,raus-to,ra-us-to, ,-0.41087963,-0.114583333,1,0,0,0.967,text_option_1,,0,188,188,201,1
5ecee03e0e92803029b7ad82,63f3cfca20052e4ae7554ebf,6453ce14af80da1c6dc1254d,2023-05-04_17h25.11.678,ga_syllabified_check,2022.2.5,Win32,59.95203837,,,,,,,,,,,,,,./stim/p06_syllable_1_lakabuaisto_hit.wav,p06,lakabuaisto,hit,la-ka-bu-a-is,la-ka-buais-to,la-ka-bu-ais-to,la-ka-bua-is-to,-0.013888889,-0.300925926,1,0,0,6.006,text_option_other,la- ka- bu -a -is- to,0,189,189,109,1
5ecee03e0e92803029b7ad82,63f3cfca20052e4ae7554ebf,6453ce14af80da1c6dc1254d,2023-05-04_17h25.11.678,ga_syllabified_check,2022.2.5,Win32,59.95203837,,,,,,,,,,,,,,./stim/p08_syllable_1_palumaisto_hit.wav,p08,palumaisto,hit,pa-lu-mais-to,pa-lu-mais-to,pa-lu-ma-is-to, ,-0.461805556,-0.111111111,1,0,0,2.017,text_option_1,,0,190,190,198,1
5ecee03e0e92803029b7ad82,63f3cfca20052e4ae7554ebf,6453ce14af80da1c6dc1254d,2023-05-04_17h25.11.678,ga_syllabified_check,2022.2.5,Win32,59.95203837,,,,,,,,,,,,,,./stim/p08_syllable_1_lakadiaisto_hit.wav,p08,lakadiaisto,hit,la-ka-di-jas-to,la-ka-diais-to,la-ka-di-ais-to,la-ka-dia-is-to,-0.354166667,-0.104166667,1,0,0,4.633,text_option_1,,0,191,191,178,1
5ecee03e0e92803029b7ad82,63f3cfca20052e4ae7554ebf,6453ce14af80da1c6dc1254d,2023-05-04_17h25.11.678,ga_syllabified_check,2022.2.5,Win32,59.95203837,,,,,,,,,,,,,,./stim/p08_syllable_1_ruyiola_hit.wav,p08,ruyiola,hit,ru-yio-la,ru-yio-la,ru-yi-o-la, ,-0.394675926,-0.109953704,1,0,0,1.567,text_option_1,,0,192,192,202,1
5ecee03e0e92803029b7ad82,63f3cfca20052e4ae7554ebf,6453ce14af80da1c6dc1254d,2023-05-04_17h25.11.678,ga_syllabified_check,2022.2.5,Win32,59.95203837,,,,,,,,,,,,,,./stim/p08_syllable_1_lakabuaisto_hit.wav,p08,lakabuaisto,hit,la-ka-bu-ais-to,la-ka-buais-to,la-ka-bu-ais-to,la-ka-bua-is-to,0.378472222,-0.108796296,1,0,0,3.349,text_option_2,,0,193,193,177,1
5ecee03e0e92803029b7ad82,63f3cfca20052e4ae7554ebf,6453ce14af80da1c6dc1254d,2023-05-04_17h25.11.678,ga_syllabified_check,2022.2.5,Win32,59.95203837,,,,,,,,,,,,,,./stim/p07_syllable_1_mebochiana_hit.wav,p07,mebochiana,hit,me-bo-chia-na,me-bo-chia-na,me-bo-chi-a-na, ,-0.326388889,-0.09837963,1,0,0,1.817,text_option_1,,0,194,194,158,1
5ecee03e0e92803029b7ad82,63f3cfca20052e4ae7554ebf,6453ce14af80da1c6dc1254d,2023-05-04_17h25.11.678,ga_syllabified_check,2022.2.5,Win32,59.95203837,,,,,,,,,,,,,,./stim/p06_syllable_1_paluguato_hit.wav,p06,paluguato,hit,pa-lu-gua-to,pa-lu-gua-to,pa-lu-gu-a-to, ,-0.372685185,-0.09837963,1,0,0,4.034,text_option_1,,0,195,195,129,1
5ecee03e0e92803029b7ad82,63f3cfca20052e4ae7554ebf,6453ce14af80da1c6dc1254d,2023-05-04_17h25.11.678,ga_syllabified_check,2022.2.5,Win32,59.95203837,,,,,,,,,,,,,,./stim/p05_syllable_1_nhiape_hit.wav,p05,ñiape,hit,nhia-pe,ñia-pe,ñi-a-pe, ,-0.388888889,-0.113425926,1,0,0,0.235,text_option_1,,0,196,196,91,1
5ecee03e0e92803029b7ad82,63f3cfca20052e4ae7554ebf,6453ce14af80da1c6dc1254d,2023-05-04_17h25.11.678,ga_syllabified_check,2022.2.5,Win32,59.95203837,,,,,,,,,,,,,,./stim/p08_syllable_1_flauro_hit.wav,p08,flauro,hit,flau-ro,flau-ro,fla-u-ro, ,-0.376157407,-0.113425926,1,0,0,1.3,text_option_1,,0,197,197,175,1
5ecee03e0e92803029b7ad82,63f3cfca20052e4ae7554ebf,6453ce14af80da1c6dc1254d,2023-05-04_17h25.11.678,ga_syllabified_check,2022.2.5,Win32,59.95203837,,,,,,,,,,,,,,./stim/p03_syllable_1_falufaisto_hit.wav,p03,falufaisto,hit,fa-lu-fais-to,fa-lu-fais-to,fa-lu-fa-is-to, ,-0.358796296,-0.094907407,1,0,0,1.583,text_option_1,,0,198,198,3,1
5ecee03e0e92803029b7ad82,63f3cfca20052e4ae7554ebf,6453ce14af80da1c6dc1254d,2023-05-04_17h25.11.678,ga_syllabified_check,2022.2.5,Win32,59.95203837,,,,,,,,,,,,,,./stim/p04_syllable_1_nhiape_hit.wav,p04,ñiape,hit,nhia-pe,ñia-pe,ñi-a-pe, ,-0.40625,-0.099537037,1,0,0,0.533,text_option_1,,0,199,199,57,1
5ecee03e0e92803029b7ad82,63f3cfca20052e4ae7554ebf,6453ce14af80da1c6dc1254d,2023-05-04_17h25.11.678,ga_syllabified_check,2022.2.5,Win32,59.95203837,,,,,,,,,,,,,,./stim/p08_syllable_1_lakatuaisto_hit.wav,p08,lakatuaisto,hit,la-ka-tu-i-jis,la-ka-tuais-to,la-ka-tu-ais-to,la-ka-tua-is-to,0.021990741,-0.097222222,1,0,0,4.367,text_option_3,,0,200,200,189,1
5ecee03e0e92803029b7ad82,63f3cfca20052e4ae7554ebf,6453ce14af80da1c6dc1254d,2023-05-04_17h25.11.678,ga_syllabified_check,2022.2.5,Win32,59.95203837,,,,,,,,,,,,,,./stim/p04_syllable_1_palufauto_hit.wav,p04,palufauto,hit,pa-lu-fau-to,pa-lu-fau-to,pa-lu-fa-u-to, ,0.340277778,-0.106481481,1,0,0,2.234,text_option_2,,0,201,201,60,1
5ecee03e0e92803029b7ad82,63f3cfca20052e4ae7554ebf,6453ce14af80da1c6dc1254d,2023-05-04_17h25.11.678,ga_syllabified_check,2022.2.5,Win32,59.95203837,,,,,,,,,,,,,,./stim/p07_syllable_1_lakatiaisto_hit.wav,p07,lakatiaisto,hit,la-ka-tiai-sto,la-ka-tiais-to,la-ka-ti-ais-to,la-ka-tia-is-to,-0.40625,-0.109953704,1,0,0,2.058,text_option_1,,0,202,202,154,1
5ecee03e0e92803029b7ad82,63f3cfca20052e4ae7554ebf,6453ce14af80da1c6dc1254d,2023-05-04_17h25.11.678,ga_syllabified_check,2022.2.5,Win32,59.95203837,,,,,,,,,,,,,,./stim/p06_syllable_1_lakaduaisto_hit.wav,p06,lakaduaisto,hit,la-ka-du-a-is,la-ka-duais-to,la-ka-du-ais-to,la-ka-dua-is-to,0.048611111,-0.304398148,1,0,0,4.817,text_option_other,la-ka-du-a-is-to,0,203,203,111,1
5ecee03e0e92803029b7ad82,63f3cfca20052e4ae7554ebf,6453ce14af80da1c6dc1254d,2023-05-04_17h25.11.678,ga_syllabified_check,2022.2.5,Win32,59.95203837,,,,,,,,,,,,,,,,,,,,,,,,,,,,,,,,,,
