participant,study,session,date,expName,psychopyVersion,OS,frameRate,mouse_practice.x,mouse_practice.y,mouse_practice.leftButton,mouse_practice.midButton,mouse_practice.rightButton,mouse_practice.time,mouse_practice.clicked_name,textbox_followup_practice.text,trials_practice.thisRepN,trials_practice.thisTrialN,trials_practice.thisN,trials_practice.thisIndex,trials_practice.ran,file_path,id,item,status,response,op1,op2,op3,mouse.x,mouse.y,mouse.leftButton,mouse.midButton,mouse.rightButton,mouse.time,mouse.clicked_name,textbox_followup.text,trials.thisRepN,trials.thisTrialN,trials.thisN,trials.thisIndex,trials.ran
5edc3d681a69d49159555f91,63f3cfca20052e4ae7554ebf,6453c8bcf8c4b545c8bf14ef,2023-05-04_17h01.52.960,ga_syllabified_check,2022.2.5,Win32,60.88280061,,,,,,,,,,,,,,,,,,,,,,,,,,,,,,,,,,
5edc3d681a69d49159555f91,63f3cfca20052e4ae7554ebf,6453c8bcf8c4b545c8bf14ef,2023-05-04_17h01.52.960,ga_syllabified_check,2022.2.5,Win32,60.88280061,-0.412210655,-0.1,1,0,0,2.3663,text_option_1_practice,,0,0,0,0,1,./stim/p03_syllable_1_liamo_hit.wav,p03,liamo,hit,lia-mo,lia-mo,li-a-mo, ,,,,,,,,,,,,,
5edc3d681a69d49159555f91,63f3cfca20052e4ae7554ebf,6453c8bcf8c4b545c8bf14ef,2023-05-04_17h01.52.960,ga_syllabified_check,2022.2.5,Win32,60.88280061,-0.3890625,-0.108333397,1,0,0,0.8999,text_option_1_practice,,0,1,1,1,1,./stim/p05_syllable_1_matio_hit.wav,p05,matio,hit,ma-tio,ma-tio,ma-ti-o, ,,,,,,,,,,,,,
5edc3d681a69d49159555f91,63f3cfca20052e4ae7554ebf,6453c8bcf8c4b545c8bf14ef,2023-05-04_17h01.52.960,ga_syllabified_check,2022.2.5,Win32,60.88280061,-0.3890625,-0.108333397,1,0,0,2.3009,text_option_1_practice,,0,2,2,2,1,./stim/p08_syllable_1_liamo_hit.wav,p08,liamo,hit,ja-mo,lia-mo,li-a-mo, ,,,,,,,,,,,,,
5edc3d681a69d49159555f91,63f3cfca20052e4ae7554ebf,6453c8bcf8c4b545c8bf14ef,2023-05-04_17h01.52.960,ga_syllabified_check,2022.2.5,Win32,60.88280061,,,,,,,,,,,,,,,,,,,,,,,,,,,,,,,,,,
5edc3d681a69d49159555f91,63f3cfca20052e4ae7554ebf,6453c8bcf8c4b545c8bf14ef,2023-05-04_17h01.52.960,ga_syllabified_check,2022.2.5,Win32,60.88280061,,,,,,,,,,,,,,./stim/p07_syllable_1_chiaba_hit.wav,p07,chiaba,hit,chia-ba,chia-ba,chi-a-ba, ,-0.418692112,-0.090740776,1,0,0,1.3627,text_option_1,,0,0,0,136,1
5edc3d681a69d49159555f91,63f3cfca20052e4ae7554ebf,6453c8bcf8c4b545c8bf14ef,2023-05-04_17h01.52.960,ga_syllabified_check,2022.2.5,Win32,60.88280061,,,,,,,,,,,,,,./stim/p04_syllable_1_faluduako_hit.wav,p04,faluduako,hit,fa-lu-dua-ko,fa-lu-dua-ko,fa-lu-du-a-ko, ,-0.452951368,-0.09629631,1,0,0,2.6826,text_option_1,,0,1,1,36,1
5edc3d681a69d49159555f91,63f3cfca20052e4ae7554ebf,6453c8bcf8c4b545c8bf14ef,2023-05-04_17h01.52.960,ga_syllabified_check,2022.2.5,Win32,60.88280061,,,,,,,,,,,,,,./stim/p05_syllable_1_rausto_hit.wav,p05,rausto,hit,raus-to,raus-to,ra-us-to, ,-0.377025445,-0.107407443,1,0,0,1.6843,text_option_1,,0,2,2,99,1
5edc3d681a69d49159555f91,63f3cfca20052e4ae7554ebf,6453c8bcf8c4b545c8bf14ef,2023-05-04_17h01.52.960,ga_syllabified_check,2022.2.5,Win32,60.88280061,,,,,,,,,,,,,,./stim/p05_syllable_1_tuliafo_hit.wav,p05,tuliafo,hit,tu-lai-fo,tu-lia-fo,tu-li-a-fo, ,0.026678276,-0.308333333,1,0,0,3.9331,text_option_other,tulaifo,0,3,3,101,1
5edc3d681a69d49159555f91,63f3cfca20052e4ae7554ebf,6453c8bcf8c4b545c8bf14ef,2023-05-04_17h01.52.960,ga_syllabified_check,2022.2.5,Win32,60.88280061,,,,,,,,,,,,,,./stim/p03_syllable_1_lakabuaisto_hit.wav,p03,lakabuaisto,hit,la-ka-buais-to,la-ka-buais-to,la-ka-bu-ais-to,la-ka-bua-is-to,-0.377951399,-0.097222201,1,0,0,3.2838,text_option_1,,0,4,4,7,1
5edc3d681a69d49159555f91,63f3cfca20052e4ae7554ebf,6453c8bcf8c4b545c8bf14ef,2023-05-04_17h01.52.960,ga_syllabified_check,2022.2.5,Win32,60.88280061,,,,,,,,,,,,,,./stim/p04_syllable_1_nhiape_hit.wav,p04,ñiape,hit,nhia-pe,ñia-pe,ñi-a-pe, ,-0.409432856,-0.105555534,1,0,0,1.4254,text_option_1,,0,5,5,57,1
5edc3d681a69d49159555f91,63f3cfca20052e4ae7554ebf,6453c8bcf8c4b545c8bf14ef,2023-05-04_17h01.52.960,ga_syllabified_check,2022.2.5,Win32,60.88280061,,,,,,,,,,,,,,./stim/p07_syllable_1_palufauto_hit.wav,p07,palufauto,hit,pa-lu-fau-to,pa-lu-fau-to,pa-lu-fa-u-to, ,-0.394618066,-0.101851845,1,0,0,2.1168,text_option_1,,0,6,6,162,1
5edc3d681a69d49159555f91,63f3cfca20052e4ae7554ebf,6453c8bcf8c4b545c8bf14ef,2023-05-04_17h01.52.960,ga_syllabified_check,2022.2.5,Win32,60.88280061,,,,,,,,,,,,,,./stim/p05_syllable_1_lakabiaisto_hit.wav,p05,lakabiaisto,hit,la-ka-bi-ais-to,la-ka-biais-to,la-ka-bi-ais-to,la-ka-bia-is-to,-0.351099523,-0.112963041,1,0,0,5.4503,text_option_1,,0,7,7,74,1
5edc3d681a69d49159555f91,63f3cfca20052e4ae7554ebf,6453c8bcf8c4b545c8bf14ef,2023-05-04_17h01.52.960,ga_syllabified_check,2022.2.5,Win32,60.88280061,,,,,,,,,,,,,,./stim/p03_syllable_1_lakafuaisto_hit.wav,p03,lakafuaisto,hit,la-ka-fuais-to,la-ka-fuais-to,la-ka-fu-ais-to,la-ka-fua-is-to,-0.377951399,-0.105555534,1,0,0,3.5501,text_option_1,,0,8,8,11,1
5edc3d681a69d49159555f91,63f3cfca20052e4ae7554ebf,6453c8bcf8c4b545c8bf14ef,2023-05-04_17h01.52.960,ga_syllabified_check,2022.2.5,Win32,60.88280061,,,,,,,,,,,,,,./stim/p07_syllable_1_lakapuaisto_hit.wav,p07,lakapuaisto,hit,la-ka-puais-to,la-ka-puais-to,la-ka-pu-ais-to,la-ka-pua-is-to,-0.371469911,-0.102777799,1,0,0,2.8748,text_option_1,,0,9,9,153,1
5edc3d681a69d49159555f91,63f3cfca20052e4ae7554ebf,6453c8bcf8c4b545c8bf14ef,2023-05-04_17h01.52.960,ga_syllabified_check,2022.2.5,Win32,60.88280061,,,,,,,,,,,,,,./stim/p07_syllable_1_lakafuaisto_hit.wav,p07,lakafuaisto,hit,la-ka-fuais-to,la-ka-fuais-to,la-ka-fu-ais-to,la-ka-fua-is-to,-0.3640625,-0.104629644,1,0,0,2.05,text_option_1,,0,10,10,147,1
5edc3d681a69d49159555f91,63f3cfca20052e4ae7554ebf,6453c8bcf8c4b545c8bf14ef,2023-05-04_17h01.52.960,ga_syllabified_check,2022.2.5,Win32,60.88280061,,,,,,,,,,,,,,./stim/p05_syllable_1_lakakuaisto_hit.wav,p05,lakakuaisto,hit,la-ka-kais-to,la-ka-kuais-to,la-ka-ku-ais-to,la-ka-kua-is-to,0.01464119,-0.305555534,1,0,0,1.9671,text_option_other,lakakaisto,0,11,11,83,1
5edc3d681a69d49159555f91,63f3cfca20052e4ae7554ebf,6453c8bcf8c4b545c8bf14ef,2023-05-04_17h01.52.960,ga_syllabified_check,2022.2.5,Win32,60.88280061,,,,,,,,,,,,,,./stim/p04_syllable_1_paluguato_hit.wav,p04,paluguato,hit,pa-lu-gua,pa-lu-gua-to,pa-lu-gu-a-to, ,-0.019618034,-0.305555534,1,0,0,1.6167,text_option_other,palugua,0,12,12,61,1
5edc3d681a69d49159555f91,63f3cfca20052e4ae7554ebf,6453c8bcf8c4b545c8bf14ef,2023-05-04_17h01.52.960,ga_syllabified_check,2022.2.5,Win32,60.88280061,,,,,,,,,,,,,,./stim/p05_syllable_1_lakatuaisto_hit.wav,p05,lakatuaisto,hit,la-ka-tais-to,la-ka-tuais-to,la-ka-tu-ais-to,la-ka-tua-is-to,-0.01035881,-0.309259288,1,0,0,1.2003,text_option_other,lakataisto,0,13,13,87,1
5edc3d681a69d49159555f91,63f3cfca20052e4ae7554ebf,6453c8bcf8c4b545c8bf14ef,2023-05-04_17h01.52.960,ga_syllabified_check,2022.2.5,Win32,60.88280061,,,,,,,,,,,,,,./stim/p03_syllable_1_lakakuaisto_hit.wav,p03,lakakuaisto,hit,la-ka-kuais-to,la-ka-kuais-to,la-ka-ku-ais-to,la-ka-kua-is-to,-0.366840267,-0.100925954,1,0,0,2.4501,text_option_1,,0,14,14,15,1
5edc3d681a69d49159555f91,63f3cfca20052e4ae7554ebf,6453c8bcf8c4b545c8bf14ef,2023-05-04_17h01.52.960,ga_syllabified_check,2022.2.5,Win32,60.88280061,,,,,,,,,,,,,,./stim/p03_syllable_1_lakapuaisto_hit.wav,p03,lakapuaisto,hit,la-ka-puais-to,la-ka-puais-to,la-ka-pu-ais-to,la-ka-pua-is-to,-0.391840267,-0.1,1,0,0,1.2337,text_option_1,,0,15,15,17,1
5edc3d681a69d49159555f91,63f3cfca20052e4ae7554ebf,6453c8bcf8c4b545c8bf14ef,2023-05-04_17h01.52.960,ga_syllabified_check,2022.2.5,Win32,60.88280061,,,,,,,,,,,,,,./stim/p07_syllable_1_lakaguaisto_hit.wav,p07,lakaguaisto,hit,la-ka-guais-to,la-ka-guais-to,la-ka-gu-ais-to,la-ka-gua-is-to,-0.366840267,-0.105555534,1,0,0,1.8539,text_option_1,,0,16,16,149,1
5edc3d681a69d49159555f91,63f3cfca20052e4ae7554ebf,6453c8bcf8c4b545c8bf14ef,2023-05-04_17h01.52.960,ga_syllabified_check,2022.2.5,Win32,60.88280061,,,,,,,,,,,,,,./stim/p03_syllable_1_pachialo_hit.wav,p03,pachialo,hit,pa-chia-lo,pa-chia-lo,pa-chi-a-lo, ,-0.393692112,-0.099074109,1,0,0,1.3167,text_option_1,,0,17,17,24,1
5edc3d681a69d49159555f91,63f3cfca20052e4ae7554ebf,6453c8bcf8c4b545c8bf14ef,2023-05-04_17h01.52.960,ga_syllabified_check,2022.2.5,Win32,60.88280061,,,,,,,,,,,,,,./stim/p06_syllable_1_lakaduaisto_hit.wav,p06,lakaduaisto,hit,la-ka-du-a-is,la-ka-duais-to,la-ka-du-ais-to,la-ka-dua-is-to,0.345196788,-0.111111132,1,0,0,7.4988,text_option_2,,0,18,18,111,1
5edc3d681a69d49159555f91,63f3cfca20052e4ae7554ebf,6453c8bcf8c4b545c8bf14ef,2023-05-04_17h01.52.960,ga_syllabified_check,2022.2.5,Win32,60.88280061,,,,,,,,,,,,,,./stim/p06_syllable_1_lakakiaisto_hit.wav,p06,lakakiaisto,hit,la-ka-kia-is-to,la-ka-kiais-to,la-ka-ki-ais-to,la-ka-kia-is-to,0.042418989,-0.097222201,1,0,0,4.0398,text_option_3,,0,19,19,116,1
5edc3d681a69d49159555f91,63f3cfca20052e4ae7554ebf,6453c8bcf8c4b545c8bf14ef,2023-05-04_17h01.52.960,ga_syllabified_check,2022.2.5,Win32,60.88280061,,,,,,,,,,,,,,./stim/p03_syllable_1_lakadiaisto_hit.wav,p03,lakadiaisto,hit,la-ka-diais-to,la-ka-diais-to,la-ka-di-ais-to,la-ka-dia-is-to,-0.428877322,-0.100925954,1,0,0,1.5997,text_option_1,,0,20,20,8,1
5edc3d681a69d49159555f91,63f3cfca20052e4ae7554ebf,6453c8bcf8c4b545c8bf14ef,2023-05-04_17h01.52.960,ga_syllabified_check,2022.2.5,Win32,60.88280061,,,,,,,,,,,,,,./stim/p04_syllable_1_lakagiaisto_hit.wav,p04,lakagiaisto,hit,la-ka-giais-to,la-ka-giais-to,la-ka-gi-ais-to,la-ka-gia-is-to,-0.361284733,-0.104629644,1,0,0,1.3999,text_option_1,,0,21,21,46,1
5edc3d681a69d49159555f91,63f3cfca20052e4ae7554ebf,6453c8bcf8c4b545c8bf14ef,2023-05-04_17h01.52.960,ga_syllabified_check,2022.2.5,Win32,60.88280061,,,,,,,,,,,,,,./stim/p06_syllable_1_manhiala_hit.wav,p06,mañiala,hit,ma-nhi-a-la,ma-ñia-la,ma-ñi-a-la, ,0.420196915,-0.088888868,1,0,0,1.9661,text_option_2,,0,22,22,123,1
5edc3d681a69d49159555f91,63f3cfca20052e4ae7554ebf,6453c8bcf8c4b545c8bf14ef,2023-05-04_17h01.52.960,ga_syllabified_check,2022.2.5,Win32,60.88280061,,,,,,,,,,,,,,./stim/p08_syllable_1_palufauto_hit.wav,p08,palufauto,hit,pa-lu-fau-to,pa-lu-fau-to,pa-lu-fa-u-to, ,-0.356655089,-0.104629644,1,0,0,2.816,text_option_1,,0,23,23,196,1
5edc3d681a69d49159555f91,63f3cfca20052e4ae7554ebf,6453c8bcf8c4b545c8bf14ef,2023-05-04_17h01.52.960,ga_syllabified_check,2022.2.5,Win32,60.88280061,,,,,,,,,,,,,,./stim/p03_syllable_1_lakaduaisto_hit.wav,p03,lakaduaisto,hit,la-ka-duais-to,la-ka-duais-to,la-ka-du-ais-to,la-ka-dua-is-to,-0.406655089,-0.100925954,1,0,0,1.6833,text_option_1,,0,24,24,9,1
5edc3d681a69d49159555f91,63f3cfca20052e4ae7554ebf,6453c8bcf8c4b545c8bf14ef,2023-05-04_17h01.52.960,ga_syllabified_check,2022.2.5,Win32,60.88280061,,,,,,,,,,,,,,./stim/p06_syllable_1_lakadiaisto_hit.wav,p06,lakadiaisto,hit,la-ka-dia-is-to,la-ka-diais-to,la-ka-di-ais-to,la-ka-dia-is-to,0.042418989,-0.112963041,1,0,0,2.9832,text_option_3,,0,25,25,110,1
5edc3d681a69d49159555f91,63f3cfca20052e4ae7554ebf,6453c8bcf8c4b545c8bf14ef,2023-05-04_17h01.52.960,ga_syllabified_check,2022.2.5,Win32,60.88280061,,,,,,,,,,,,,,./stim/p06_syllable_1_lakafuaisto_hit.wav,p06,lakafuaisto,hit,la-ka-fu-a-is,la-ka-fuais-to,la-ka-fu-ais-to,la-ka-fua-is-to,0.416493098,-0.107407443,1,0,0,3.6665,text_option_2,,0,26,26,113,1
5edc3d681a69d49159555f91,63f3cfca20052e4ae7554ebf,6453c8bcf8c4b545c8bf14ef,2023-05-04_17h01.52.960,ga_syllabified_check,2022.2.5,Win32,60.88280061,,,,,,,,,,,,,,./stim/p08_syllable_1_lliape_hit.wav,p08,lliape,hit,li-a-pe,llia-pe,lli-a-pe, ,0.410937627,-0.1,1,0,0,4.2169,text_option_2,,0,27,27,190,1
5edc3d681a69d49159555f91,63f3cfca20052e4ae7554ebf,6453c8bcf8c4b545c8bf14ef,2023-05-04_17h01.52.960,ga_syllabified_check,2022.2.5,Win32,60.88280061,,,,,,,,,,,,,,./stim/p07_syllable_1_mebochiana_hit.wav,p07,mebochiana,hit,me-bo-chia-na,me-bo-chia-na,me-bo-chi-a-na, ,-0.307581011,-0.093518511,1,0,0,2.1993,text_option_1,,0,28,28,158,1
5edc3d681a69d49159555f91,63f3cfca20052e4ae7554ebf,6453c8bcf8c4b545c8bf14ef,2023-05-04_17h01.52.960,ga_syllabified_check,2022.2.5,Win32,60.88280061,,,,,,,,,,,,,,./stim/p07_syllable_1_lakaduaisto_hit.wav,p07,lakaduaisto,hit,la-ka-duais-to,la-ka-duais-to,la-ka-du-ais-to,la-ka-dua-is-to,-0.395543989,-0.111111132,1,0,0,2.7167,text_option_1,,0,29,29,145,1
5edc3d681a69d49159555f91,63f3cfca20052e4ae7554ebf,6453c8bcf8c4b545c8bf14ef,2023-05-04_17h01.52.960,ga_syllabified_check,2022.2.5,Win32,60.88280061,,,,,,,,,,,,,,./stim/p07_syllable_1_ruyiola_hit.wav,p07,ruyiola,hit,ru-yio-la,ru-yio-la,ru-yi-o-la, ,-0.394618066,-0.107407443,1,0,0,0.95,text_option_1,,0,30,30,168,1
5edc3d681a69d49159555f91,63f3cfca20052e4ae7554ebf,6453c8bcf8c4b545c8bf14ef,2023-05-04_17h01.52.960,ga_syllabified_check,2022.2.5,Win32,60.88280061,,,,,,,,,,,,,,./stim/p03_syllable_1_palutrauco_hit.wav,p03,palutrauco,hit,pa-lu-trau-co,pa-lu-trau-co,pa-lu-tra-u-co, ,-0.398321756,-0.109259288,1,0,0,1.3841,text_option_1,,0,31,31,29,1
5edc3d681a69d49159555f91,63f3cfca20052e4ae7554ebf,6453c8bcf8c4b545c8bf14ef,2023-05-04_17h01.52.960,ga_syllabified_check,2022.2.5,Win32,60.88280061,,,,,,,,,,,,,,./stim/p08_syllable_1_falufaisto_hit.wav,p08,falufaisto,hit,fa-lu-fais-to,fa-lu-fais-to,fa-lu-fa-is-to, ,-0.353877322,-0.100925954,1,0,0,1.724,text_option_1,,0,32,32,173,1
5edc3d681a69d49159555f91,63f3cfca20052e4ae7554ebf,6453c8bcf8c4b545c8bf14ef,2023-05-04_17h01.52.960,ga_syllabified_check,2022.2.5,Win32,60.88280061,,,,,,,,,,,,,,./stim/p06_syllable_1_nhiape_hit.wav,p06,ñiape,hit,nhi-a-pe,ñia-pe,ñi-a-pe, ,0.351678212,-0.098148155,1,0,0,1.2836,text_option_2,,0,33,33,125,1
5edc3d681a69d49159555f91,63f3cfca20052e4ae7554ebf,6453c8bcf8c4b545c8bf14ef,2023-05-04_17h01.52.960,ga_syllabified_check,2022.2.5,Win32,60.88280061,,,,,,,,,,,,,,./stim/p06_syllable_1_palufauro_hit.wav,p06,palufauro,hit,pa-lu-fau-ro,pa-lu-fau-ro,pa-lu-fa-u-ro, ,0.434085719,-0.103703753,1,0,0,3.9699,text_option_2,,0,34,34,127,1
5edc3d681a69d49159555f91,63f3cfca20052e4ae7554ebf,6453c8bcf8c4b545c8bf14ef,2023-05-04_17h01.52.960,ga_syllabified_check,2022.2.5,Win32,60.88280061,,,,,,,,,,,,,,./stim/p06_syllable_1_lliape_hit.wav,p06,lliape,hit,lli-lla-pe,llia-pe,lli-a-pe, ,0.396122742,-0.099074109,1,0,0,2.3829,text_option_2,,0,35,35,122,1
5edc3d681a69d49159555f91,63f3cfca20052e4ae7554ebf,6453c8bcf8c4b545c8bf14ef,2023-05-04_17h01.52.960,ga_syllabified_check,2022.2.5,Win32,60.88280061,,,,,,,,,,,,,,./stim/p04_syllable_1_mebochiana_hit.wav,p04,mebochiana,hit,me-bo-chia-na,me-bo-chia-na,me-bo-chi-a-na, ,-0.408506934,-0.100925954,1,0,0,2.484,text_option_1,,0,36,36,56,1
5edc3d681a69d49159555f91,63f3cfca20052e4ae7554ebf,6453c8bcf8c4b545c8bf14ef,2023-05-04_17h01.52.960,ga_syllabified_check,2022.2.5,Win32,60.88280061,,,,,,,,,,,,,,./stim/p05_syllable_1_lakafiaisto_hit.wav,p05,lakafiaisto,hit,la-ka-fi-ais-to,la-ka-fiais-to,la-ka-fi-ais-to,la-ka-fia-is-to,0.44797465,-0.115740776,1,0,0,2.2835,text_option_2,,0,37,37,78,1
5edc3d681a69d49159555f91,63f3cfca20052e4ae7554ebf,6453c8bcf8c4b545c8bf14ef,2023-05-04_17h01.52.960,ga_syllabified_check,2022.2.5,Win32,60.88280061,,,,,,,,,,,,,,./stim/p04_syllable_1_palufauro_hit.wav,p04,palufauro,hit,pa-lu-fau-ro,pa-lu-fau-ro,pa-lu-fa-u-ro, ,-0.393692112,-0.105555534,1,0,0,1.2166,text_option_1,,0,38,38,59,1
5edc3d681a69d49159555f91,63f3cfca20052e4ae7554ebf,6453c8bcf8c4b545c8bf14ef,2023-05-04_17h01.52.960,ga_syllabified_check,2022.2.5,Win32,60.88280061,,,,,,,,,,,,,,./stim/p06_syllable_1_lakagiaisto_hit.wav,p06,lakagiaisto,hit,la-ka-gia-is-to,la-ka-giais-to,la-ka-gi-ais-to,la-ka-gia-is-to,-0.024247678,-0.111111132,1,0,0,3.9495,text_option_3,,0,39,39,114,1
5edc3d681a69d49159555f91,63f3cfca20052e4ae7554ebf,6453c8bcf8c4b545c8bf14ef,2023-05-04_17h01.52.960,ga_syllabified_check,2022.2.5,Win32,60.88280061,,,,,,,,,,,,,,./stim/p03_syllable_1_lakafiaisto_hit.wav,p03,lakafiaisto,hit,la-ka-fiais-to,la-ka-fiais-to,la-ka-fi-ais-to,la-ka-fia-is-to,-0.416840267,-0.098148155,1,0,0,1.0172,text_option_1,,0,40,40,10,1
5edc3d681a69d49159555f91,63f3cfca20052e4ae7554ebf,6453c8bcf8c4b545c8bf14ef,2023-05-04_17h01.52.960,ga_syllabified_check,2022.2.5,Win32,60.88280061,,,,,,,,,,,,,,./stim/p06_syllable_1_lakapuaisto_hit.wav,p06,lakapuaisto,hit,la-ka-pu-a-is,la-ka-puais-to,la-ka-pu-ais-to,la-ka-pua-is-to,0.43223381,-0.107407443,1,0,0,5.4166,text_option_2,,0,41,41,119,1
5edc3d681a69d49159555f91,63f3cfca20052e4ae7554ebf,6453c8bcf8c4b545c8bf14ef,2023-05-04_17h01.52.960,ga_syllabified_check,2022.2.5,Win32,60.88280061,,,,,,,,,,,,,,./stim/p04_syllable_1_flauro_hit.wav,p04,flauro,hit,flau-ro,flau-ro,fla-u-ro, ,-0.410358779,-0.100925954,1,0,0,0.7165,text_option_1,,0,42,42,39,1
5edc3d681a69d49159555f91,63f3cfca20052e4ae7554ebf,6453c8bcf8c4b545c8bf14ef,2023-05-04_17h01.52.960,ga_syllabified_check,2022.2.5,Win32,60.88280061,,,,,,,,,,,,,,./stim/p08_syllable_1_payielo_hit.wav,p08,payielo,hit,pa-yie-lo,pa-yie-lo,pa-yi-e-lo, ,-0.386284733,-0.097222201,1,0,0,0.9173,text_option_1,,0,43,43,200,1
5edc3d681a69d49159555f91,63f3cfca20052e4ae7554ebf,6453c8bcf8c4b545c8bf14ef,2023-05-04_17h01.52.960,ga_syllabified_check,2022.2.5,Win32,60.88280061,,,,,,,,,,,,,,./stim/p07_syllable_1_lakabuaisto_hit.wav,p07,lakabuaisto,hit,la-ka-buais-to,la-ka-buais-to,la-ka-bu-ais-to,la-ka-bua-is-to,-0.366840267,-0.093518511,1,0,0,2.1545,text_option_1,,0,44,44,143,1
5edc3d681a69d49159555f91,63f3cfca20052e4ae7554ebf,6453c8bcf8c4b545c8bf14ef,2023-05-04_17h01.52.960,ga_syllabified_check,2022.2.5,Win32,60.88280061,,,,,,,,,,,,,,./stim/p03_syllable_1_lakaguaisto_hit.wav,p03,lakaguaisto,hit,la-ka-guais-to,la-ka-guais-to,la-ka-gu-ais-to,la-ka-gua-is-to,-0.371469911,-0.107407443,1,0,0,1.6661,text_option_1,,0,45,45,13,1
5edc3d681a69d49159555f91,63f3cfca20052e4ae7554ebf,6453c8bcf8c4b545c8bf14ef,2023-05-04_17h01.52.960,ga_syllabified_check,2022.2.5,Win32,60.88280061,,,,,,,,,,,,,,./stim/p08_syllable_1_manhiala_hit.wav,p08,mañiala,hit,ma-nhia-la,ma-ñia-la,ma-ñi-a-la, ,-0.358506934,-0.103703753,1,0,0,1.2335,text_option_1,,0,46,46,191,1
5edc3d681a69d49159555f91,63f3cfca20052e4ae7554ebf,6453c8bcf8c4b545c8bf14ef,2023-05-04_17h01.52.960,ga_syllabified_check,2022.2.5,Win32,60.88280061,,,,,,,,,,,,,,./stim/p08_syllable_1_lakakiaisto_hit.wav,p08,lakakiaisto,hit,la-ka-ki-jas-to,la-ka-kiais-to,la-ka-ki-ais-to,la-ka-kia-is-to,0.047974586,-0.286111132,1,0,0,4.5003,text_option_other,lakakiasto,0,47,47,184,1
5edc3d681a69d49159555f91,63f3cfca20052e4ae7554ebf,6453c8bcf8c4b545c8bf14ef,2023-05-04_17h01.52.960,ga_syllabified_check,2022.2.5,Win32,60.88280061,,,,,,,,,,,,,,./stim/p06_syllable_1_rausto_hit.wav,p06,rausto,hit,ra-us-to,raus-to,ra-us-to, ,0.429456202,-0.116666667,1,0,0,3.1165,text_option_2,,0,48,48,133,1
5edc3d681a69d49159555f91,63f3cfca20052e4ae7554ebf,6453c8bcf8c4b545c8bf14ef,2023-05-04_17h01.52.960,ga_syllabified_check,2022.2.5,Win32,60.88280061,,,,,,,,,,,,,,./stim/p08_syllable_1_lakakuaisto_hit.wav,p08,lakakuaisto,hit,la-ka-ku-ais-to,la-ka-kuais-to,la-ka-ku-ais-to,la-ka-kua-is-to,0.410937627,-0.115740776,1,0,0,3.6494,text_option_2,,0,49,49,185,1
5edc3d681a69d49159555f91,63f3cfca20052e4ae7554ebf,6453c8bcf8c4b545c8bf14ef,2023-05-04_17h01.52.960,ga_syllabified_check,2022.2.5,Win32,60.88280061,,,,,,,,,,,,,,./stim/p06_syllable_1_lakabuaisto_hit.wav,p06,lakabuaisto,hit,la-ka-bu-a-is,la-ka-buais-to,la-ka-bu-ais-to,la-ka-bua-is-to,0.079456011,-0.113888868,1,0,0,4.3659,text_option_3,,0,50,50,109,1
5edc3d681a69d49159555f91,63f3cfca20052e4ae7554ebf,6453c8bcf8c4b545c8bf14ef,2023-05-04_17h01.52.960,ga_syllabified_check,2022.2.5,Win32,60.88280061,,,,,,,,,,,,,,./stim/p07_syllable_1_palumaisto_hit.wav,p07,palumaisto,hit,pa-lu-mais-to,pa-lu-mais-to,pa-lu-ma-is-to, ,-0.352025477,-0.106481489,1,0,0,2.8189,text_option_1,,0,51,51,164,1
5edc3d681a69d49159555f91,63f3cfca20052e4ae7554ebf,6453c8bcf8c4b545c8bf14ef,2023-05-04_17h01.52.960,ga_syllabified_check,2022.2.5,Win32,60.88280061,,,,,,,,,,,,,,./stim/p08_syllable_1_lakadiaisto_hit.wav,p08,lakadiaisto,hit,la-ka-di-jas-to,la-ka-diais-to,la-ka-di-ais-to,la-ka-dia-is-to,-0.366840267,-0.100925954,1,0,0,3.4837,text_option_1,,0,52,52,178,1
5edc3d681a69d49159555f91,63f3cfca20052e4ae7554ebf,6453c8bcf8c4b545c8bf14ef,2023-05-04_17h01.52.960,ga_syllabified_check,2022.2.5,Win32,60.88280061,,,,,,,,,,,,,,./stim/p04_syllable_1_lakakuaisto_hit.wav,p04,lakakuaisto,hit,la-ka-kuais-to,la-ka-kuais-to,la-ka-ku-ais-to,la-ka-kua-is-to,-0.363136578,-0.100925954,1,0,0,0.6516,text_option_1,,0,53,53,49,1
5edc3d681a69d49159555f91,63f3cfca20052e4ae7554ebf,6453c8bcf8c4b545c8bf14ef,2023-05-04_17h01.52.960,ga_syllabified_check,2022.2.5,Win32,60.88280061,,,,,,,,,,,,,,./stim/p04_syllable_1_lakatuaisto_hit.wav,p04,lakatuaisto,hit,la-ka-kuais-to,la-ka-tuais-to,la-ka-tu-ais-to,la-ka-tua-is-to,-0.33535881,-0.120370356,1,0,0,0.8913,text_option_1,,0,54,54,53,1
5edc3d681a69d49159555f91,63f3cfca20052e4ae7554ebf,6453c8bcf8c4b545c8bf14ef,2023-05-04_17h01.52.960,ga_syllabified_check,2022.2.5,Win32,60.88280061,,,,,,,,,,,,,,./stim/p03_syllable_1_lakapiaisto_hit.wav,p03,lakapiaisto,hit,la-ka-piais-to,la-ka-piais-to,la-ka-pi-ais-to,la-ka-pia-is-to,-0.339988391,-0.100925954,1,0,0,0.9648,text_option_1,,0,55,55,16,1
5edc3d681a69d49159555f91,63f3cfca20052e4ae7554ebf,6453c8bcf8c4b545c8bf14ef,2023-05-04_17h01.52.960,ga_syllabified_check,2022.2.5,Win32,60.88280061,,,,,,,,,,,,,,./stim/p03_syllable_1_ruyiola_hit.wav,p03,ruyiola,hit,ru-yio-la,ru-yio-la,ru-yi-o-la, ,-0.352025477,-0.114814822,1,0,0,0.7917,text_option_1,,0,56,56,32,1
5edc3d681a69d49159555f91,63f3cfca20052e4ae7554ebf,6453c8bcf8c4b545c8bf14ef,2023-05-04_17h01.52.960,ga_syllabified_check,2022.2.5,Win32,60.88280061,,,,,,,,,,,,,,./stim/p08_syllable_1_rausto_hit.wav,p08,rausto,hit,raus-to,raus-to,ra-us-to, ,-0.358506934,-0.104629644,1,0,0,0.5164,text_option_1,,0,57,57,201,1
5edc3d681a69d49159555f91,63f3cfca20052e4ae7554ebf,6453c8bcf8c4b545c8bf14ef,2023-05-04_17h01.52.960,ga_syllabified_check,2022.2.5,Win32,60.88280061,,,,,,,,,,,,,,./stim/p07_syllable_1_lakakuaisto_hit.wav,p07,lakakuaisto,hit,la-ka-kuais-to,la-ka-kuais-to,la-ka-ku-ais-to,la-ka-kua-is-to,-0.341840299,-0.101851845,1,0,0,2.032,text_option_1,,0,58,58,151,1
5edc3d681a69d49159555f91,63f3cfca20052e4ae7554ebf,6453c8bcf8c4b545c8bf14ef,2023-05-04_17h01.52.960,ga_syllabified_check,2022.2.5,Win32,60.88280061,,,,,,,,,,,,,,./stim/p04_syllable_1_lakafuaisto_hit.wav,p04,lakafuaisto,hit,la-ka-fuais-to,la-ka-fuais-to,la-ka-fu-ais-to,la-ka-fua-is-to,-0.341840299,-0.101851845,1,0,0,0.4163,text_option_1,,0,59,59,45,1
5edc3d681a69d49159555f91,63f3cfca20052e4ae7554ebf,6453c8bcf8c4b545c8bf14ef,2023-05-04_17h01.52.960,ga_syllabified_check,2022.2.5,Win32,60.88280061,,,,,,,,,,,,,,./stim/p08_syllable_1_falutraigo_hit.wav,p08,falutraigo,hit,fa-lu-trai-go,fa-lu-trai-go,fa-lu-tra-i-go, ,-0.344618034,-0.113888868,1,0,0,1.5005,text_option_1,,0,60,60,174,1
5edc3d681a69d49159555f91,63f3cfca20052e4ae7554ebf,6453c8bcf8c4b545c8bf14ef,2023-05-04_17h01.52.960,ga_syllabified_check,2022.2.5,Win32,60.88280061,,,,,,,,,,,,,,./stim/p05_syllable_1_nhiape_hit.wav,p05,ñiape,hit,nhia-pe,ñia-pe,ñi-a-pe, ,-0.366840267,-0.097222201,1,0,0,0.1004,text_option_1,,0,61,61,91,1
5edc3d681a69d49159555f91,63f3cfca20052e4ae7554ebf,6453c8bcf8c4b545c8bf14ef,2023-05-04_17h01.52.960,ga_syllabified_check,2022.2.5,Win32,60.88280061,,,,,,,,,,,,,,./stim/p04_syllable_1_payielo_hit.wav,p04,payielo,hit,pa-yie-lo,pa-yie-lo,pa-yi-e-lo, ,-0.3640625,-0.118518511,1,0,0,0.6167,text_option_1,,0,62,62,64,1
5edc3d681a69d49159555f91,63f3cfca20052e4ae7554ebf,6453c8bcf8c4b545c8bf14ef,2023-05-04_17h01.52.960,ga_syllabified_check,2022.2.5,Win32,60.88280061,,,,,,,,,,,,,,./stim/p07_syllable_1_lakagiaisto_hit.wav,p07,lakagiaisto,hit,la-ka-gais-to,la-ka-giais-to,la-ka-gi-ais-to,la-ka-gia-is-to,-0.352025477,-0.115740776,1,0,0,3.4827,text_option_1,,0,63,63,148,1
5edc3d681a69d49159555f91,63f3cfca20052e4ae7554ebf,6453c8bcf8c4b545c8bf14ef,2023-05-04_17h01.52.960,ga_syllabified_check,2022.2.5,Win32,60.88280061,,,,,,,,,,,,,,./stim/p04_syllable_1_lakabiaisto_hit.wav,p04,lakabiaisto,hit,la-ka-biais-to,la-ka-biais-to,la-ka-bi-ais-to,la-ka-bia-is-to,-0.349247678,-0.106481489,1,0,0,0.8331,text_option_1,,0,64,64,40,1
5edc3d681a69d49159555f91,63f3cfca20052e4ae7554ebf,6453c8bcf8c4b545c8bf14ef,2023-05-04_17h01.52.960,ga_syllabified_check,2022.2.5,Win32,60.88280061,,,,,,,,,,,,,,./stim/p08_syllable_1_lakafuaisto_hit.wav,p08,lakafuaisto,hit,la-ka-fju-ais-to,la-ka-fuais-to,la-ka-fu-ais-to,la-ka-fua-is-to,-0.004803212,-0.103703753,1,0,0,4.949,text_option_3,,0,65,65,181,1
5edc3d681a69d49159555f91,63f3cfca20052e4ae7554ebf,6453c8bcf8c4b545c8bf14ef,2023-05-04_17h01.52.960,ga_syllabified_check,2022.2.5,Win32,60.88280061,,,,,,,,,,,,,,./stim/p03_syllable_1_lakagiaisto_hit.wav,p03,lakagiaisto,hit,la-ka-giais-to,la-ka-giais-to,la-ka-gi-ais-to,la-ka-gia-is-to,-0.338136546,-0.101851845,1,0,0,2.65,text_option_1,,0,66,66,12,1
5edc3d681a69d49159555f91,63f3cfca20052e4ae7554ebf,6453c8bcf8c4b545c8bf14ef,2023-05-04_17h01.52.960,ga_syllabified_check,2022.2.5,Win32,60.88280061,,,,,,,,,,,,,,./stim/p03_syllable_1_nhiape_hit.wav,p03,ñiape,hit,nhia-pe,ñia-pe,ñi-a-pe, ,-0.377951399,-0.111111132,1,0,0,0.7335,text_option_1,,0,67,67,23,1
5edc3d681a69d49159555f91,63f3cfca20052e4ae7554ebf,6453c8bcf8c4b545c8bf14ef,2023-05-04_17h01.52.960,ga_syllabified_check,2022.2.5,Win32,60.88280061,,,,,,,,,,,,,,./stim/p06_syllable_1_payielo_hit.wav,p06,payielo,hit,pa-yi-e-lo,pa-yie-lo,pa-yi-e-lo, ,0.410011546,-0.108333397,1,0,0,2.2166,text_option_2,,0,68,68,132,1
5edc3d681a69d49159555f91,63f3cfca20052e4ae7554ebf,6453c8bcf8c4b545c8bf14ef,2023-05-04_17h01.52.960,ga_syllabified_check,2022.2.5,Win32,60.88280061,,,,,,,,,,,,,,./stim/p08_syllable_1_costonhialo_hit.wav,p08,costoñialo,hit,cos-to-nhia-lo,cos-to-ñia-lo,cos-to-ñi-a-lo, ,-0.347395833,-0.102777799,1,0,0,2.0988,text_option_1,,0,69,69,171,1
5edc3d681a69d49159555f91,63f3cfca20052e4ae7554ebf,6453c8bcf8c4b545c8bf14ef,2023-05-04_17h01.52.960,ga_syllabified_check,2022.2.5,Win32,60.88280061,,,,,,,,,,,,,,./stim/p07_syllable_1_flauro_hit.wav,p07,flauro,hit,flau-ro,flau-ro,fla-u-ro, ,-0.3640625,-0.106481489,1,0,0,1.0495,text_option_1,,0,70,70,141,1
5edc3d681a69d49159555f91,63f3cfca20052e4ae7554ebf,6453c8bcf8c4b545c8bf14ef,2023-05-04_17h01.52.960,ga_syllabified_check,2022.2.5,Win32,60.88280061,,,,,,,,,,,,,,./stim/p05_syllable_1_lakagiaisto_hit.wav,p05,lakagiaisto,hit,la-ka-ki-ais-to,la-ka-giais-to,la-ka-gi-ais-to,la-ka-gia-is-to,-0.3640625,-0.106481489,1,0,0,1.1065,text_option_1,,0,71,71,80,1
5edc3d681a69d49159555f91,63f3cfca20052e4ae7554ebf,6453c8bcf8c4b545c8bf14ef,2023-05-04_17h01.52.960,ga_syllabified_check,2022.2.5,Win32,60.88280061,,,,,,,,,,,,,,./stim/p03_syllable_1_mebochiana_hit.wav,p03,mebochiana,hit,me-bo-chia-na,me-bo-chia-na,me-bo-chi-a-na, ,-0.3640625,-0.107407443,1,0,0,2.7166,text_option_1,,0,72,72,22,1
5edc3d681a69d49159555f91,63f3cfca20052e4ae7554ebf,6453c8bcf8c4b545c8bf14ef,2023-05-04_17h01.52.960,ga_syllabified_check,2022.2.5,Win32,60.88280061,,,,,,,,,,,,,,./stim/p05_syllable_1_palufauto_hit.wav,p05,palufauto,hit,pa-lu-fau-to,pa-lu-fau-to,pa-lu-fa-u-to, ,-0.3640625,-0.107407443,1,0,0,0.9839,text_option_1,,0,73,73,94,1
5edc3d681a69d49159555f91,63f3cfca20052e4ae7554ebf,6453c8bcf8c4b545c8bf14ef,2023-05-04_17h01.52.960,ga_syllabified_check,2022.2.5,Win32,60.88280061,,,,,,,,,,,,,,./stim/p08_syllable_1_ruyiola_hit.wav,p08,ruyiola,hit,ru-yio-la,ru-yio-la,ru-yi-o-la, ,-0.364988422,-0.108333397,1,0,0,0.7338,text_option_1,,0,74,74,202,1
5edc3d681a69d49159555f91,63f3cfca20052e4ae7554ebf,6453c8bcf8c4b545c8bf14ef,2023-05-04_17h01.52.960,ga_syllabified_check,2022.2.5,Win32,60.88280061,,,,,,,,,,,,,,./stim/p04_syllable_1_lakapuaisto_hit.wav,p04,lakapuaisto,hit,la-ka-puais-to,la-ka-puais-to,la-ka-pu-ais-to,la-ka-pua-is-to,-0.363136578,-0.109259288,1,0,0,2.0339,text_option_1,,0,75,75,51,1
5edc3d681a69d49159555f91,63f3cfca20052e4ae7554ebf,6453c8bcf8c4b545c8bf14ef,2023-05-04_17h01.52.960,ga_syllabified_check,2022.2.5,Win32,60.88280061,,,,,,,,,,,,,,./stim/p04_syllable_1_falufaisto_hit.wav,p04,falufaisto,hit,fa-lu-fais-to,fa-lu-fais-to,fa-lu-fa-is-to, ,-0.363136578,-0.109259288,1,0,0,0.6164,text_option_1,,0,76,76,37,1
5edc3d681a69d49159555f91,63f3cfca20052e4ae7554ebf,6453c8bcf8c4b545c8bf14ef,2023-05-04_17h01.52.960,ga_syllabified_check,2022.2.5,Win32,60.88280061,,,,,,,,,,,,,,./stim/p04_syllable_1_manhiala_hit.wav,p04,mañiala,hit,ma-nhia-la,ma-ñia-la,ma-ñi-a-la, ,-0.363136578,-0.109259288,1,0,0,1.4329,text_option_1,,0,77,77,55,1
5edc3d681a69d49159555f91,63f3cfca20052e4ae7554ebf,6453c8bcf8c4b545c8bf14ef,2023-05-04_17h01.52.960,ga_syllabified_check,2022.2.5,Win32,60.88280061,,,,,,,,,,,,,,./stim/p06_syllable_1_faluduako_hit.wav,p06,faluduako,hit,fa-lu-dua-ko,fa-lu-dua-ko,fa-lu-du-a-ko, ,0.460011546,-0.105555534,1,0,0,4.3494,text_option_2,,0,78,78,104,1
5edc3d681a69d49159555f91,63f3cfca20052e4ae7554ebf,6453c8bcf8c4b545c8bf14ef,2023-05-04_17h01.52.960,ga_syllabified_check,2022.2.5,Win32,60.88280061,,,,,,,,,,,,,,./stim/p03_syllable_1_palumaisto_hit.wav,p03,palumaisto,hit,pa-lu-mais-to,pa-lu-mais-to,pa-lu-ma-is-to, ,-0.381655089,-0.100925954,1,0,0,1.5657,text_option_1,,0,79,79,28,1
5edc3d681a69d49159555f91,63f3cfca20052e4ae7554ebf,6453c8bcf8c4b545c8bf14ef,2023-05-04_17h01.52.960,ga_syllabified_check,2022.2.5,Win32,60.88280061,,,,,,,,,,,,,,./stim/p08_syllable_1_lakapiaisto_hit.wav,p08,lakapiaisto,hit,la-ka-pi-as-to,la-ka-piais-to,la-ka-pi-ais-to,la-ka-pia-is-to,0.469270833,-0.104629644,1,0,0,4.9503,text_option_2,,0,80,80,186,1
5edc3d681a69d49159555f91,63f3cfca20052e4ae7554ebf,6453c8bcf8c4b545c8bf14ef,2023-05-04_17h01.52.960,ga_syllabified_check,2022.2.5,Win32,60.88280061,,,,,,,,,,,,,,./stim/p06_syllable_1_chiaba_hit.wav,p06,chiaba,hit,chi-a-ba,chia-ba,chi-a-ba, ,-0.418692112,-0.102777799,1,0,0,3.7502,text_option_1,,0,81,81,102,1
5edc3d681a69d49159555f91,63f3cfca20052e4ae7554ebf,6453c8bcf8c4b545c8bf14ef,2023-05-04_17h01.52.960,ga_syllabified_check,2022.2.5,Win32,60.88280061,,,,,,,,,,,,,,./stim/p03_syllable_1_faluduako_hit.wav,p03,faluduako,hit,fa-lu-dua-ko,fa-lu-dua-ko,fa-lu-du-a-ko, ,-0.344618034,-0.106481489,1,0,0,1.4663,text_option_1,,0,82,82,2,1
5edc3d681a69d49159555f91,63f3cfca20052e4ae7554ebf,6453c8bcf8c4b545c8bf14ef,2023-05-04_17h01.52.960,ga_syllabified_check,2022.2.5,Win32,60.88280061,,,,,,,,,,,,,,./stim/p05_syllable_1_lakadiaisto_hit.wav,p05,lakadiaisto,hit,la-ka-di-ais-to,la-ka-diais-to,la-ka-di-ais-to,la-ka-dia-is-to,-0.332581011,-0.113888868,1,0,0,2.0162,text_option_1,,0,83,83,76,1
5edc3d681a69d49159555f91,63f3cfca20052e4ae7554ebf,6453c8bcf8c4b545c8bf14ef,2023-05-04_17h01.52.960,ga_syllabified_check,2022.2.5,Win32,60.88280061,,,,,,,,,,,,,,./stim/p04_syllable_1_lliape_hit.wav,p04,lliape,hit,lia-pe,llia-pe,lli-a-pe, ,-0.376099523,-0.101851845,1,0,0,0.1993,text_option_1,,0,84,84,54,1
5edc3d681a69d49159555f91,63f3cfca20052e4ae7554ebf,6453c8bcf8c4b545c8bf14ef,2023-05-04_17h01.52.960,ga_syllabified_check,2022.2.5,Win32,60.88280061,,,,,,,,,,,,,,./stim/p05_syllable_1_falufaisto_hit.wav,p05,falufaisto,hit,fa-lu-fais-to,fa-lu-fais-to,fa-lu-fa-is-to, ,-0.333506966,-0.119444466,1,0,0,0.6168,text_option_1,,0,85,85,71,1
5edc3d681a69d49159555f91,63f3cfca20052e4ae7554ebf,6453c8bcf8c4b545c8bf14ef,2023-05-04_17h01.52.960,ga_syllabified_check,2022.2.5,Win32,60.88280061,,,,,,,,,,,,,,./stim/p03_syllable_1_falufaisto_hit.wav,p03,falufaisto,hit,fa-lu-fais-to,fa-lu-fais-to,fa-lu-fa-is-to, ,-0.376099523,-0.085185178,1,0,0,1.4322,text_option_1,,0,86,86,3,1
5edc3d681a69d49159555f91,63f3cfca20052e4ae7554ebf,6453c8bcf8c4b545c8bf14ef,2023-05-04_17h01.52.960,ga_syllabified_check,2022.2.5,Win32,60.88280061,,,,,,,,,,,,,,./stim/p04_syllable_1_tuliafo_hit.wav,p04,tuliafo,hit,tu-lia-fo,tu-lia-fo,tu-li-a-fo, ,-0.410358779,-0.110185178,1,0,0,1.7165,text_option_1,,0,87,87,67,1
5edc3d681a69d49159555f91,63f3cfca20052e4ae7554ebf,6453c8bcf8c4b545c8bf14ef,2023-05-04_17h01.52.960,ga_syllabified_check,2022.2.5,Win32,60.88280061,,,,,,,,,,,,,,./stim/p07_syllable_1_falutraigo_hit.wav,p07,falutraigo,hit,fa-lu-trai-go,fa-lu-trai-go,fa-lu-tra-i-go, ,-0.411284733,-0.110185178,1,0,0,3.433,text_option_1,,0,88,88,140,1
5edc3d681a69d49159555f91,63f3cfca20052e4ae7554ebf,6453c8bcf8c4b545c8bf14ef,2023-05-04_17h01.52.960,ga_syllabified_check,2022.2.5,Win32,60.88280061,,,,,,,,,,,,,,./stim/p03_syllable_1_tuliafo_hit.wav,p03,tuliafo,hit,tu-lia-fo,tu-lia-fo,tu-li-a-fo, ,-0.399247678,-0.106481489,1,0,0,0.5939,text_option_1,,0,89,89,33,1
5edc3d681a69d49159555f91,63f3cfca20052e4ae7554ebf,6453c8bcf8c4b545c8bf14ef,2023-05-04_17h01.52.960,ga_syllabified_check,2022.2.5,Win32,60.88280061,,,,,,,,,,,,,,./stim/p03_syllable_1_manhiala_hit.wav,p03,mañiala,hit,ma-nhia-la,ma-ñia-la,ma-ñi-a-la, ,-0.399247678,-0.106481489,1,0,0,0.6854,text_option_1,,0,90,90,21,1
5edc3d681a69d49159555f91,63f3cfca20052e4ae7554ebf,6453c8bcf8c4b545c8bf14ef,2023-05-04_17h01.52.960,ga_syllabified_check,2022.2.5,Win32,60.88280061,,,,,,,,,,,,,,./stim/p06_syllable_1_lakabiaisto_hit.wav,p06,lakabiaisto,hit,la-ka-bia-is-to,la-ka-biais-to,la-ka-bi-ais-to,la-ka-bia-is-to,0.072974523,-0.112037023,1,0,0,4.0665,text_option_3,,0,91,91,108,1
5edc3d681a69d49159555f91,63f3cfca20052e4ae7554ebf,6453c8bcf8c4b545c8bf14ef,2023-05-04_17h01.52.960,ga_syllabified_check,2022.2.5,Win32,60.88280061,,,,,,,,,,,,,,./stim/p03_syllable_1_payielo_hit.wav,p03,payielo,hit,pa-yie-lo,pa-yie-lo,pa-yi-e-lo, ,-0.379803244,-0.117592684,1,0,0,0.7167,text_option_1,,0,92,92,30,1
5edc3d681a69d49159555f91,63f3cfca20052e4ae7554ebf,6453c8bcf8c4b545c8bf14ef,2023-05-04_17h01.52.960,ga_syllabified_check,2022.2.5,Win32,60.88280061,,,,,,,,,,,,,,./stim/p03_syllable_1_lliape_hit.wav,p03,lliape,hit,llia,llia-pe,lli-a-pe, ,-0.379803244,-0.117592684,1,0,0,0.4837,text_option_1,,0,93,93,20,1
5edc3d681a69d49159555f91,63f3cfca20052e4ae7554ebf,6453c8bcf8c4b545c8bf14ef,2023-05-04_17h01.52.960,ga_syllabified_check,2022.2.5,Win32,60.88280061,,,,,,,,,,,,,,./stim/p05_syllable_1_lakabuaisto_hit.wav,p05,lakabuaisto,hit,la-ka-buais-to,la-ka-buais-to,la-ka-bu-ais-to,la-ka-bua-is-to,-0.387210655,-0.109259288,1,0,0,3.2857,text_option_1,,0,94,94,75,1
5edc3d681a69d49159555f91,63f3cfca20052e4ae7554ebf,6453c8bcf8c4b545c8bf14ef,2023-05-04_17h01.52.960,ga_syllabified_check,2022.2.5,Win32,60.88280061,,,,,,,,,,,,,,./stim/p04_syllable_1_lakadiaisto_hit.wav,p04,lakadiaisto,hit,la-ka-dias-to,la-ka-diais-to,la-ka-di-ais-to,la-ka-dia-is-to,-0.387210655,-0.109259288,1,0,0,0.7499,text_option_1,,0,95,95,42,1
5edc3d681a69d49159555f91,63f3cfca20052e4ae7554ebf,6453c8bcf8c4b545c8bf14ef,2023-05-04_17h01.52.960,ga_syllabified_check,2022.2.5,Win32,60.88280061,,,,,,,,,,,,,,./stim/p06_syllable_1_lakafiaisto_hit.wav,p06,lakafiaisto,hit,la-ka-fia-is-to,la-ka-fiais-to,la-ka-fi-ais-to,la-ka-fia-is-to,0.022974523,-0.109259288,1,0,0,3.6497,text_option_3,,0,96,96,112,1
5edc3d681a69d49159555f91,63f3cfca20052e4ae7554ebf,6453c8bcf8c4b545c8bf14ef,2023-05-04_17h01.52.960,ga_syllabified_check,2022.2.5,Win32,60.88280061,,,,,,,,,,,,,,./stim/p06_syllable_1_costonhialo_hit.wav,p06,costoñialo,hit,cos-to-nhia-lo,cos-to-ñia-lo,cos-to-ñi-a-lo, ,-0.383506934,-0.109259288,1,0,0,2.742,text_option_1,,0,97,97,103,1
5edc3d681a69d49159555f91,63f3cfca20052e4ae7554ebf,6453c8bcf8c4b545c8bf14ef,2023-05-04_17h01.52.960,ga_syllabified_check,2022.2.5,Win32,60.88280061,,,,,,,,,,,,,,./stim/p06_syllable_1_flauro_hit.wav,p06,flauro,hit,fla-u-ro,flau-ro,fla-u-ro, ,0.397048696,-0.100925954,1,0,0,1.0513,text_option_2,,0,98,98,107,1
5edc3d681a69d49159555f91,63f3cfca20052e4ae7554ebf,6453c8bcf8c4b545c8bf14ef,2023-05-04_17h01.52.960,ga_syllabified_check,2022.2.5,Win32,60.88280061,,,,,,,,,,,,,,./stim/p05_syllable_1_lakakiaisto_hit.wav,p05,lakakiaisto,hit,la-ka-ki-ais-to,la-ka-kiais-to,la-ka-ki-ais-to,la-ka-kia-is-to,-0.419618066,-0.087962977,1,0,0,2.4171,text_option_1,,0,99,99,82,1
5edc3d681a69d49159555f91,63f3cfca20052e4ae7554ebf,6453c8bcf8c4b545c8bf14ef,2023-05-04_17h01.52.960,ga_syllabified_check,2022.2.5,Win32,60.88280061,,,,,,,,,,,,,,./stim/p06_syllable_1_palufauto_hit.wav,p06,palufauto,hit,pa-lu-fau-to,pa-lu-fau-to,pa-lu-fa-u-to, ,-0.358506934,-0.116666667,1,0,0,2.7667,text_option_1,,0,100,100,128,1
5edc3d681a69d49159555f91,63f3cfca20052e4ae7554ebf,6453c8bcf8c4b545c8bf14ef,2023-05-04_17h01.52.960,ga_syllabified_check,2022.2.5,Win32,60.88280061,,,,,,,,,,,,,,./stim/p07_syllable_1_paluguato_hit.wav,p07,paluguato,hit,pa-lu-gua-to,pa-lu-gua-to,pa-lu-gu-a-to, ,-0.409432856,-0.101851845,1,0,0,1.4501,text_option_1,,0,101,101,163,1
5edc3d681a69d49159555f91,63f3cfca20052e4ae7554ebf,6453c8bcf8c4b545c8bf14ef,2023-05-04_17h01.52.960,ga_syllabified_check,2022.2.5,Win32,60.88280061,,,,,,,,,,,,,,./stim/p06_syllable_1_lakapiaisto_hit.wav,p06,lakapiaisto,hit,la-ka-pia-is-to,la-ka-piais-to,la-ka-pi-ais-to,la-ka-pia-is-to,-0.035358747,-0.105555534,1,0,0,4.5344,text_option_3,,0,102,102,118,1
5edc3d681a69d49159555f91,63f3cfca20052e4ae7554ebf,6453c8bcf8c4b545c8bf14ef,2023-05-04_17h01.52.960,ga_syllabified_check,2022.2.5,Win32,60.88280061,,,,,,,,,,,,,,./stim/p08_syllable_1_mebochiana_hit.wav,p08,mebochiana,hit,me-bo-chi-a-na,me-bo-chia-na,me-bo-chi-a-na, ,0.445196788,-0.110185178,1,0,0,3.3248,text_option_2,,0,103,103,192,1
5edc3d681a69d49159555f91,63f3cfca20052e4ae7554ebf,6453c8bcf8c4b545c8bf14ef,2023-05-04_17h01.52.960,ga_syllabified_check,2022.2.5,Win32,60.88280061,,,,,,,,,,,,,,./stim/p06_syllable_1_mebochiana_hit.wav,p06,mebochiana,hit,me-bo-shi-a-na,me-bo-chia-na,me-bo-chi-a-na, ,0.327604294,-0.100925954,1,0,0,3.1191,text_option_2,,0,104,104,124,1
5edc3d681a69d49159555f91,63f3cfca20052e4ae7554ebf,6453c8bcf8c4b545c8bf14ef,2023-05-04_17h01.52.960,ga_syllabified_check,2022.2.5,Win32,60.88280061,,,,,,,,,,,,,,./stim/p05_syllable_1_palufauro_hit.wav,p05,palufauro,hit,pa-lu-fau-ro,pa-lu-fau-ro,pa-lu-fa-u-ro, ,-0.363136578,-0.099074109,1,0,0,2.1668,text_option_1,,0,105,105,93,1
5edc3d681a69d49159555f91,63f3cfca20052e4ae7554ebf,6453c8bcf8c4b545c8bf14ef,2023-05-04_17h01.52.960,ga_syllabified_check,2022.2.5,Win32,60.88280061,,,,,,,,,,,,,,./stim/p05_syllable_1_lakapuaisto_hit.wav,p05,lakapuaisto,hit,la-ka-pais-to,la-ka-puais-to,la-ka-pu-ais-to,la-ka-pua-is-to,-0.356655089,-0.111111132,1,0,0,2.2496,text_option_1,,0,106,106,85,1
5edc3d681a69d49159555f91,63f3cfca20052e4ae7554ebf,6453c8bcf8c4b545c8bf14ef,2023-05-04_17h01.52.960,ga_syllabified_check,2022.2.5,Win32,60.88280061,,,,,,,,,,,,,,./stim/p05_syllable_1_falutraigo_hit.wav,p05,falutraigo,hit,fa-lu-trai-go,fa-lu-trai-go,fa-lu-tra-i-go, ,-0.336284701,-0.102777799,1,0,0,0.5168,text_option_1,,0,107,107,72,1
5edc3d681a69d49159555f91,63f3cfca20052e4ae7554ebf,6453c8bcf8c4b545c8bf14ef,2023-05-04_17h01.52.960,ga_syllabified_check,2022.2.5,Win32,60.88280061,,,,,,,,,,,,,,./stim/p08_syllable_1_faluduako_hit.wav,p08,faluduako,hit,fa-lu-duai-ko,fa-lu-dua-ko,fa-lu-du-a-ko, ,-0.337210655,-0.104629644,1,0,0,3.383,text_option_1,,0,108,108,172,1
5edc3d681a69d49159555f91,63f3cfca20052e4ae7554ebf,6453c8bcf8c4b545c8bf14ef,2023-05-04_17h01.52.960,ga_syllabified_check,2022.2.5,Win32,60.88280061,,,,,,,,,,,,,,./stim/p08_syllable_1_chiaba_hit.wav,p08,chiaba,hit,chi-a-ba,chia-ba,chi-a-ba, ,0.426678212,-0.115740776,1,0,0,0.5571,text_option_2,,0,109,109,170,1
5edc3d681a69d49159555f91,63f3cfca20052e4ae7554ebf,6453c8bcf8c4b545c8bf14ef,2023-05-04_17h01.52.960,ga_syllabified_check,2022.2.5,Win32,60.88280061,,,,,,,,,,,,,,./stim/p08_syllable_1_lakabuaisto_hit.wav,p08,lakabuaisto,hit,la-ka-bu-ais-to,la-ka-buais-to,la-ka-bu-ais-to,la-ka-bua-is-to,-0.345543989,-0.115740776,1,0,0,2.6654,text_option_1,,0,110,110,177,1
5edc3d681a69d49159555f91,63f3cfca20052e4ae7554ebf,6453c8bcf8c4b545c8bf14ef,2023-05-04_17h01.52.960,ga_syllabified_check,2022.2.5,Win32,60.88280061,,,,,,,,,,,,,,./stim/p05_syllable_1_lakatiaisto_hit.wav,p05,lakatiaisto,hit,la-ka-ti-ais-to,la-ka-tiais-to,la-ka-ti-ais-to,la-ka-tia-is-to,-0.345543989,-0.115740776,1,0,0,1.3335,text_option_1,,0,111,111,86,1
5edc3d681a69d49159555f91,63f3cfca20052e4ae7554ebf,6453c8bcf8c4b545c8bf14ef,2023-05-04_17h01.52.960,ga_syllabified_check,2022.2.5,Win32,60.88280061,,,,,,,,,,,,,,./stim/p05_syllable_1_lakafuaisto_hit.wav,p05,lakafuaisto,hit,la-ka-fais-to,la-ka-fuais-to,la-ka-fu-ais-to,la-ka-fua-is-to,-0.341840299,-0.112963041,1,0,0,0.8002,text_option_1,,0,112,112,79,1
5edc3d681a69d49159555f91,63f3cfca20052e4ae7554ebf,6453c8bcf8c4b545c8bf14ef,2023-05-04_17h01.52.960,ga_syllabified_check,2022.2.5,Win32,60.88280061,,,,,,,,,,,,,,./stim/p04_syllable_1_palutrauco_hit.wav,p04,palutrauco,hit,pa-lu-trau-co,pa-lu-trau-co,pa-lu-tra-u-co, ,-0.341840299,-0.112963041,1,0,0,0.6042,text_option_1,,0,113,113,63,1
5edc3d681a69d49159555f91,63f3cfca20052e4ae7554ebf,6453c8bcf8c4b545c8bf14ef,2023-05-04_17h01.52.960,ga_syllabified_check,2022.2.5,Win32,60.88280061,,,,,,,,,,,,,,./stim/p06_syllable_1_palumaisto_hit.wav,p06,palumaisto,hit,pa-lu-ma-is-to,pa-lu-mais-to,pa-lu-ma-is-to, ,0.415567271,-0.112963041,1,0,0,3.1104,text_option_2,,0,114,114,130,1
5edc3d681a69d49159555f91,63f3cfca20052e4ae7554ebf,6453c8bcf8c4b545c8bf14ef,2023-05-04_17h01.52.960,ga_syllabified_check,2022.2.5,Win32,60.88280061,,,,,,,,,,,,,,./stim/p05_syllable_1_costonhialo_hit.wav,p05,costoñialo,hit,cos-to-nhia-lo,cos-to-ñia-lo,cos-to-ñi-a-lo, ,-0.369618066,-0.088888868,1,0,0,0.8848,text_option_1,,0,115,115,69,1
5edc3d681a69d49159555f91,63f3cfca20052e4ae7554ebf,6453c8bcf8c4b545c8bf14ef,2023-05-04_17h01.52.960,ga_syllabified_check,2022.2.5,Win32,60.88280061,,,,,,,,,,,,,,./stim/p07_syllable_1_rausto_hit.wav,p07,rausto,hit,raus-to,raus-to,ra-us-to, ,-0.368692112,-0.102777799,1,0,0,0.9996,text_option_1,,0,116,116,167,1
5edc3d681a69d49159555f91,63f3cfca20052e4ae7554ebf,6453c8bcf8c4b545c8bf14ef,2023-05-04_17h01.52.960,ga_syllabified_check,2022.2.5,Win32,60.88280061,,,,,,,,,,,,,,./stim/p08_syllable_1_lakatiaisto_hit.wav,p08,lakatiaisto,hit,la-ka-ti-as-to,la-ka-tiais-to,la-ka-ti-ais-to,la-ka-tia-is-to,-0.086284574,-0.110185178,1,0,0,3.5164,text_option_3,,0,117,117,188,1
5edc3d681a69d49159555f91,63f3cfca20052e4ae7554ebf,6453c8bcf8c4b545c8bf14ef,2023-05-04_17h01.52.960,ga_syllabified_check,2022.2.5,Win32,60.88280061,,,,,,,,,,,,,,./stim/p08_syllable_1_lakatuaisto_hit.wav,p08,lakatuaisto,hit,la-ka-tu-i-jis,la-ka-tuais-to,la-ka-tu-ais-to,la-ka-tua-is-to,-0.375173601,-0.089814822,1,0,0,2.7154,text_option_1,,0,118,118,189,1
5edc3d681a69d49159555f91,63f3cfca20052e4ae7554ebf,6453c8bcf8c4b545c8bf14ef,2023-05-04_17h01.52.960,ga_syllabified_check,2022.2.5,Win32,60.88280061,,,,,,,,,,,,,,./stim/p06_syllable_1_falufaisto_hit.wav,p06,falufaisto,hit,fa-lu-fa-is-to,fa-lu-fais-to,fa-lu-fa-is-to, ,0.433159765,-0.106481489,1,0,0,2.3332,text_option_2,,0,119,119,105,1
5edc3d681a69d49159555f91,63f3cfca20052e4ae7554ebf,6453c8bcf8c4b545c8bf14ef,2023-05-04_17h01.52.960,ga_syllabified_check,2022.2.5,Win32,60.88280061,,,,,,,,,,,,,,./stim/p04_syllable_1_rausto_hit.wav,p04,rausto,hit,raus-to,raus-to,ra-us-to, ,-0.395543989,-0.1,1,0,0,0.9664,text_option_1,,0,120,120,65,1
5edc3d681a69d49159555f91,63f3cfca20052e4ae7554ebf,6453c8bcf8c4b545c8bf14ef,2023-05-04_17h01.52.960,ga_syllabified_check,2022.2.5,Win32,60.88280061,,,,,,,,,,,,,,./stim/p05_syllable_1_faluduako_hit.wav,p05,faluduako,hit,fa-lu-ba-ko,fa-lu-dua-ko,fa-lu-du-a-ko, ,0.028530121,-0.300925954,1,0,0,2.2335,text_option_other,falubako,0,121,121,70,1
5edc3d681a69d49159555f91,63f3cfca20052e4ae7554ebf,6453c8bcf8c4b545c8bf14ef,2023-05-04_17h01.52.960,ga_syllabified_check,2022.2.5,Win32,60.88280061,,,,,,,,,,,,,,./stim/p06_syllable_1_ruyiola_hit.wav,p06,ruyiola,hit,ru-yi-o-la,ru-yio-la,ru-yi-o-la, ,0.393344879,-0.108333397,1,0,0,1.5333,text_option_2,,0,122,122,134,1
5edc3d681a69d49159555f91,63f3cfca20052e4ae7554ebf,6453c8bcf8c4b545c8bf14ef,2023-05-04_17h01.52.960,ga_syllabified_check,2022.2.5,Win32,60.88280061,,,,,,,,,,,,,,./stim/p05_syllable_1_lakapiaisto_hit.wav,p05,lakapiaisto,hit,la-ka-pais-to,la-ka-piais-to,la-ka-pi-ais-to,la-ka-pia-is-to,-0.312210655,-0.106481489,1,0,0,4.7186,text_option_1,,0,123,123,84,1
5edc3d681a69d49159555f91,63f3cfca20052e4ae7554ebf,6453c8bcf8c4b545c8bf14ef,2023-05-04_17h01.52.960,ga_syllabified_check,2022.2.5,Win32,60.88280061,,,,,,,,,,,,,,./stim/p05_syllable_1_lliape_hit.wav,p05,lliape,hit,liai-pe,llia-pe,lli-a-pe, ,-0.36776619,-0.108333397,1,0,0,0.3177,text_option_1,,0,124,124,88,1
5edc3d681a69d49159555f91,63f3cfca20052e4ae7554ebf,6453c8bcf8c4b545c8bf14ef,2023-05-04_17h01.52.960,ga_syllabified_check,2022.2.5,Win32,60.88280061,,,,,,,,,,,,,,./stim/p07_syllable_1_nhiape_hit.wav,p07,ñiape,hit,nhia-pe,ñia-pe,ñi-a-pe, ,-0.366840267,-0.110185178,1,0,0,0.3841,text_option_1,,0,125,125,159,1
5edc3d681a69d49159555f91,63f3cfca20052e4ae7554ebf,6453c8bcf8c4b545c8bf14ef,2023-05-04_17h01.52.960,ga_syllabified_check,2022.2.5,Win32,60.88280061,,,,,,,,,,,,,,./stim/p04_syllable_1_lakaduaisto_hit.wav,p04,lakaduaisto,hit,la-ka-duais-to,la-ka-duais-to,la-ka-du-ais-to,la-ka-dua-is-to,-0.366840267,-0.110185178,1,0,0,1.0665,text_option_1,,0,126,126,43,1
5edc3d681a69d49159555f91,63f3cfca20052e4ae7554ebf,6453c8bcf8c4b545c8bf14ef,2023-05-04_17h01.52.960,ga_syllabified_check,2022.2.5,Win32,60.88280061,,,,,,,,,,,,,,./stim/p03_syllable_1_lakatiaisto_hit.wav,p03,lakatiaisto,hit,la-ka-tiais-to,la-ka-tiais-to,la-ka-ti-ais-to,la-ka-tia-is-to,-0.390914345,-0.113888868,1,0,0,1.3178,text_option_1,,0,127,127,18,1
5edc3d681a69d49159555f91,63f3cfca20052e4ae7554ebf,6453c8bcf8c4b545c8bf14ef,2023-05-04_17h01.52.960,ga_syllabified_check,2022.2.5,Win32,60.88280061,,,,,,,,,,,,,,./stim/p03_syllable_1_rausto_hit.wav,p03,rausto,hit,raus-to,raus-to,ra-us-to, ,-0.391840267,-0.112037023,1,0,0,0.6187,text_option_1,,0,128,128,31,1
5edc3d681a69d49159555f91,63f3cfca20052e4ae7554ebf,6453c8bcf8c4b545c8bf14ef,2023-05-04_17h01.52.960,ga_syllabified_check,2022.2.5,Win32,60.88280061,,,,,,,,,,,,,,./stim/p07_syllable_1_palufauro_hit.wav,p07,palufauro,hit,pa-lu-fau-ro,pa-lu-fau-ro,pa-lu-fa-u-ro, ,-0.391840267,-0.112037023,1,0,0,1.1908,text_option_1,,0,129,129,161,1
5edc3d681a69d49159555f91,63f3cfca20052e4ae7554ebf,6453c8bcf8c4b545c8bf14ef,2023-05-04_17h01.52.960,ga_syllabified_check,2022.2.5,Win32,60.88280061,,,,,,,,,,,,,,./stim/p04_syllable_1_chiaba_hit.wav,p04,chiaba,hit,chia-ba,chia-ba,chi-a-ba, ,-0.391840267,-0.112037023,1,0,0,0.2167,text_option_1,,0,130,130,34,1
5edc3d681a69d49159555f91,63f3cfca20052e4ae7554ebf,6453c8bcf8c4b545c8bf14ef,2023-05-04_17h01.52.960,ga_syllabified_check,2022.2.5,Win32,60.88280061,,,,,,,,,,,,,,./stim/p03_syllable_1_chiaba_hit.wav,p03,chiaba,hit,chia-ba,chia-ba,chi-a-ba, ,-0.408506934,-0.099074109,1,0,0,0.6428,text_option_1,,0,131,131,0,1
5edc3d681a69d49159555f91,63f3cfca20052e4ae7554ebf,6453c8bcf8c4b545c8bf14ef,2023-05-04_17h01.52.960,ga_syllabified_check,2022.2.5,Win32,60.88280061,,,,,,,,,,,,,,./stim/p06_syllable_1_lakakuaisto_hit.wav,p06,lakakuaisto,hit,la-ka-ku-a-is,la-ka-kuais-to,la-ka-ku-ais-to,la-ka-kua-is-to,0.408159765,-0.098148155,1,0,0,2.7744,text_option_2,,0,132,132,117,1
5edc3d681a69d49159555f91,63f3cfca20052e4ae7554ebf,6453c8bcf8c4b545c8bf14ef,2023-05-04_17h01.52.960,ga_syllabified_check,2022.2.5,Win32,60.88280061,,,,,,,,,,,,,,./stim/p08_syllable_1_pachialo_hit.wav,p08,pachialo,hit,pa-chi-ja-lo,pa-chia-lo,pa-chi-a-lo, ,0.410011546,-0.107407443,1,0,0,1.2652,text_option_2,,0,133,133,194,1
5edc3d681a69d49159555f91,63f3cfca20052e4ae7554ebf,6453c8bcf8c4b545c8bf14ef,2023-05-04_17h01.52.960,ga_syllabified_check,2022.2.5,Win32,60.88280061,,,,,,,,,,,,,,./stim/p07_syllable_1_pachialo_hit.wav,p07,pachialo,hit,pa-cha-lo,pa-chia-lo,pa-chi-a-lo, ,0.403530121,-0.101851845,1,0,0,1.3002,text_option_2,,0,134,134,160,1
5edc3d681a69d49159555f91,63f3cfca20052e4ae7554ebf,6453c8bcf8c4b545c8bf14ef,2023-05-04_17h01.52.960,ga_syllabified_check,2022.2.5,Win32,60.88280061,,,,,,,,,,,,,,./stim/p08_syllable_1_flauro_hit.wav,p08,flauro,hit,flau-ro,flau-ro,fla-u-ro, ,-0.402025445,-0.103703753,1,0,0,0.4989,text_option_1,,0,135,135,175,1
5edc3d681a69d49159555f91,63f3cfca20052e4ae7554ebf,6453c8bcf8c4b545c8bf14ef,2023-05-04_17h01.52.960,ga_syllabified_check,2022.2.5,Win32,60.88280061,,,,,,,,,,,,,,./stim/p04_syllable_1_palumaisto_hit.wav,p04,palumaisto,hit,pa-lu-mais-to,pa-lu-mais-to,pa-lu-ma-is-to, ,-0.352025477,-0.094444593,1,0,0,0.6655,text_option_1,,0,136,136,62,1
5edc3d681a69d49159555f91,63f3cfca20052e4ae7554ebf,6453c8bcf8c4b545c8bf14ef,2023-05-04_17h01.52.960,ga_syllabified_check,2022.2.5,Win32,60.88280061,,,,,,,,,,,,,,./stim/p06_syllable_1_lakatuaisto_hit.wav,p06,lakatuaisto,hit,la-ka-tu-a-is,la-ka-tuais-to,la-ka-tu-ais-to,la-ka-tua-is-to,0.444270833,-0.108333397,1,0,0,4.0912,text_option_2,,0,137,137,121,1
5edc3d681a69d49159555f91,63f3cfca20052e4ae7554ebf,6453c8bcf8c4b545c8bf14ef,2023-05-04_17h01.52.960,ga_syllabified_check,2022.2.5,Win32,60.88280061,,,,,,,,,,,,,,./stim/p08_syllable_1_lakaguaisto_hit.wav,p08,lakaguaisto,hit,la-ka-gu-ais-to,la-ka-guais-to,la-ka-gu-ais-to,la-ka-gua-is-to,0.422048569,-0.108333397,1,0,0,1.6835,text_option_2,,0,138,138,183,1
5edc3d681a69d49159555f91,63f3cfca20052e4ae7554ebf,6453c8bcf8c4b545c8bf14ef,2023-05-04_17h01.52.960,ga_syllabified_check,2022.2.5,Win32,60.88280061,,,,,,,,,,,,,,./stim/p08_syllable_1_lakaduaisto_hit.wav,p08,lakaduaisto,hit,la-ka-du-ais-to,la-ka-duais-to,la-ka-du-ais-to,la-ka-dua-is-to,0.381307856,-0.107407443,1,0,0,1.9836,text_option_2,,0,139,139,179,1
5edc3d681a69d49159555f91,63f3cfca20052e4ae7554ebf,6453c8bcf8c4b545c8bf14ef,2023-05-04_17h01.52.960,ga_syllabified_check,2022.2.5,Win32,60.88280061,,,,,,,,,,,,,,./stim/p06_syllable_1_paluguato_hit.wav,p06,paluguato,hit,pa-lu-gua-to,pa-lu-gua-to,pa-lu-gu-a-to, ,-0.348321724,-0.103703753,1,0,0,2.3502,text_option_1,,0,140,140,129,1
5edc3d681a69d49159555f91,63f3cfca20052e4ae7554ebf,6453c8bcf8c4b545c8bf14ef,2023-05-04_17h01.52.960,ga_syllabified_check,2022.2.5,Win32,60.88280061,,,,,,,,,,,,,,./stim/p04_syllable_1_lakaguaisto_hit.wav,p04,lakaguaisto,hit,la-ka-guais-to,la-ka-guais-to,la-ka-gu-ais-to,la-ka-gua-is-to,-0.339988391,-0.106481489,1,0,0,1.2241,text_option_1,,0,141,141,47,1
5edc3d681a69d49159555f91,63f3cfca20052e4ae7554ebf,6453c8bcf8c4b545c8bf14ef,2023-05-04_17h01.52.960,ga_syllabified_check,2022.2.5,Win32,60.88280061,,,,,,,,,,,,,,./stim/p05_syllable_1_lakaguaisto_hit.wav,p05,lakaguaisto,hit,la-ka-gais,la-ka-guais-to,la-ka-gu-ais-to,la-ka-gua-is-to,-0.346469879,-0.102777799,1,0,0,0.8565,text_option_1,,0,142,142,81,1
5edc3d681a69d49159555f91,63f3cfca20052e4ae7554ebf,6453c8bcf8c4b545c8bf14ef,2023-05-04_17h01.52.960,ga_syllabified_check,2022.2.5,Win32,60.88280061,,,,,,,,,,,,,,./stim/p03_syllable_1_paluguato_hit.wav,p03,paluguato,hit,pa-lu-gua,pa-lu-gua-to,pa-lu-gu-a-to, ,-0.346469879,-0.102777799,1,0,0,1.0837,text_option_1,,0,143,143,27,1
5edc3d681a69d49159555f91,63f3cfca20052e4ae7554ebf,6453c8bcf8c4b545c8bf14ef,2023-05-04_17h01.52.960,ga_syllabified_check,2022.2.5,Win32,60.88280061,,,,,,,,,,,,,,./stim/p07_syllable_1_manhiala_hit.wav,p07,mañiala,hit,ma-nhia-la,ma-ñia-la,ma-ñi-a-la, ,-0.377025445,-0.093518511,1,0,0,1.3499,text_option_1,,0,144,144,157,1
5edc3d681a69d49159555f91,63f3cfca20052e4ae7554ebf,6453c8bcf8c4b545c8bf14ef,2023-05-04_17h01.52.960,ga_syllabified_check,2022.2.5,Win32,60.88280061,,,,,,,,,,,,,,./stim/p06_syllable_1_falutraigo_hit.wav,p06,falutraigo,hit,fa-lu-tra-i-go,fa-lu-trai-go,fa-lu-tra-i-go, ,0.388715235,-0.114814822,1,0,0,3.8823,text_option_2,,0,145,145,106,1
5edc3d681a69d49159555f91,63f3cfca20052e4ae7554ebf,6453c8bcf8c4b545c8bf14ef,2023-05-04_17h01.52.960,ga_syllabified_check,2022.2.5,Win32,60.88280061,,,,,,,,,,,,,,./stim/p05_syllable_1_mebochiana_hit.wav,p05,mebochiana,hit,me-cho-chai-na,me-bo-chia-na,me-bo-chi-a-na, ,0.035011609,-0.314814822,1,0,0,1.2279,text_option_other,mechochana,0,146,146,90,1
5edc3d681a69d49159555f91,63f3cfca20052e4ae7554ebf,6453c8bcf8c4b545c8bf14ef,2023-05-04_17h01.52.960,ga_syllabified_check,2022.2.5,Win32,60.88280061,,,,,,,,,,,,,,./stim/p07_syllable_1_lakabiaisto_hit.wav,p07,lakabiaisto,hit,la-ka-bais-to,la-ka-biais-to,la-ka-bi-ais-to,la-ka-bia-is-to,-0.365914345,-0.099074109,1,0,0,3.583,text_option_1,,0,147,147,142,1
5edc3d681a69d49159555f91,63f3cfca20052e4ae7554ebf,6453c8bcf8c4b545c8bf14ef,2023-05-04_17h01.52.960,ga_syllabified_check,2022.2.5,Win32,60.88280061,,,,,,,,,,,,,,./stim/p07_syllable_1_faluduako_hit.wav,p07,faluduako,hit,fa-lu-dua-ko,fa-lu-dua-ko,fa-lu-du-a-ko, ,-0.353877322,-0.108333397,1,0,0,2.0507,text_option_1,,0,148,148,138,1
5edc3d681a69d49159555f91,63f3cfca20052e4ae7554ebf,6453c8bcf8c4b545c8bf14ef,2023-05-04_17h01.52.960,ga_syllabified_check,2022.2.5,Win32,60.88280061,,,,,,,,,,,,,,./stim/p08_syllable_1_palumaisto_hit.wav,p08,palumaisto,hit,pa-lu-mais-to,pa-lu-mais-to,pa-lu-ma-is-to, ,-0.353877322,-0.108333397,1,0,0,1.7813,text_option_1,,0,149,149,198,1
5edc3d681a69d49159555f91,63f3cfca20052e4ae7554ebf,6453c8bcf8c4b545c8bf14ef,2023-05-04_17h01.52.960,ga_syllabified_check,2022.2.5,Win32,60.88280061,,,,,,,,,,,,,,./stim/p04_syllable_1_pachialo_hit.wav,p04,pachialo,hit,pa-chia-lo,pa-chia-lo,pa-chi-a-lo, ,-0.39276619,-0.099074109,1,0,0,0.9334,text_option_1,,0,150,150,58,1
5edc3d681a69d49159555f91,63f3cfca20052e4ae7554ebf,6453c8bcf8c4b545c8bf14ef,2023-05-04_17h01.52.960,ga_syllabified_check,2022.2.5,Win32,60.88280061,,,,,,,,,,,,,,./stim/p03_syllable_1_lakatuaisto_hit.wav,p03,lakatuaisto,hit,la-ka-tuais-to,la-ka-tuais-to,la-ka-tu-ais-to,la-ka-tua-is-to,-0.368692112,-0.094444593,1,0,0,1.6339,text_option_1,,0,151,151,19,1
5edc3d681a69d49159555f91,63f3cfca20052e4ae7554ebf,6453c8bcf8c4b545c8bf14ef,2023-05-04_17h01.52.960,ga_syllabified_check,2022.2.5,Win32,60.88280061,,,,,,,,,,,,,,./stim/p07_syllable_1_falufaisto_hit.wav,p07,falufaisto,hit,fa-lu-fais-to,fa-lu-fais-to,fa-lu-fa-is-to, ,-0.336284701,-0.109259288,1,0,0,1.3321,text_option_1,,0,152,152,139,1
5edc3d681a69d49159555f91,63f3cfca20052e4ae7554ebf,6453c8bcf8c4b545c8bf14ef,2023-05-04_17h01.52.960,ga_syllabified_check,2022.2.5,Win32,60.88280061,,,,,,,,,,,,,,./stim/p05_syllable_1_palutrauco_hit.wav,p05,palutrauco,hit,pa-lu-trai-co,pa-lu-trau-co,pa-lu-tra-u-co, ,-0.395543989,-0.103703753,1,0,0,1.7671,text_option_1,,0,153,153,97,1
5edc3d681a69d49159555f91,63f3cfca20052e4ae7554ebf,6453c8bcf8c4b545c8bf14ef,2023-05-04_17h01.52.960,ga_syllabified_check,2022.2.5,Win32,60.88280061,,,,,,,,,,,,,,./stim/p04_syllable_1_lakatiaisto_hit.wav,p04,lakatiaisto,hit,la-ka-kiais-to,la-ka-tiais-to,la-ka-ti-ais-to,la-ka-tia-is-to,-0.357581011,-0.109259288,1,0,0,1.0339,text_option_1,,0,154,154,52,1
5edc3d681a69d49159555f91,63f3cfca20052e4ae7554ebf,6453c8bcf8c4b545c8bf14ef,2023-05-04_17h01.52.960,ga_syllabified_check,2022.2.5,Win32,60.88280061,,,,,,,,,,,,,,./stim/p05_syllable_1_palumaisto_hit.wav,p05,palumaisto,hit,pa-lu-mais-to,pa-lu-mais-to,pa-lu-ma-is-to, ,-0.345543989,-0.09629631,1,0,0,0.9163,text_option_1,,0,155,155,96,1
5edc3d681a69d49159555f91,63f3cfca20052e4ae7554ebf,6453c8bcf8c4b545c8bf14ef,2023-05-04_17h01.52.960,ga_syllabified_check,2022.2.5,Win32,60.88280061,,,,,,,,,,,,,,./stim/p04_syllable_1_falutraigo_hit.wav,p04,falutraigo,hit,fa-lu-trai-go,fa-lu-trai-go,fa-lu-tra-i-go, ,-0.3390625,-0.099074109,1,0,0,0.399,text_option_1,,0,156,156,38,1
5edc3d681a69d49159555f91,63f3cfca20052e4ae7554ebf,6453c8bcf8c4b545c8bf14ef,2023-05-04_17h01.52.960,ga_syllabified_check,2022.2.5,Win32,60.88280061,,,,,,,,,,,,,,./stim/p07_syllable_1_lakakiaisto_hit.wav,p07,lakakiaisto,hit,la-ka-kais-to,la-ka-kiais-to,la-ka-ki-ais-to,la-ka-kia-is-to,-0.3140625,-0.106481489,1,0,0,2.2002,text_option_1,,0,157,157,150,1
5edc3d681a69d49159555f91,63f3cfca20052e4ae7554ebf,6453c8bcf8c4b545c8bf14ef,2023-05-04_17h01.52.960,ga_syllabified_check,2022.2.5,Win32,60.88280061,,,,,,,,,,,,,,./stim/p04_syllable_1_ruyiola_hit.wav,p04,ruyiola,hit,ru-yio-la,ru-yio-la,ru-yi-o-la, ,-0.364988422,-0.09629631,1,0,0,0.5,text_option_1,,0,158,158,66,1
5edc3d681a69d49159555f91,63f3cfca20052e4ae7554ebf,6453c8bcf8c4b545c8bf14ef,2023-05-04_17h01.52.960,ga_syllabified_check,2022.2.5,Win32,60.88280061,,,,,,,,,,,,,,./stim/p03_syllable_1_palufauto_hit.wav,p03,palufauto,hit,pa-lu-fau,pa-lu-fau-to,pa-lu-fa-u-to, ,-0.352025477,-0.109259288,1,0,0,0.8179,text_option_1,,0,159,159,26,1
5edc3d681a69d49159555f91,63f3cfca20052e4ae7554ebf,6453c8bcf8c4b545c8bf14ef,2023-05-04_17h01.52.960,ga_syllabified_check,2022.2.5,Win32,60.88280061,,,,,,,,,,,,,,./stim/p07_syllable_1_lakadiaisto_hit.wav,p07,lakadiaisto,hit,la-ka-dia-is-to,la-ka-diais-to,la-ka-di-ais-to,la-ka-dia-is-to,-0.009432856,-0.107407443,1,0,0,2.168,text_option_3,,0,160,160,144,1
5edc3d681a69d49159555f91,63f3cfca20052e4ae7554ebf,6453c8bcf8c4b545c8bf14ef,2023-05-04_17h01.52.960,ga_syllabified_check,2022.2.5,Win32,60.88280061,,,,,,,,,,,,,,./stim/p05_syllable_1_ruyiola_hit.wav,p05,ruyiola,hit,ru-yio-la,ru-yio-la,ru-yi-o-la, ,-0.356655089,-0.113888868,1,0,0,0.7325,text_option_1,,0,161,161,100,1
5edc3d681a69d49159555f91,63f3cfca20052e4ae7554ebf,6453c8bcf8c4b545c8bf14ef,2023-05-04_17h01.52.960,ga_syllabified_check,2022.2.5,Win32,60.88280061,,,,,,,,,,,,,,./stim/p08_syllable_1_lakafiaisto_hit.wav,p08,lakafiaisto,hit,la-ka-fi-as-to,la-ka-fiais-to,la-ka-fi-ais-to,la-ka-fia-is-to,0.433159765,-0.080555534,1,0,0,4.1658,text_option_2,,0,162,162,180,1
5edc3d681a69d49159555f91,63f3cfca20052e4ae7554ebf,6453c8bcf8c4b545c8bf14ef,2023-05-04_17h01.52.960,ga_syllabified_check,2022.2.5,Win32,60.88280061,,,,,,,,,,,,,,./stim/p06_syllable_1_pachialo_hit.wav,p06,pachialo,hit,pa-shi-a-lo,pa-chia-lo,pa-chi-a-lo, ,0.425752385,-0.100925954,1,0,0,1.2031,text_option_2,,0,163,163,126,1
5edc3d681a69d49159555f91,63f3cfca20052e4ae7554ebf,6453c8bcf8c4b545c8bf14ef,2023-05-04_17h01.52.960,ga_syllabified_check,2022.2.5,Win32,60.88280061,,,,,,,,,,,,,,./stim/p07_syllable_1_costonhialo_hit.wav,p07,costoñialo,hit,cos-to-nhia-lo,cos-to-ñia-lo,cos-to-ñi-a-lo, ,-0.352025477,-0.105555534,1,0,0,1.8502,text_option_1,,0,164,164,137,1
5edc3d681a69d49159555f91,63f3cfca20052e4ae7554ebf,6453c8bcf8c4b545c8bf14ef,2023-05-04_17h01.52.960,ga_syllabified_check,2022.2.5,Win32,60.88280061,,,,,,,,,,,,,,./stim/p03_syllable_1_lakabiaisto_hit.wav,p03,lakabiaisto,hit,la-ka-biais-to,la-ka-biais-to,la-ka-bi-ais-to,la-ka-bia-is-to,-0.31776619,-0.087037023,1,0,0,1.1335,text_option_1,,0,165,165,6,1
5edc3d681a69d49159555f91,63f3cfca20052e4ae7554ebf,6453c8bcf8c4b545c8bf14ef,2023-05-04_17h01.52.960,ga_syllabified_check,2022.2.5,Win32,60.88280061,,,,,,,,,,,,,,./stim/p08_syllable_1_palufauro_hit.wav,p08,palufauro,hit,pa-lu-fau-ro,pa-lu-fau-ro,pa-lu-fa-u-ro, ,-0.3390625,-0.1,1,0,0,2.6015,text_option_1,,0,166,166,195,1
5edc3d681a69d49159555f91,63f3cfca20052e4ae7554ebf,6453c8bcf8c4b545c8bf14ef,2023-05-04_17h01.52.960,ga_syllabified_check,2022.2.5,Win32,60.88280061,,,,,,,,,,,,,,./stim/p07_syllable_1_lliape_hit.wav,p07,lliape,hit,lliai-pe,llia-pe,lli-a-pe, ,-0.391840267,-0.119444466,1,0,0,2.3994,text_option_1,,0,167,167,156,1
5edc3d681a69d49159555f91,63f3cfca20052e4ae7554ebf,6453c8bcf8c4b545c8bf14ef,2023-05-04_17h01.52.960,ga_syllabified_check,2022.2.5,Win32,60.88280061,,,,,,,,,,,,,,./stim/p08_syllable_1_lakabiaisto_hit.wav,p08,lakabiaisto,hit,la-ka-bi-as-to,la-ka-biais-to,la-ka-bi-ais-to,la-ka-bia-is-to,0.030381966,-0.111111132,1,0,0,2.4167,text_option_3,,0,168,168,176,1
5edc3d681a69d49159555f91,63f3cfca20052e4ae7554ebf,6453c8bcf8c4b545c8bf14ef,2023-05-04_17h01.52.960,ga_syllabified_check,2022.2.5,Win32,60.88280061,,,,,,,,,,,,,,./stim/p07_syllable_1_lakafiaisto_hit.wav,p07,lakafiaisto,hit,la-ka-fiais-to,la-ka-fiais-to,la-ka-fi-ais-to,la-ka-fia-is-to,-0.360358779,-0.104629644,1,0,0,1.4333,text_option_1,,0,169,169,146,1
5edc3d681a69d49159555f91,63f3cfca20052e4ae7554ebf,6453c8bcf8c4b545c8bf14ef,2023-05-04_17h01.52.960,ga_syllabified_check,2022.2.5,Win32,60.88280061,,,,,,,,,,,,,,./stim/p06_syllable_1_lakaguaisto_hit.wav,p06,lakaguaisto,hit,la-ka-gu-a-is,la-ka-guais-to,la-ka-gu-ais-to,la-ka-gua-is-to,0.458159765,-0.109259288,1,0,0,4.3666,text_option_2,,0,170,170,115,1
5edc3d681a69d49159555f91,63f3cfca20052e4ae7554ebf,6453c8bcf8c4b545c8bf14ef,2023-05-04_17h01.52.960,ga_syllabified_check,2022.2.5,Win32,60.88280061,,,,,,,,,,,,,,./stim/p03_syllable_1_costonhialo_hit.wav,p03,costoñialo,hit,cos-to-nhia-lo,cos-to-ñia-lo,cos-to-ñi-a-lo, ,-0.347395833,-0.086111132,1,0,0,1.1327,text_option_1,,0,171,171,1,1
5edc3d681a69d49159555f91,63f3cfca20052e4ae7554ebf,6453c8bcf8c4b545c8bf14ef,2023-05-04_17h01.52.960,ga_syllabified_check,2022.2.5,Win32,60.88280061,,,,,,,,,,,,,,./stim/p04_syllable_1_lakakiaisto_hit.wav,p04,lakakiaisto,hit,la-ka-kiais-to,la-ka-kiais-to,la-ka-ki-ais-to,la-ka-kia-is-to,-0.345543989,-0.101851845,1,0,0,1.3161,text_option_1,,0,172,172,48,1
5edc3d681a69d49159555f91,63f3cfca20052e4ae7554ebf,6453c8bcf8c4b545c8bf14ef,2023-05-04_17h01.52.960,ga_syllabified_check,2022.2.5,Win32,60.88280061,,,,,,,,,,,,,,./stim/p08_syllable_1_lakagiaisto_hit.wav,p08,lakagiaisto,hit,la-ka-gi-jas-to,la-ka-giais-to,la-ka-gi-ais-to,la-ka-gia-is-to,0.026678276,-0.103703753,1,0,0,2.2903,text_option_3,,0,173,173,182,1
5edc3d681a69d49159555f91,63f3cfca20052e4ae7554ebf,6453c8bcf8c4b545c8bf14ef,2023-05-04_17h01.52.960,ga_syllabified_check,2022.2.5,Win32,60.88280061,,,,,,,,,,,,,,./stim/p03_syllable_1_flauro_hit.wav,p03,flauro,hit,flau-ro,flau-ro,fla-u-ro, ,-0.368692112,-0.1,1,0,0,0.1329,text_option_1,,0,174,174,5,1
5edc3d681a69d49159555f91,63f3cfca20052e4ae7554ebf,6453c8bcf8c4b545c8bf14ef,2023-05-04_17h01.52.960,ga_syllabified_check,2022.2.5,Win32,60.88280061,,,,,,,,,,,,,,./stim/p05_syllable_1_chiaba_hit.wav,p05,chiaba,hit,chia-ba,chia-ba,chi-a-ba, ,0.35723381,-0.104629644,1,0,0,2.8146,text_option_2,,0,175,175,68,1
5edc3d681a69d49159555f91,63f3cfca20052e4ae7554ebf,6453c8bcf8c4b545c8bf14ef,2023-05-04_17h01.52.960,ga_syllabified_check,2022.2.5,Win32,60.88280061,,,,,,,,,,,,,,./stim/p03_syllable_1_lakakiaisto_hit.wav,p03,lakakiaisto,hit,la-ka-kiais-to,la-ka-kiais-to,la-ka-ki-ais-to,la-ka-kia-is-to,-0.346469879,-0.1,1,0,0,1.4167,text_option_1,,0,176,176,14,1
5edc3d681a69d49159555f91,63f3cfca20052e4ae7554ebf,6453c8bcf8c4b545c8bf14ef,2023-05-04_17h01.52.960,ga_syllabified_check,2022.2.5,Win32,60.88280061,,,,,,,,,,,,,,./stim/p07_syllable_1_tuliafo_hit.wav,p07,tuliafo,hit,tu-lia-fo,tu-lia-fo,tu-li-a-fo, ,-0.3890625,-0.102777799,1,0,0,1.7333,text_option_1,,0,177,177,169,1
5edc3d681a69d49159555f91,63f3cfca20052e4ae7554ebf,6453c8bcf8c4b545c8bf14ef,2023-05-04_17h01.52.960,ga_syllabified_check,2022.2.5,Win32,60.88280061,,,,,,,,,,,,,,./stim/p08_syllable_1_paluguato_hit.wav,p08,paluguato,hit,pa-lu-gua-to,pa-lu-gua-to,pa-lu-gu-a-to, ,0.329456075,-0.111111132,1,0,0,1.6997,text_option_2,,0,178,178,197,1
5edc3d681a69d49159555f91,63f3cfca20052e4ae7554ebf,6453c8bcf8c4b545c8bf14ef,2023-05-04_17h01.52.960,ga_syllabified_check,2022.2.5,Win32,60.88280061,,,,,,,,,,,,,,./stim/p04_syllable_1_costonhialo_hit.wav,p04,costoñialo,hit,cos-to-nhia-lo,cos-to-ñia-lo,cos-to-ñi-a-lo, ,-0.352025477,-0.111111132,1,0,0,1.5201,text_option_1,,0,179,179,35,1
5edc3d681a69d49159555f91,63f3cfca20052e4ae7554ebf,6453c8bcf8c4b545c8bf14ef,2023-05-04_17h01.52.960,ga_syllabified_check,2022.2.5,Win32,60.88280061,,,,,,,,,,,,,,./stim/p05_syllable_1_manhiala_hit.wav,p05,mañiala,hit,ma-nhia-la,ma-ñia-la,ma-ñi-a-la, ,-0.369618066,-0.107407443,1,0,0,0.4658,text_option_1,,0,180,180,89,1
5edc3d681a69d49159555f91,63f3cfca20052e4ae7554ebf,6453c8bcf8c4b545c8bf14ef,2023-05-04_17h01.52.960,ga_syllabified_check,2022.2.5,Win32,60.88280061,,,,,,,,,,,,,,./stim/p08_syllable_1_tuliafo_hit.wav,p08,tuliafo,hit,tu-li-a-fo,tu-lia-fo,tu-li-a-fo, ,0.372048569,-0.093518511,1,0,0,1.3829,text_option_2,,0,181,181,203,1
5edc3d681a69d49159555f91,63f3cfca20052e4ae7554ebf,6453c8bcf8c4b545c8bf14ef,2023-05-04_17h01.52.960,ga_syllabified_check,2022.2.5,Win32,60.88280061,,,,,,,,,,,,,,./stim/p08_syllable_1_nhiape_hit.wav,p08,ñiape,hit,ni-a-pe,ñia-pe,ñi-a-pe, ,0.398900477,-0.103703753,1,0,0,0.7,text_option_2,,0,182,182,193,1
5edc3d681a69d49159555f91,63f3cfca20052e4ae7554ebf,6453c8bcf8c4b545c8bf14ef,2023-05-04_17h01.52.960,ga_syllabified_check,2022.2.5,Win32,60.88280061,,,,,,,,,,,,,,./stim/p07_syllable_1_payielo_hit.wav,p07,payielo,hit,pa-yie-lo,pa-yie-lo,pa-yi-e-lo, ,-0.394618066,-0.091666667,1,0,0,0.9835,text_option_1,,0,183,183,166,1
5edc3d681a69d49159555f91,63f3cfca20052e4ae7554ebf,6453c8bcf8c4b545c8bf14ef,2023-05-04_17h01.52.960,ga_syllabified_check,2022.2.5,Win32,60.88280061,,,,,,,,,,,,,,./stim/p08_syllable_1_palutrauco_hit.wav,p08,palutrauco,hit,pa-lu-trau-ko,pa-lu-trau-co,pa-lu-tra-u-co, ,-0.381655089,-0.104629644,1,0,0,3.7664,text_option_1,,0,184,184,199,1
5edc3d681a69d49159555f91,63f3cfca20052e4ae7554ebf,6453c8bcf8c4b545c8bf14ef,2023-05-04_17h01.52.960,ga_syllabified_check,2022.2.5,Win32,60.88280061,,,,,,,,,,,,,,./stim/p06_syllable_1_palutrauco_hit.wav,p06,palutrauco,hit,pa-lu-tra-u-co,pa-lu-trau-co,pa-lu-tra-u-co, ,0.373900604,-0.110185178,1,0,0,2.1869,text_option_2,,0,185,185,131,1
5edc3d681a69d49159555f91,63f3cfca20052e4ae7554ebf,6453c8bcf8c4b545c8bf14ef,2023-05-04_17h01.52.960,ga_syllabified_check,2022.2.5,Win32,60.88280061,,,,,,,,,,,,,,./stim/p04_syllable_1_lakabuaisto_hit.wav,p04,lakabuaisto,hit,la-ka-buais-to,la-ka-buais-to,la-ka-bu-ais-to,la-ka-bua-is-to,-0.3390625,-0.113888868,1,0,0,0.8163,text_option_1,,0,186,186,41,1
5edc3d681a69d49159555f91,63f3cfca20052e4ae7554ebf,6453c8bcf8c4b545c8bf14ef,2023-05-04_17h01.52.960,ga_syllabified_check,2022.2.5,Win32,60.88280061,,,,,,,,,,,,,,./stim/p06_syllable_1_lakatiaisto_hit.wav,p06,lakatiaisto,hit,la-ka-pia-is-to,la-ka-tiais-to,la-ka-ti-ais-to,la-ka-tia-is-to,0.028530121,-0.109259288,1,0,0,3.267,text_option_3,,0,187,187,120,1
5edc3d681a69d49159555f91,63f3cfca20052e4ae7554ebf,6453c8bcf8c4b545c8bf14ef,2023-05-04_17h01.52.960,ga_syllabified_check,2022.2.5,Win32,60.88280061,,,,,,,,,,,,,,./stim/p08_syllable_1_lakapuaisto_hit.wav,p08,lakapuaisto,hit,la-ka-pu-as-to,la-ka-puais-to,la-ka-pu-ais-to,la-ka-pua-is-to,0.403530121,-0.1,1,0,0,2.2391,text_option_2,,0,188,188,187,1
5edc3d681a69d49159555f91,63f3cfca20052e4ae7554ebf,6453c8bcf8c4b545c8bf14ef,2023-05-04_17h01.52.960,ga_syllabified_check,2022.2.5,Win32,60.88280061,,,,,,,,,,,,,,./stim/p07_syllable_1_palutrauco_hit.wav,p07,palutrauco,hit,pa-lu-trau-co,pa-lu-trau-co,pa-lu-tra-u-co, ,-0.371469911,-0.113888868,1,0,0,0.8668,text_option_1,,0,189,189,165,1
5edc3d681a69d49159555f91,63f3cfca20052e4ae7554ebf,6453c8bcf8c4b545c8bf14ef,2023-05-04_17h01.52.960,ga_syllabified_check,2022.2.5,Win32,60.88280061,,,,,,,,,,,,,,./stim/p04_syllable_1_lakapiaisto_hit.wav,p04,lakapiaisto,hit,la-ka-piais-to,la-ka-piais-to,la-ka-pi-ais-to,la-ka-pia-is-to,-0.422395833,-0.109259288,1,0,0,1.3,text_option_1,,0,190,190,50,1
5edc3d681a69d49159555f91,63f3cfca20052e4ae7554ebf,6453c8bcf8c4b545c8bf14ef,2023-05-04_17h01.52.960,ga_syllabified_check,2022.2.5,Win32,60.88280061,,,,,,,,,,,,,,./stim/p06_syllable_1_tuliafo_hit.wav,p06,tuliafo,hit,tu-li-a-fo,tu-lia-fo,tu-li-a-fo, ,0.425752385,-0.101851845,1,0,0,1.315,text_option_2,,0,191,191,135,1
5edc3d681a69d49159555f91,63f3cfca20052e4ae7554ebf,6453c8bcf8c4b545c8bf14ef,2023-05-04_17h01.52.960,ga_syllabified_check,2022.2.5,Win32,60.88280061,,,,,,,,,,,,,,./stim/p05_syllable_1_lakaduaisto_hit.wav,p05,lakaduaisto,hit,la-ka-dais-to,la-ka-duais-to,la-ka-du-ais-to,la-ka-dua-is-to,-0.453877322,-0.104629644,1,0,0,1.2335,text_option_1,,0,192,192,77,1
5edc3d681a69d49159555f91,63f3cfca20052e4ae7554ebf,6453c8bcf8c4b545c8bf14ef,2023-05-04_17h01.52.960,ga_syllabified_check,2022.2.5,Win32,60.88280061,,,,,,,,,,,,,,./stim/p05_syllable_1_payielo_hit.wav,p05,payielo,hit,pai-yu-we-lo,pa-yie-lo,pa-yi-e-lo, ,-0.349247678,-0.104629644,1,0,0,0.6313,text_option_1,,0,193,193,98,1
5edc3d681a69d49159555f91,63f3cfca20052e4ae7554ebf,6453c8bcf8c4b545c8bf14ef,2023-05-04_17h01.52.960,ga_syllabified_check,2022.2.5,Win32,60.88280061,,,,,,,,,,,,,,./stim/p05_syllable_1_flauro_hit.wav,p05,flauro,hit,fa-lu-ro,flau-ro,fla-u-ro, ,0.072974523,-0.294444466,1,0,0,2.3359,text_option_other,faluro,0,194,194,73,1
5edc3d681a69d49159555f91,63f3cfca20052e4ae7554ebf,6453c8bcf8c4b545c8bf14ef,2023-05-04_17h01.52.960,ga_syllabified_check,2022.2.5,Win32,60.88280061,,,,,,,,,,,,,,./stim/p07_syllable_1_lakatiaisto_hit.wav,p07,lakatiaisto,hit,la-ka-tiai-sto,la-ka-tiais-to,la-ka-ti-ais-to,la-ka-tia-is-to,-0.340914345,-0.113888868,1,0,0,1.8833,text_option_1,,0,195,195,154,1
5edc3d681a69d49159555f91,63f3cfca20052e4ae7554ebf,6453c8bcf8c4b545c8bf14ef,2023-05-04_17h01.52.960,ga_syllabified_check,2022.2.5,Win32,60.88280061,,,,,,,,,,,,,,./stim/p07_syllable_1_lakatuaisto_hit.wav,p07,lakatuaisto,hit,la-ka-tuais-to,la-ka-tuais-to,la-ka-tu-ais-to,la-ka-tua-is-to,-0.31776619,-0.100925954,1,0,0,1.9337,text_option_1,,0,196,196,155,1
5edc3d681a69d49159555f91,63f3cfca20052e4ae7554ebf,6453c8bcf8c4b545c8bf14ef,2023-05-04_17h01.52.960,ga_syllabified_check,2022.2.5,Win32,60.88280061,,,,,,,,,,,,,,./stim/p04_syllable_1_palufauto_hit.wav,p04,palufauto,hit,pa-lu-fau-to,pa-lu-fau-to,pa-lu-fa-u-to, ,-0.354803212,-0.111111132,1,0,0,0.5475,text_option_1,,0,197,197,60,1
5edc3d681a69d49159555f91,63f3cfca20052e4ae7554ebf,6453c8bcf8c4b545c8bf14ef,2023-05-04_17h01.52.960,ga_syllabified_check,2022.2.5,Win32,60.88280061,,,,,,,,,,,,,,./stim/p03_syllable_1_falutraigo_hit.wav,p03,falutraigo,hit,fa-lu-trai-go,fa-lu-trai-go,fa-lu-tra-i-go, ,-0.34276619,-0.102777799,1,0,0,1.2001,text_option_1,,0,198,198,4,1
5edc3d681a69d49159555f91,63f3cfca20052e4ae7554ebf,6453c8bcf8c4b545c8bf14ef,2023-05-04_17h01.52.960,ga_syllabified_check,2022.2.5,Win32,60.88280061,,,,,,,,,,,,,,./stim/p03_syllable_1_palufauro_hit.wav,p03,palufauro,hit,pa-lu-fau-ro,pa-lu-fau-ro,pa-lu-fa-u-ro, ,-0.336284701,-0.103703753,1,0,0,0.9504,text_option_1,,0,199,199,25,1
5edc3d681a69d49159555f91,63f3cfca20052e4ae7554ebf,6453c8bcf8c4b545c8bf14ef,2023-05-04_17h01.52.960,ga_syllabified_check,2022.2.5,Win32,60.88280061,,,,,,,,,,,,,,./stim/p05_syllable_1_pachialo_hit.wav,p05,pachialo,hit,pan-chia-lo,pa-chia-lo,pa-chi-a-lo, ,0.383160019,-0.103703753,1,0,0,0.6504,text_option_2,,0,200,200,92,1
5edc3d681a69d49159555f91,63f3cfca20052e4ae7554ebf,6453c8bcf8c4b545c8bf14ef,2023-05-04_17h01.52.960,ga_syllabified_check,2022.2.5,Win32,60.88280061,,,,,,,,,,,,,,./stim/p07_syllable_1_lakapiaisto_hit.wav,p07,lakapiaisto,hit,la-ka-pia-sto,la-ka-piais-to,la-ka-pi-ais-to,la-ka-pia-is-to,-0.031655057,-0.107407443,1,0,0,2.5363,text_option_3,,0,201,201,152,1
5edc3d681a69d49159555f91,63f3cfca20052e4ae7554ebf,6453c8bcf8c4b545c8bf14ef,2023-05-04_17h01.52.960,ga_syllabified_check,2022.2.5,Win32,60.88280061,,,,,,,,,,,,,,./stim/p04_syllable_1_lakafiaisto_hit.wav,p04,lakafiaisto,hit,la-ka-fiais-to,la-ka-fiais-to,la-ka-fi-ais-to,la-ka-fia-is-to,-0.377951399,-0.12129631,1,0,0,0.9335,text_option_1,,0,202,202,44,1
5edc3d681a69d49159555f91,63f3cfca20052e4ae7554ebf,6453c8bcf8c4b545c8bf14ef,2023-05-04_17h01.52.960,ga_syllabified_check,2022.2.5,Win32,60.88280061,,,,,,,,,,,,,,./stim/p05_syllable_1_paluguato_hit.wav,p05,paluguato,hit,pa-lu-gau-to,pa-lu-gua-to,pa-lu-gu-a-to, ,0.047048632,-0.3,1,0,0,2.7663,text_option_other,palugauto,0,203,203,95,1
5edc3d681a69d49159555f91,63f3cfca20052e4ae7554ebf,6453c8bcf8c4b545c8bf14ef,2023-05-04_17h01.52.960,ga_syllabified_check,2022.2.5,Win32,60.88280061,,,,,,,,,,,,,,,,,,,,,,,,,,,,,,,,,,
