participant,study,session,date,expName,psychopyVersion,OS,frameRate,mouse_practice.x,mouse_practice.y,mouse_practice.leftButton,mouse_practice.midButton,mouse_practice.rightButton,mouse_practice.time,mouse_practice.clicked_name,textbox_followup_practice.text,trials_practice.thisRepN,trials_practice.thisTrialN,trials_practice.thisN,trials_practice.thisIndex,trials_practice.ran,file_path,id,item,status,response,op1,op2,op3,mouse.x,mouse.y,mouse.leftButton,mouse.midButton,mouse.rightButton,mouse.time,mouse.clicked_name,textbox_followup.text,trials.thisRepN,trials.thisTrialN,trials.thisN,trials.thisIndex,trials.ran
5ef5f63c7aa58727ac4f8588,63f3cfca20052e4ae7554ebf,6453d22f1c1fcffb56f95060,2023-05-04_17h56.16.764,ga_syllabified_check,2022.2.5,Win32,60.09615385,,,,,,,,,,,,,,,,,,,,,,,,,,,,,,,,,,
5ef5f63c7aa58727ac4f8588,63f3cfca20052e4ae7554ebf,6453d22f1c1fcffb56f95060,2023-05-04_17h56.16.764,ga_syllabified_check,2022.2.5,Win32,60.09615385,-0.38703703,-0.101851852,1,0,0,3.3161,text_option_1_practice,,0,0,0,0,1,./stim/p03_syllable_1_liamo_hit.wav,p03,liamo,hit,lia-mo,lia-mo,li-a-mo, ,,,,,,,,,,,,,
5ef5f63c7aa58727ac4f8588,63f3cfca20052e4ae7554ebf,6453d22f1c1fcffb56f95060,2023-05-04_17h56.16.764,ga_syllabified_check,2022.2.5,Win32,60.09615385,-0.384259259,-0.103703746,1,0,0,1.7823,text_option_1_practice,,0,1,1,1,1,./stim/p05_syllable_1_matio_hit.wav,p05,matio,hit,ma-tio,ma-tio,ma-ti-o, ,,,,,,,,,,,,,
5ef5f63c7aa58727ac4f8588,63f3cfca20052e4ae7554ebf,6453d22f1c1fcffb56f95060,2023-05-04_17h56.16.764,ga_syllabified_check,2022.2.5,Win32,60.09615385,0.393518519,-0.104629658,1,0,0,3.1988,text_option_2_practice,,0,2,2,2,1,./stim/p08_syllable_1_liamo_hit.wav,p08,liamo,hit,ja-mo,lia-mo,li-a-mo, ,,,,,,,,,,,,,
5ef5f63c7aa58727ac4f8588,63f3cfca20052e4ae7554ebf,6453d22f1c1fcffb56f95060,2023-05-04_17h56.16.764,ga_syllabified_check,2022.2.5,Win32,60.09615385,,,,,,,,,,,,,,,,,,,,,,,,,,,,,,,,,,
5ef5f63c7aa58727ac4f8588,63f3cfca20052e4ae7554ebf,6453d22f1c1fcffb56f95060,2023-05-04_17h56.16.764,ga_syllabified_check,2022.2.5,Win32,60.09615385,,,,,,,,,,,,,,./stim/p05_syllable_1_lakakuaisto_hit.wav,p05,lakakuaisto,hit,la-ka-kais-to,la-ka-kuais-to,la-ka-ku-ais-to,la-ka-kua-is-to,-0.387962942,-0.098148134,1,0,0,5.3147,text_option_1,,0,0,0,83,1
5ef5f63c7aa58727ac4f8588,63f3cfca20052e4ae7554ebf,6453d22f1c1fcffb56f95060,2023-05-04_17h56.16.764,ga_syllabified_check,2022.2.5,Win32,60.09615385,,,,,,,,,,,,,,./stim/p03_syllable_1_lakaguaisto_hit.wav,p03,lakaguaisto,hit,la-ka-guais-to,la-ka-guais-to,la-ka-gu-ais-to,la-ka-gua-is-to,-0.368518511,-0.101851852,1,0,0,3.1158,text_option_1,,0,1,1,13,1
5ef5f63c7aa58727ac4f8588,63f3cfca20052e4ae7554ebf,6453d22f1c1fcffb56f95060,2023-05-04_17h56.16.764,ga_syllabified_check,2022.2.5,Win32,60.09615385,,,,,,,,,,,,,,./stim/p03_syllable_1_faluduako_hit.wav,p03,faluduako,hit,fa-lu-dua-ko,fa-lu-dua-ko,fa-lu-du-a-ko, ,-0.362037023,-0.104629658,1,0,0,2.2658,text_option_1,,0,2,2,2,1
5ef5f63c7aa58727ac4f8588,63f3cfca20052e4ae7554ebf,6453d22f1c1fcffb56f95060,2023-05-04_17h56.16.764,ga_syllabified_check,2022.2.5,Win32,60.09615385,,,,,,,,,,,,,,./stim/p08_syllable_1_lakatuaisto_hit.wav,p08,lakatuaisto,hit,la-ka-tu-i-jis,la-ka-tuais-to,la-ka-tu-ais-to,la-ka-tua-is-to,0.054629644,-0.306481467,1,0,0,8.5426,text_option_other,la-ka-tuis-to,0,3,3,189,1
5ef5f63c7aa58727ac4f8588,63f3cfca20052e4ae7554ebf,6453d22f1c1fcffb56f95060,2023-05-04_17h56.16.764,ga_syllabified_check,2022.2.5,Win32,60.09615385,,,,,,,,,,,,,,./stim/p04_syllable_1_lakatiaisto_hit.wav,p04,lakatiaisto,hit,la-ka-kiais-to,la-ka-tiais-to,la-ka-ti-ais-to,la-ka-tia-is-to,-0.353703711,-0.10555557,1,0,0,3.6319,text_option_1,,0,4,4,52,1
5ef5f63c7aa58727ac4f8588,63f3cfca20052e4ae7554ebf,6453d22f1c1fcffb56f95060,2023-05-04_17h56.16.764,ga_syllabified_check,2022.2.5,Win32,60.09615385,,,,,,,,,,,,,,./stim/p05_syllable_1_lakabuaisto_hit.wav,p05,lakabuaisto,hit,la-ka-buais-to,la-ka-buais-to,la-ka-bu-ais-to,la-ka-bua-is-to,-0.37962963,-0.113888917,1,0,0,2.1655,text_option_1,,0,5,5,75,1
5ef5f63c7aa58727ac4f8588,63f3cfca20052e4ae7554ebf,6453d22f1c1fcffb56f95060,2023-05-04_17h56.16.764,ga_syllabified_check,2022.2.5,Win32,60.09615385,,,,,,,,,,,,,,./stim/p08_syllable_1_lakabiaisto_hit.wav,p08,lakabiaisto,hit,la-ka-bi-as-to,la-ka-biais-to,la-ka-bi-ais-to,la-ka-bia-is-to,0.426851908,-0.107407393,1,0,0,6.3136,text_option_2,,0,6,6,176,1
5ef5f63c7aa58727ac4f8588,63f3cfca20052e4ae7554ebf,6453d22f1c1fcffb56f95060,2023-05-04_17h56.16.764,ga_syllabified_check,2022.2.5,Win32,60.09615385,,,,,,,,,,,,,,./stim/p05_syllable_1_lakafiaisto_hit.wav,p05,lakafiaisto,hit,la-ka-fi-ais-to,la-ka-fiais-to,la-ka-fi-ais-to,la-ka-fia-is-to,0.422222279,-0.112037023,1,0,0,3.7482,text_option_2,,0,7,7,78,1
5ef5f63c7aa58727ac4f8588,63f3cfca20052e4ae7554ebf,6453d22f1c1fcffb56f95060,2023-05-04_17h56.16.764,ga_syllabified_check,2022.2.5,Win32,60.09615385,,,,,,,,,,,,,,./stim/p07_syllable_1_rausto_hit.wav,p07,rausto,hit,raus-to,raus-to,ra-us-to, ,-0.412962949,-0.112037023,1,0,0,1.9326,text_option_1,,0,8,8,167,1
5ef5f63c7aa58727ac4f8588,63f3cfca20052e4ae7554ebf,6453d22f1c1fcffb56f95060,2023-05-04_17h56.16.764,ga_syllabified_check,2022.2.5,Win32,60.09615385,,,,,,,,,,,,,,./stim/p07_syllable_1_paluguato_hit.wav,p07,paluguato,hit,pa-lu-gua-to,pa-lu-gua-to,pa-lu-gu-a-to, ,-0.392592571,-0.110185199,1,0,0,1.9826,text_option_1,,0,9,9,163,1
5ef5f63c7aa58727ac4f8588,63f3cfca20052e4ae7554ebf,6453d22f1c1fcffb56f95060,2023-05-04_17h56.16.764,ga_syllabified_check,2022.2.5,Win32,60.09615385,,,,,,,,,,,,,,./stim/p08_syllable_1_lakafuaisto_hit.wav,p08,lakafuaisto,hit,la-ka-fju-ais-to,la-ka-fuais-to,la-ka-fu-ais-to,la-ka-fua-is-to,0.001851894,-0.318518533,1,0,0,4.9478,text_option_other,la-ka-fiuais-to,0,10,10,181,1
5ef5f63c7aa58727ac4f8588,63f3cfca20052e4ae7554ebf,6453d22f1c1fcffb56f95060,2023-05-04_17h56.16.764,ga_syllabified_check,2022.2.5,Win32,60.09615385,,,,,,,,,,,,,,./stim/p06_syllable_1_lakabiaisto_hit.wav,p06,lakabiaisto,hit,la-ka-bia-is-to,la-ka-biais-to,la-ka-bi-ais-to,la-ka-bia-is-to,0.043518561,-0.10092594,1,0,0,5.4641,text_option_3,,0,11,11,108,1
5ef5f63c7aa58727ac4f8588,63f3cfca20052e4ae7554ebf,6453d22f1c1fcffb56f95060,2023-05-04_17h56.16.764,ga_syllabified_check,2022.2.5,Win32,60.09615385,,,,,,,,,,,,,,./stim/p07_syllable_1_lakatuaisto_hit.wav,p07,lakatuaisto,hit,la-ka-tuais-to,la-ka-tuais-to,la-ka-tu-ais-to,la-ka-tua-is-to,-0.40648146,-0.10555557,1,0,0,3.4322,text_option_1,,0,12,12,155,1
5ef5f63c7aa58727ac4f8588,63f3cfca20052e4ae7554ebf,6453d22f1c1fcffb56f95060,2023-05-04_17h56.16.764,ga_syllabified_check,2022.2.5,Win32,60.09615385,,,,,,,,,,,,,,./stim/p08_syllable_1_lakatiaisto_hit.wav,p08,lakatiaisto,hit,la-ka-ti-as-to,la-ka-tiais-to,la-ka-ti-ais-to,la-ka-tia-is-to,-0.001851824,-0.303703732,1,0,0,7.5964,text_option_other,la-ka-tias-to,0,13,13,188,1
5ef5f63c7aa58727ac4f8588,63f3cfca20052e4ae7554ebf,6453d22f1c1fcffb56f95060,2023-05-04_17h56.16.764,ga_syllabified_check,2022.2.5,Win32,60.09615385,,,,,,,,,,,,,,./stim/p03_syllable_1_palutrauco_hit.wav,p03,palutrauco,hit,pa-lu-trau-co,pa-lu-trau-co,pa-lu-tra-u-co, ,-0.373148141,-0.103703746,1,0,0,3.7815,text_option_1,,0,14,14,29,1
5ef5f63c7aa58727ac4f8588,63f3cfca20052e4ae7554ebf,6453d22f1c1fcffb56f95060,2023-05-04_17h56.16.764,ga_syllabified_check,2022.2.5,Win32,60.09615385,,,,,,,,,,,,,,./stim/p07_syllable_1_mebochiana_hit.wav,p07,mebochiana,hit,me-bo-chia-na,me-bo-chia-na,me-bo-chi-a-na, ,-0.362037023,-0.100000028,1,0,0,3.8483,text_option_1,,0,15,15,158,1
5ef5f63c7aa58727ac4f8588,63f3cfca20052e4ae7554ebf,6453d22f1c1fcffb56f95060,2023-05-04_17h56.16.764,ga_syllabified_check,2022.2.5,Win32,60.09615385,,,,,,,,,,,,,,./stim/p08_syllable_1_lakaduaisto_hit.wav,p08,lakaduaisto,hit,la-ka-du-ais-to,la-ka-duais-to,la-ka-du-ais-to,la-ka-dua-is-to,0.407407407,-0.113888917,1,0,0,4.0816,text_option_2,,0,16,16,179,1
5ef5f63c7aa58727ac4f8588,63f3cfca20052e4ae7554ebf,6453d22f1c1fcffb56f95060,2023-05-04_17h56.16.764,ga_syllabified_check,2022.2.5,Win32,60.09615385,,,,,,,,,,,,,,./stim/p06_syllable_1_mebochiana_hit.wav,p06,mebochiana,hit,me-bo-shi-a-na,me-bo-chia-na,me-bo-chi-a-na, ,0.428703732,-0.104629658,1,0,0,4.581,text_option_2,,0,17,17,124,1
5ef5f63c7aa58727ac4f8588,63f3cfca20052e4ae7554ebf,6453d22f1c1fcffb56f95060,2023-05-04_17h56.16.764,ga_syllabified_check,2022.2.5,Win32,60.09615385,,,,,,,,,,,,,,./stim/p06_syllable_1_lliape_hit.wav,p06,lliape,hit,lli-lla-pe,llia-pe,lli-a-pe, ,0.386111083,-0.10555557,1,0,0,1.7155,text_option_2,,0,18,18,122,1
5ef5f63c7aa58727ac4f8588,63f3cfca20052e4ae7554ebf,6453d22f1c1fcffb56f95060,2023-05-04_17h56.16.764,ga_syllabified_check,2022.2.5,Win32,60.09615385,,,,,,,,,,,,,,./stim/p06_syllable_1_manhiala_hit.wav,p06,mañiala,hit,ma-nhi-a-la,ma-ñia-la,ma-ñi-a-la, ,0.406481566,-0.103703746,1,0,0,2.9655,text_option_2,,0,19,19,123,1
5ef5f63c7aa58727ac4f8588,63f3cfca20052e4ae7554ebf,6453d22f1c1fcffb56f95060,2023-05-04_17h56.16.764,ga_syllabified_check,2022.2.5,Win32,60.09615385,,,,,,,,,,,,,,./stim/p05_syllable_1_palutrauco_hit.wav,p05,palutrauco,hit,pa-lu-trai-co,pa-lu-trau-co,pa-lu-tra-u-co, ,0.073148162,-0.312962991,1,0,0,6.6799,text_option_other,pa-lu-trai-co,0,20,20,97,1
5ef5f63c7aa58727ac4f8588,63f3cfca20052e4ae7554ebf,6453d22f1c1fcffb56f95060,2023-05-04_17h56.16.764,ga_syllabified_check,2022.2.5,Win32,60.09615385,,,,,,,,,,,,,,./stim/p03_syllable_1_lakabuaisto_hit.wav,p03,lakabuaisto,hit,la-ka-buais-to,la-ka-buais-to,la-ka-bu-ais-to,la-ka-bua-is-to,-0.349999993,-0.108333376,1,0,0,4.0651,text_option_1,,0,21,21,7,1
5ef5f63c7aa58727ac4f8588,63f3cfca20052e4ae7554ebf,6453d22f1c1fcffb56f95060,2023-05-04_17h56.16.764,ga_syllabified_check,2022.2.5,Win32,60.09615385,,,,,,,,,,,,,,./stim/p07_syllable_1_costonhialo_hit.wav,p07,costoñialo,hit,cos-to-nhia-lo,cos-to-ñia-lo,cos-to-ñi-a-lo, ,-0.35833334,-0.108333376,1,0,0,2.9818,text_option_1,,0,22,22,137,1
5ef5f63c7aa58727ac4f8588,63f3cfca20052e4ae7554ebf,6453d22f1c1fcffb56f95060,2023-05-04_17h56.16.764,ga_syllabified_check,2022.2.5,Win32,60.09615385,,,,,,,,,,,,,,./stim/p05_syllable_1_faluduako_hit.wav,p05,faluduako,hit,fa-lu-ba-ko,fa-lu-dua-ko,fa-lu-du-a-ko, ,-0.384259259,-0.110185199,1,0,0,3.3819,text_option_1,,0,23,23,70,1
5ef5f63c7aa58727ac4f8588,63f3cfca20052e4ae7554ebf,6453d22f1c1fcffb56f95060,2023-05-04_17h56.16.764,ga_syllabified_check,2022.2.5,Win32,60.09615385,,,,,,,,,,,,,,./stim/p06_syllable_1_costonhialo_hit.wav,p06,costoñialo,hit,cos-to-nhia-lo,cos-to-ñia-lo,cos-to-ñi-a-lo, ,-0.337037016,-0.106481481,1,0,0,3.7482,text_option_1,,0,24,24,103,1
5ef5f63c7aa58727ac4f8588,63f3cfca20052e4ae7554ebf,6453d22f1c1fcffb56f95060,2023-05-04_17h56.16.764,ga_syllabified_check,2022.2.5,Win32,60.09615385,,,,,,,,,,,,,,./stim/p07_syllable_1_palutrauco_hit.wav,p07,palutrauco,hit,pa-lu-trau-co,pa-lu-trau-co,pa-lu-tra-u-co, ,-0.366666653,-0.110185199,1,0,0,3.0318,text_option_1,,0,25,25,165,1
5ef5f63c7aa58727ac4f8588,63f3cfca20052e4ae7554ebf,6453d22f1c1fcffb56f95060,2023-05-04_17h56.16.764,ga_syllabified_check,2022.2.5,Win32,60.09615385,,,,,,,,,,,,,,./stim/p05_syllable_1_lakafuaisto_hit.wav,p05,lakafuaisto,hit,la-ka-fais-to,la-ka-fuais-to,la-ka-fu-ais-to,la-ka-fua-is-to,-0.366666653,-0.10555557,1,0,0,8.8628,text_option_1,,0,26,26,79,1
5ef5f63c7aa58727ac4f8588,63f3cfca20052e4ae7554ebf,6453d22f1c1fcffb56f95060,2023-05-04_17h56.16.764,ga_syllabified_check,2022.2.5,Win32,60.09615385,,,,,,,,,,,,,,./stim/p07_syllable_1_lakabiaisto_hit.wav,p07,lakabiaisto,hit,la-ka-bais-to,la-ka-biais-to,la-ka-bi-ais-to,la-ka-bia-is-to,-0.041666667,-0.316666709,1,0,0,8.8627,text_option_other,la-ka-bais-to,0,27,27,142,1
5ef5f63c7aa58727ac4f8588,63f3cfca20052e4ae7554ebf,6453d22f1c1fcffb56f95060,2023-05-04_17h56.16.764,ga_syllabified_check,2022.2.5,Win32,60.09615385,,,,,,,,,,,,,,./stim/p05_syllable_1_palufauro_hit.wav,p05,palufauro,hit,pa-lu-fau-ro,pa-lu-fau-ro,pa-lu-fa-u-ro, ,-0.375,-0.110185199,1,0,0,2.6153,text_option_1,,0,28,28,93,1
5ef5f63c7aa58727ac4f8588,63f3cfca20052e4ae7554ebf,6453d22f1c1fcffb56f95060,2023-05-04_17h56.16.764,ga_syllabified_check,2022.2.5,Win32,60.09615385,,,,,,,,,,,,,,./stim/p07_syllable_1_tuliafo_hit.wav,p07,tuliafo,hit,tu-lia-fo,tu-lia-fo,tu-li-a-fo, ,-0.375,-0.110185199,1,0,0,1.1833,text_option_1,,0,29,29,169,1
5ef5f63c7aa58727ac4f8588,63f3cfca20052e4ae7554ebf,6453d22f1c1fcffb56f95060,2023-05-04_17h56.16.764,ga_syllabified_check,2022.2.5,Win32,60.09615385,,,,,,,,,,,,,,./stim/p08_syllable_1_lakaguaisto_hit.wav,p08,lakaguaisto,hit,la-ka-gu-ais-to,la-ka-guais-to,la-ka-gu-ais-to,la-ka-gua-is-to,0.432407379,-0.10555557,1,0,0,3.7942,text_option_2,,0,30,30,183,1
5ef5f63c7aa58727ac4f8588,63f3cfca20052e4ae7554ebf,6453d22f1c1fcffb56f95060,2023-05-04_17h56.16.764,ga_syllabified_check,2022.2.5,Win32,60.09615385,,,,,,,,,,,,,,./stim/p07_syllable_1_lakakuaisto_hit.wav,p07,lakakuaisto,hit,la-ka-kuais-to,la-ka-kuais-to,la-ka-ku-ais-to,la-ka-kua-is-to,-0.349074081,-0.117592635,1,0,0,3.2821,text_option_1,,0,31,31,151,1
5ef5f63c7aa58727ac4f8588,63f3cfca20052e4ae7554ebf,6453d22f1c1fcffb56f95060,2023-05-04_17h56.16.764,ga_syllabified_check,2022.2.5,Win32,60.09615385,,,,,,,,,,,,,,./stim/p06_syllable_1_lakatiaisto_hit.wav,p06,lakatiaisto,hit,la-ka-pia-is-to,la-ka-tiais-to,la-ka-ti-ais-to,la-ka-tia-is-to,0.008333347,-0.110185199,1,0,0,4.0316,text_option_3,,0,32,32,120,1
5ef5f63c7aa58727ac4f8588,63f3cfca20052e4ae7554ebf,6453d22f1c1fcffb56f95060,2023-05-04_17h56.16.764,ga_syllabified_check,2022.2.5,Win32,60.09615385,,,,,,,,,,,,,,./stim/p03_syllable_1_palufauro_hit.wav,p03,palufauro,hit,pa-lu-fau-ro,pa-lu-fau-ro,pa-lu-fa-u-ro, ,-0.368518511,-0.111111111,1,0,0,5.2321,text_option_1,,0,33,33,25,1
5ef5f63c7aa58727ac4f8588,63f3cfca20052e4ae7554ebf,6453d22f1c1fcffb56f95060,2023-05-04_17h56.16.764,ga_syllabified_check,2022.2.5,Win32,60.09615385,,,,,,,,,,,,,,./stim/p04_syllable_1_costonhialo_hit.wav,p04,costoñialo,hit,cos-to-nhia-lo,cos-to-ñia-lo,cos-to-ñi-a-lo, ,-0.368518511,-0.111111111,1,0,0,1.9496,text_option_1,,0,34,34,35,1
5ef5f63c7aa58727ac4f8588,63f3cfca20052e4ae7554ebf,6453d22f1c1fcffb56f95060,2023-05-04_17h56.16.764,ga_syllabified_check,2022.2.5,Win32,60.09615385,,,,,,,,,,,,,,./stim/p06_syllable_1_lakatuaisto_hit.wav,p06,lakatuaisto,hit,la-ka-tu-a-is,la-ka-tuais-to,la-ka-tu-ais-to,la-ka-tua-is-to,0.059259273,-0.300925926,1,0,0,8.3794,text_option_other,la-ka-tu-a-is-to,0,35,35,121,1
5ef5f63c7aa58727ac4f8588,63f3cfca20052e4ae7554ebf,6453d22f1c1fcffb56f95060,2023-05-04_17h56.16.764,ga_syllabified_check,2022.2.5,Win32,60.09615385,,,,,,,,,,,,,,./stim/p03_syllable_1_lakafiaisto_hit.wav,p03,lakafiaisto,hit,la-ka-fiais-to,la-ka-fiais-to,la-ka-fi-ais-to,la-ka-fia-is-to,-0.331481474,-0.110185199,1,0,0,2.9484,text_option_1,,0,36,36,10,1
5ef5f63c7aa58727ac4f8588,63f3cfca20052e4ae7554ebf,6453d22f1c1fcffb56f95060,2023-05-04_17h56.16.764,ga_syllabified_check,2022.2.5,Win32,60.09615385,,,,,,,,,,,,,,./stim/p04_syllable_1_lakatuaisto_hit.wav,p04,lakatuaisto,hit,la-ka-kuais-to,la-ka-tuais-to,la-ka-tu-ais-to,la-ka-tua-is-to,-0.360185164,-0.106481481,1,0,0,2.399,text_option_1,,0,37,37,53,1
5ef5f63c7aa58727ac4f8588,63f3cfca20052e4ae7554ebf,6453d22f1c1fcffb56f95060,2023-05-04_17h56.16.764,ga_syllabified_check,2022.2.5,Win32,60.09615385,,,,,,,,,,,,,,./stim/p04_syllable_1_manhiala_hit.wav,p04,mañiala,hit,ma-nhia-la,ma-ñia-la,ma-ñi-a-la, ,-0.376851859,-0.112037023,1,0,0,1.1326,text_option_1,,0,38,38,55,1
5ef5f63c7aa58727ac4f8588,63f3cfca20052e4ae7554ebf,6453d22f1c1fcffb56f95060,2023-05-04_17h56.16.764,ga_syllabified_check,2022.2.5,Win32,60.09615385,,,,,,,,,,,,,,./stim/p06_syllable_1_palufauto_hit.wav,p06,palufauto,hit,pa-lu-fau-to,pa-lu-fau-to,pa-lu-fa-u-to, ,-0.377777771,-0.103703746,1,0,0,3.0317,text_option_1,,0,39,39,128,1
5ef5f63c7aa58727ac4f8588,63f3cfca20052e4ae7554ebf,6453d22f1c1fcffb56f95060,2023-05-04_17h56.16.764,ga_syllabified_check,2022.2.5,Win32,60.09615385,,,,,,,,,,,,,,./stim/p07_syllable_1_lakafiaisto_hit.wav,p07,lakafiaisto,hit,la-ka-fiais-to,la-ka-fiais-to,la-ka-fi-ais-to,la-ka-fia-is-to,-0.383333312,-0.107407393,1,0,0,1.8328,text_option_1,,0,40,40,146,1
5ef5f63c7aa58727ac4f8588,63f3cfca20052e4ae7554ebf,6453d22f1c1fcffb56f95060,2023-05-04_17h56.16.764,ga_syllabified_check,2022.2.5,Win32,60.09615385,,,,,,,,,,,,,,./stim/p06_syllable_1_lakafuaisto_hit.wav,p06,lakafuaisto,hit,la-ka-fu-a-is,la-ka-fuais-to,la-ka-fu-ais-to,la-ka-fua-is-to,0.066666709,-0.311111097,1,0,0,6.7473,text_option_other,la-ka-fu-a-is-to,0,41,41,113,1
5ef5f63c7aa58727ac4f8588,63f3cfca20052e4ae7554ebf,6453d22f1c1fcffb56f95060,2023-05-04_17h56.16.764,ga_syllabified_check,2022.2.5,Win32,60.09615385,,,,,,,,,,,,,,./stim/p07_syllable_1_lakakiaisto_hit.wav,p07,lakakiaisto,hit,la-ka-kais-to,la-ka-kiais-to,la-ka-ki-ais-to,la-ka-kia-is-to,0.000925912,-0.292592578,1,0,0,5.9975,text_option_other,la-ka-kais-to,0,42,42,150,1
5ef5f63c7aa58727ac4f8588,63f3cfca20052e4ae7554ebf,6453d22f1c1fcffb56f95060,2023-05-04_17h56.16.764,ga_syllabified_check,2022.2.5,Win32,60.09615385,,,,,,,,,,,,,,./stim/p06_syllable_1_flauro_hit.wav,p06,flauro,hit,fla-u-ro,flau-ro,fla-u-ro, ,0.412963019,-0.101851852,1,0,0,1.6824,text_option_2,,0,43,43,107,1
5ef5f63c7aa58727ac4f8588,63f3cfca20052e4ae7554ebf,6453d22f1c1fcffb56f95060,2023-05-04_17h56.16.764,ga_syllabified_check,2022.2.5,Win32,60.09615385,,,,,,,,,,,,,,./stim/p06_syllable_1_faluduako_hit.wav,p06,faluduako,hit,fa-lu-dua-ko,fa-lu-dua-ko,fa-lu-du-a-ko, ,-0.363888882,-0.112037023,1,0,0,3.9649,text_option_1,,0,44,44,104,1
5ef5f63c7aa58727ac4f8588,63f3cfca20052e4ae7554ebf,6453d22f1c1fcffb56f95060,2023-05-04_17h56.16.764,ga_syllabified_check,2022.2.5,Win32,60.09615385,,,,,,,,,,,,,,./stim/p04_syllable_1_flauro_hit.wav,p04,flauro,hit,flau-ro,flau-ro,fla-u-ro, ,-0.38703703,-0.104629658,1,0,0,0.9334,text_option_1,,0,45,45,39,1
5ef5f63c7aa58727ac4f8588,63f3cfca20052e4ae7554ebf,6453d22f1c1fcffb56f95060,2023-05-04_17h56.16.764,ga_syllabified_check,2022.2.5,Win32,60.09615385,,,,,,,,,,,,,,./stim/p07_syllable_1_lakadiaisto_hit.wav,p07,lakadiaisto,hit,la-ka-dia-is-to,la-ka-diais-to,la-ka-di-ais-to,la-ka-dia-is-to,0.003703718,-0.103703746,1,0,0,3.1985,text_option_3,,0,46,46,144,1
5ef5f63c7aa58727ac4f8588,63f3cfca20052e4ae7554ebf,6453d22f1c1fcffb56f95060,2023-05-04_17h56.16.764,ga_syllabified_check,2022.2.5,Win32,60.09615385,,,,,,,,,,,,,,./stim/p05_syllable_1_lakakiaisto_hit.wav,p05,lakakiaisto,hit,la-ka-ki-ais-to,la-ka-kiais-to,la-ka-ki-ais-to,la-ka-kia-is-to,-0.356481481,-0.101851852,1,0,0,3.7316,text_option_1,,0,47,47,82,1
5ef5f63c7aa58727ac4f8588,63f3cfca20052e4ae7554ebf,6453d22f1c1fcffb56f95060,2023-05-04_17h56.16.764,ga_syllabified_check,2022.2.5,Win32,60.09615385,,,,,,,,,,,,,,./stim/p07_syllable_1_nhiape_hit.wav,p07,ñiape,hit,nhia-pe,ñia-pe,ñi-a-pe, ,-0.36296297,-0.103703746,1,0,0,0.7497,text_option_1,,0,48,48,159,1
5ef5f63c7aa58727ac4f8588,63f3cfca20052e4ae7554ebf,6453d22f1c1fcffb56f95060,2023-05-04_17h56.16.764,ga_syllabified_check,2022.2.5,Win32,60.09615385,,,,,,,,,,,,,,./stim/p03_syllable_1_payielo_hit.wav,p03,payielo,hit,pa-yie-lo,pa-yie-lo,pa-yi-e-lo, ,-0.371296282,-0.107407393,1,0,0,1.8495,text_option_1,,0,49,49,30,1
5ef5f63c7aa58727ac4f8588,63f3cfca20052e4ae7554ebf,6453d22f1c1fcffb56f95060,2023-05-04_17h56.16.764,ga_syllabified_check,2022.2.5,Win32,60.09615385,,,,,,,,,,,,,,./stim/p05_syllable_1_palumaisto_hit.wav,p05,palumaisto,hit,pa-lu-mais-to,pa-lu-mais-to,pa-lu-ma-is-to, ,-0.357407393,-0.118518547,1,0,0,1.3995,text_option_1,,0,50,50,96,1
5ef5f63c7aa58727ac4f8588,63f3cfca20052e4ae7554ebf,6453d22f1c1fcffb56f95060,2023-05-04_17h56.16.764,ga_syllabified_check,2022.2.5,Win32,60.09615385,,,,,,,,,,,,,,./stim/p06_syllable_1_lakabuaisto_hit.wav,p06,lakabuaisto,hit,la-ka-bu-a-is,la-ka-buais-to,la-ka-bu-ais-to,la-ka-bua-is-to,0.058333362,-0.308333362,1,0,0,7.1635,text_option_other,la-ka-bu-a-is-to,0,51,51,109,1
5ef5f63c7aa58727ac4f8588,63f3cfca20052e4ae7554ebf,6453d22f1c1fcffb56f95060,2023-05-04_17h56.16.764,ga_syllabified_check,2022.2.5,Win32,60.09615385,,,,,,,,,,,,,,./stim/p03_syllable_1_falufaisto_hit.wav,p03,falufaisto,hit,fa-lu-fais-to,fa-lu-fais-to,fa-lu-fa-is-to, ,-0.352777764,-0.104629658,1,0,0,2.6155,text_option_1,,0,52,52,3,1
5ef5f63c7aa58727ac4f8588,63f3cfca20052e4ae7554ebf,6453d22f1c1fcffb56f95060,2023-05-04_17h56.16.764,ga_syllabified_check,2022.2.5,Win32,60.09615385,,,,,,,,,,,,,,./stim/p04_syllable_1_lakaduaisto_hit.wav,p04,lakaduaisto,hit,la-ka-duais-to,la-ka-duais-to,la-ka-du-ais-to,la-ka-dua-is-to,-0.356481481,-0.106481481,1,0,0,3.2324,text_option_1,,0,53,53,43,1
5ef5f63c7aa58727ac4f8588,63f3cfca20052e4ae7554ebf,6453d22f1c1fcffb56f95060,2023-05-04_17h56.16.764,ga_syllabified_check,2022.2.5,Win32,60.09615385,,,,,,,,,,,,,,./stim/p03_syllable_1_ruyiola_hit.wav,p03,ruyiola,hit,ru-yio-la,ru-yio-la,ru-yi-o-la, ,-0.356481481,-0.106481481,1,0,0,1.0495,text_option_1,,0,54,54,32,1
5ef5f63c7aa58727ac4f8588,63f3cfca20052e4ae7554ebf,6453d22f1c1fcffb56f95060,2023-05-04_17h56.16.764,ga_syllabified_check,2022.2.5,Win32,60.09615385,,,,,,,,,,,,,,./stim/p06_syllable_1_palufauro_hit.wav,p06,palufauro,hit,pa-lu-fau-ro,pa-lu-fau-ro,pa-lu-fa-u-ro, ,0.378703788,-0.103703746,1,0,0,4.0813,text_option_2,,0,55,55,127,1
5ef5f63c7aa58727ac4f8588,63f3cfca20052e4ae7554ebf,6453d22f1c1fcffb56f95060,2023-05-04_17h56.16.764,ga_syllabified_check,2022.2.5,Win32,60.09615385,,,,,,,,,,,,,,./stim/p07_syllable_1_lakaduaisto_hit.wav,p07,lakaduaisto,hit,la-ka-duais-to,la-ka-duais-to,la-ka-du-ais-to,la-ka-dua-is-to,-0.349074081,-0.102777764,1,0,0,2.3326,text_option_1,,0,56,56,145,1
5ef5f63c7aa58727ac4f8588,63f3cfca20052e4ae7554ebf,6453d22f1c1fcffb56f95060,2023-05-04_17h56.16.764,ga_syllabified_check,2022.2.5,Win32,60.09615385,,,,,,,,,,,,,,./stim/p08_syllable_1_costonhialo_hit.wav,p08,costoñialo,hit,cos-to-nhia-lo,cos-to-ñia-lo,cos-to-ñi-a-lo, ,-0.383333312,-0.101851852,1,0,0,2.1158,text_option_1,,0,57,57,171,1
5ef5f63c7aa58727ac4f8588,63f3cfca20052e4ae7554ebf,6453d22f1c1fcffb56f95060,2023-05-04_17h56.16.764,ga_syllabified_check,2022.2.5,Win32,60.09615385,,,,,,,,,,,,,,./stim/p06_syllable_1_nhiape_hit.wav,p06,ñiape,hit,nhi-a-pe,ñia-pe,ñi-a-pe, ,0.389814871,-0.101851852,1,0,0,2.3492,text_option_2,,0,58,58,125,1
5ef5f63c7aa58727ac4f8588,63f3cfca20052e4ae7554ebf,6453d22f1c1fcffb56f95060,2023-05-04_17h56.16.764,ga_syllabified_check,2022.2.5,Win32,60.09615385,,,,,,,,,,,,,,./stim/p03_syllable_1_pachialo_hit.wav,p03,pachialo,hit,pa-chia-lo,pa-chia-lo,pa-chi-a-lo, ,-0.378703683,-0.112963005,1,0,0,1.1828,text_option_1,,0,59,59,24,1
5ef5f63c7aa58727ac4f8588,63f3cfca20052e4ae7554ebf,6453d22f1c1fcffb56f95060,2023-05-04_17h56.16.764,ga_syllabified_check,2022.2.5,Win32,60.09615385,,,,,,,,,,,,,,./stim/p06_syllable_1_lakaguaisto_hit.wav,p06,lakaguaisto,hit,la-ka-gu-a-is,la-ka-guais-to,la-ka-gu-ais-to,la-ka-gua-is-to,-0.010185171,-0.306481467,1,0,0,7.1468,text_option_other,la-ka-gu-a-is-to,0,60,60,115,1
5ef5f63c7aa58727ac4f8588,63f3cfca20052e4ae7554ebf,6453d22f1c1fcffb56f95060,2023-05-04_17h56.16.764,ga_syllabified_check,2022.2.5,Win32,60.09615385,,,,,,,,,,,,,,./stim/p05_syllable_1_palufauto_hit.wav,p05,palufauto,hit,pa-lu-fau-to,pa-lu-fau-to,pa-lu-fa-u-to, ,-0.372222229,-0.103703746,1,0,0,1.8825,text_option_1,,0,61,61,94,1
5ef5f63c7aa58727ac4f8588,63f3cfca20052e4ae7554ebf,6453d22f1c1fcffb56f95060,2023-05-04_17h56.16.764,ga_syllabified_check,2022.2.5,Win32,60.09615385,,,,,,,,,,,,,,./stim/p04_syllable_1_rausto_hit.wav,p04,rausto,hit,raus-to,raus-to,ra-us-to, ,-0.407407407,-0.112963005,1,0,0,0.3998,text_option_1,,0,62,62,65,1
5ef5f63c7aa58727ac4f8588,63f3cfca20052e4ae7554ebf,6453d22f1c1fcffb56f95060,2023-05-04_17h56.16.764,ga_syllabified_check,2022.2.5,Win32,60.09615385,,,,,,,,,,,,,,./stim/p08_syllable_1_lakafiaisto_hit.wav,p08,lakafiaisto,hit,la-ka-fi-as-to,la-ka-fiais-to,la-ka-fi-ais-to,la-ka-fia-is-to,0.003703718,-0.107407393,1,0,0,5.8305,text_option_3,,0,63,63,180,1
5ef5f63c7aa58727ac4f8588,63f3cfca20052e4ae7554ebf,6453d22f1c1fcffb56f95060,2023-05-04_17h56.16.764,ga_syllabified_check,2022.2.5,Win32,60.09615385,,,,,,,,,,,,,,./stim/p08_syllable_1_faluduako_hit.wav,p08,faluduako,hit,fa-lu-duai-ko,fa-lu-dua-ko,fa-lu-du-a-ko, ,-0.330555563,-0.114814829,1,0,0,5.6971,text_option_1,,0,64,64,172,1
5ef5f63c7aa58727ac4f8588,63f3cfca20052e4ae7554ebf,6453d22f1c1fcffb56f95060,2023-05-04_17h56.16.764,ga_syllabified_check,2022.2.5,Win32,60.09615385,,,,,,,,,,,,,,./stim/p08_syllable_1_lliape_hit.wav,p08,lliape,hit,li-a-pe,llia-pe,lli-a-pe, ,0.384259259,-0.111111111,1,0,0,2.899,text_option_2,,0,65,65,190,1
5ef5f63c7aa58727ac4f8588,63f3cfca20052e4ae7554ebf,6453d22f1c1fcffb56f95060,2023-05-04_17h56.16.764,ga_syllabified_check,2022.2.5,Win32,60.09615385,,,,,,,,,,,,,,./stim/p07_syllable_1_falufaisto_hit.wav,p07,falufaisto,hit,fa-lu-fais-to,fa-lu-fais-to,fa-lu-fa-is-to, ,-0.362037023,-0.111111111,1,0,0,2.7152,text_option_1,,0,66,66,139,1
5ef5f63c7aa58727ac4f8588,63f3cfca20052e4ae7554ebf,6453d22f1c1fcffb56f95060,2023-05-04_17h56.16.764,ga_syllabified_check,2022.2.5,Win32,60.09615385,,,,,,,,,,,,,,./stim/p04_syllable_1_lakagiaisto_hit.wav,p04,lakagiaisto,hit,la-ka-giais-to,la-ka-giais-to,la-ka-gi-ais-to,la-ka-gia-is-to,-0.348148134,-0.097222222,1,0,0,1.5158,text_option_1,,0,67,67,46,1
5ef5f63c7aa58727ac4f8588,63f3cfca20052e4ae7554ebf,6453d22f1c1fcffb56f95060,2023-05-04_17h56.16.764,ga_syllabified_check,2022.2.5,Win32,60.09615385,,,,,,,,,,,,,,./stim/p08_syllable_1_payielo_hit.wav,p08,payielo,hit,pa-yie-lo,pa-yie-lo,pa-yi-e-lo, ,-0.3824074,-0.111111111,1,0,0,1.216,text_option_1,,0,68,68,200,1
5ef5f63c7aa58727ac4f8588,63f3cfca20052e4ae7554ebf,6453d22f1c1fcffb56f95060,2023-05-04_17h56.16.764,ga_syllabified_check,2022.2.5,Win32,60.09615385,,,,,,,,,,,,,,./stim/p07_syllable_1_lakafuaisto_hit.wav,p07,lakafuaisto,hit,la-ka-fuais-to,la-ka-fuais-to,la-ka-fu-ais-to,la-ka-fua-is-to,-0.361111111,-0.110185199,1,0,0,1.9657,text_option_1,,0,69,69,147,1
5ef5f63c7aa58727ac4f8588,63f3cfca20052e4ae7554ebf,6453d22f1c1fcffb56f95060,2023-05-04_17h56.16.764,ga_syllabified_check,2022.2.5,Win32,60.09615385,,,,,,,,,,,,,,./stim/p05_syllable_1_chiaba_hit.wav,p05,chiaba,hit,chia-ba,chia-ba,chi-a-ba, ,-0.377777771,-0.10555557,1,0,0,2.0497,text_option_1,,0,70,70,68,1
5ef5f63c7aa58727ac4f8588,63f3cfca20052e4ae7554ebf,6453d22f1c1fcffb56f95060,2023-05-04_17h56.16.764,ga_syllabified_check,2022.2.5,Win32,60.09615385,,,,,,,,,,,,,,./stim/p04_syllable_1_faluduako_hit.wav,p04,faluduako,hit,fa-lu-dua-ko,fa-lu-dua-ko,fa-lu-du-a-ko, ,-0.377777771,-0.10555557,1,0,0,0.8161,text_option_1,,0,71,71,36,1
5ef5f63c7aa58727ac4f8588,63f3cfca20052e4ae7554ebf,6453d22f1c1fcffb56f95060,2023-05-04_17h56.16.764,ga_syllabified_check,2022.2.5,Win32,60.09615385,,,,,,,,,,,,,,./stim/p07_syllable_1_payielo_hit.wav,p07,payielo,hit,pa-yie-lo,pa-yie-lo,pa-yi-e-lo, ,-0.377777771,-0.10555557,1,0,0,1.416,text_option_1,,0,72,72,166,1
5ef5f63c7aa58727ac4f8588,63f3cfca20052e4ae7554ebf,6453d22f1c1fcffb56f95060,2023-05-04_17h56.16.764,ga_syllabified_check,2022.2.5,Win32,60.09615385,,,,,,,,,,,,,,./stim/p03_syllable_1_lakadiaisto_hit.wav,p03,lakadiaisto,hit,la-ka-diais-to,la-ka-diais-to,la-ka-di-ais-to,la-ka-dia-is-to,-0.368518511,-0.112963005,1,0,0,1.7162,text_option_1,,0,73,73,8,1
5ef5f63c7aa58727ac4f8588,63f3cfca20052e4ae7554ebf,6453d22f1c1fcffb56f95060,2023-05-04_17h56.16.764,ga_syllabified_check,2022.2.5,Win32,60.09615385,,,,,,,,,,,,,,./stim/p05_syllable_1_lakatiaisto_hit.wav,p05,lakatiaisto,hit,la-ka-ti-ais-to,la-ka-tiais-to,la-ka-ti-ais-to,la-ka-tia-is-to,-0.375925912,-0.119444459,1,0,0,1.5832,text_option_1,,0,74,74,86,1
5ef5f63c7aa58727ac4f8588,63f3cfca20052e4ae7554ebf,6453d22f1c1fcffb56f95060,2023-05-04_17h56.16.764,ga_syllabified_check,2022.2.5,Win32,60.09615385,,,,,,,,,,,,,,./stim/p04_syllable_1_lakakuaisto_hit.wav,p04,lakakuaisto,hit,la-ka-kuais-to,la-ka-kuais-to,la-ka-ku-ais-to,la-ka-kua-is-to,-0.363888882,-0.098148134,1,0,0,1.1495,text_option_1,,0,75,75,49,1
5ef5f63c7aa58727ac4f8588,63f3cfca20052e4ae7554ebf,6453d22f1c1fcffb56f95060,2023-05-04_17h56.16.764,ga_syllabified_check,2022.2.5,Win32,60.09615385,,,,,,,,,,,,,,./stim/p06_syllable_1_lakakiaisto_hit.wav,p06,lakakiaisto,hit,la-ka-kia-is-to,la-ka-kiais-to,la-ka-ki-ais-to,la-ka-kia-is-to,0.016666695,-0.102777764,1,0,0,4.4982,text_option_3,,0,76,76,116,1
5ef5f63c7aa58727ac4f8588,63f3cfca20052e4ae7554ebf,6453d22f1c1fcffb56f95060,2023-05-04_17h56.16.764,ga_syllabified_check,2022.2.5,Win32,60.09615385,,,,,,,,,,,,,,./stim/p06_syllable_1_falutraigo_hit.wav,p06,falutraigo,hit,fa-lu-tra-i-go,fa-lu-trai-go,fa-lu-tra-i-go, ,0.397222307,-0.108333376,1,0,0,3.9984,text_option_2,,0,77,77,106,1
5ef5f63c7aa58727ac4f8588,63f3cfca20052e4ae7554ebf,6453d22f1c1fcffb56f95060,2023-05-04_17h56.16.764,ga_syllabified_check,2022.2.5,Win32,60.09615385,,,,,,,,,,,,,,./stim/p03_syllable_1_lakatuaisto_hit.wav,p03,lakatuaisto,hit,la-ka-tuais-to,la-ka-tuais-to,la-ka-tu-ais-to,la-ka-tua-is-to,-0.471296275,-0.101851852,1,0,0,1.4658,text_option_1,,0,78,78,19,1
5ef5f63c7aa58727ac4f8588,63f3cfca20052e4ae7554ebf,6453d22f1c1fcffb56f95060,2023-05-04_17h56.16.764,ga_syllabified_check,2022.2.5,Win32,60.09615385,,,,,,,,,,,,,,./stim/p08_syllable_1_lakapiaisto_hit.wav,p08,lakapiaisto,hit,la-ka-pi-as-to,la-ka-piais-to,la-ka-pi-ais-to,la-ka-pia-is-to,0.446296268,-0.10555557,1,0,0,4.5803,text_option_2,,0,79,79,186,1
5ef5f63c7aa58727ac4f8588,63f3cfca20052e4ae7554ebf,6453d22f1c1fcffb56f95060,2023-05-04_17h56.16.764,ga_syllabified_check,2022.2.5,Win32,60.09615385,,,,,,,,,,,,,,./stim/p04_syllable_1_lakafuaisto_hit.wav,p04,lakafuaisto,hit,la-ka-fuais-to,la-ka-fuais-to,la-ka-fu-ais-to,la-ka-fua-is-to,-0.3675926,-0.104629658,1,0,0,3.8146,text_option_1,,0,80,80,45,1
5ef5f63c7aa58727ac4f8588,63f3cfca20052e4ae7554ebf,6453d22f1c1fcffb56f95060,2023-05-04_17h56.16.764,ga_syllabified_check,2022.2.5,Win32,60.09615385,,,,,,,,,,,,,,./stim/p05_syllable_1_falufaisto_hit.wav,p05,falufaisto,hit,fa-lu-fais-to,fa-lu-fais-to,fa-lu-fa-is-to, ,-0.402777778,-0.10555557,1,0,0,0.8164,text_option_1,,0,81,81,71,1
5ef5f63c7aa58727ac4f8588,63f3cfca20052e4ae7554ebf,6453d22f1c1fcffb56f95060,2023-05-04_17h56.16.764,ga_syllabified_check,2022.2.5,Win32,60.09615385,,,,,,,,,,,,,,./stim/p08_syllable_1_nhiape_hit.wav,p08,ñiape,hit,ni-a-pe,ñia-pe,ñi-a-pe, ,0.40833339,-0.103703746,1,0,0,1.0496,text_option_2,,0,82,82,193,1
5ef5f63c7aa58727ac4f8588,63f3cfca20052e4ae7554ebf,6453d22f1c1fcffb56f95060,2023-05-04_17h56.16.764,ga_syllabified_check,2022.2.5,Win32,60.09615385,,,,,,,,,,,,,,./stim/p07_syllable_1_lakapuaisto_hit.wav,p07,lakapuaisto,hit,la-ka-puais-to,la-ka-puais-to,la-ka-pu-ais-to,la-ka-pua-is-to,-0.366666653,-0.108333376,1,0,0,2.5119,text_option_1,,0,83,83,153,1
5ef5f63c7aa58727ac4f8588,63f3cfca20052e4ae7554ebf,6453d22f1c1fcffb56f95060,2023-05-04_17h56.16.764,ga_syllabified_check,2022.2.5,Win32,60.09615385,,,,,,,,,,,,,,./stim/p05_syllable_1_lakaguaisto_hit.wav,p05,lakaguaisto,hit,la-ka-gais,la-ka-guais-to,la-ka-gu-ais-to,la-ka-gua-is-to,-0.380555541,-0.104629658,1,0,0,5.0479,text_option_1,,0,84,84,81,1
5ef5f63c7aa58727ac4f8588,63f3cfca20052e4ae7554ebf,6453d22f1c1fcffb56f95060,2023-05-04_17h56.16.764,ga_syllabified_check,2022.2.5,Win32,60.09615385,,,,,,,,,,,,,,./stim/p04_syllable_1_palufauto_hit.wav,p04,palufauto,hit,pa-lu-fau-to,pa-lu-fau-to,pa-lu-fa-u-to, ,-0.371296282,-0.110185199,1,0,0,1.4493,text_option_1,,0,85,85,60,1
5ef5f63c7aa58727ac4f8588,63f3cfca20052e4ae7554ebf,6453d22f1c1fcffb56f95060,2023-05-04_17h56.16.764,ga_syllabified_check,2022.2.5,Win32,60.09615385,,,,,,,,,,,,,,./stim/p03_syllable_1_manhiala_hit.wav,p03,mañiala,hit,ma-nhia-la,ma-ñia-la,ma-ñi-a-la, ,-0.371296282,-0.112037023,1,0,0,0.6496,text_option_1,,0,86,86,21,1
5ef5f63c7aa58727ac4f8588,63f3cfca20052e4ae7554ebf,6453d22f1c1fcffb56f95060,2023-05-04_17h56.16.764,ga_syllabified_check,2022.2.5,Win32,60.09615385,,,,,,,,,,,,,,./stim/p06_syllable_1_chiaba_hit.wav,p06,chiaba,hit,chi-a-ba,chia-ba,chi-a-ba, ,-0.396296289,-0.115740741,1,0,0,1.6158,text_option_1,,0,87,87,102,1
5ef5f63c7aa58727ac4f8588,63f3cfca20052e4ae7554ebf,6453d22f1c1fcffb56f95060,2023-05-04_17h56.16.764,ga_syllabified_check,2022.2.5,Win32,60.09615385,,,,,,,,,,,,,,./stim/p08_syllable_1_falutraigo_hit.wav,p08,falutraigo,hit,fa-lu-trai-go,fa-lu-trai-go,fa-lu-tra-i-go, ,-0.368518511,-0.097222222,1,0,0,2.6658,text_option_1,,0,88,88,174,1
5ef5f63c7aa58727ac4f8588,63f3cfca20052e4ae7554ebf,6453d22f1c1fcffb56f95060,2023-05-04_17h56.16.764,ga_syllabified_check,2022.2.5,Win32,60.09615385,,,,,,,,,,,,,,./stim/p03_syllable_1_palufauto_hit.wav,p03,palufauto,hit,pa-lu-fau,pa-lu-fau-to,pa-lu-fa-u-to, ,-0.349074081,-0.102777764,1,0,0,0.8494,text_option_1,,0,89,89,26,1
5ef5f63c7aa58727ac4f8588,63f3cfca20052e4ae7554ebf,6453d22f1c1fcffb56f95060,2023-05-04_17h56.16.764,ga_syllabified_check,2022.2.5,Win32,60.09615385,,,,,,,,,,,,,,./stim/p08_syllable_1_lakapuaisto_hit.wav,p08,lakapuaisto,hit,la-ka-pu-as-to,la-ka-puais-to,la-ka-pu-ais-to,la-ka-pua-is-to,0.494444529,-0.107407393,1,0,0,5.5144,text_option_2,,0,90,90,187,1
5ef5f63c7aa58727ac4f8588,63f3cfca20052e4ae7554ebf,6453d22f1c1fcffb56f95060,2023-05-04_17h56.16.764,ga_syllabified_check,2022.2.5,Win32,60.09615385,,,,,,,,,,,,,,./stim/p08_syllable_1_lakakiaisto_hit.wav,p08,lakakiaisto,hit,la-ka-ki-jas-to,la-ka-kiais-to,la-ka-ki-ais-to,la-ka-kia-is-to,0.422222279,-0.108333376,1,0,0,3.1982,text_option_2,,0,91,91,184,1
5ef5f63c7aa58727ac4f8588,63f3cfca20052e4ae7554ebf,6453d22f1c1fcffb56f95060,2023-05-04_17h56.16.764,ga_syllabified_check,2022.2.5,Win32,60.09615385,,,,,,,,,,,,,,./stim/p03_syllable_1_lakaduaisto_hit.wav,p03,lakaduaisto,hit,la-ka-duais-to,la-ka-duais-to,la-ka-du-ais-to,la-ka-dua-is-to,-0.357407393,-0.108333376,1,0,0,1.7159,text_option_1,,0,92,92,9,1
5ef5f63c7aa58727ac4f8588,63f3cfca20052e4ae7554ebf,6453d22f1c1fcffb56f95060,2023-05-04_17h56.16.764,ga_syllabified_check,2022.2.5,Win32,60.09615385,,,,,,,,,,,,,,./stim/p07_syllable_1_chiaba_hit.wav,p07,chiaba,hit,chia-ba,chia-ba,chi-a-ba, ,-0.3824074,-0.108333376,1,0,0,0.4665,text_option_1,,0,93,93,136,1
5ef5f63c7aa58727ac4f8588,63f3cfca20052e4ae7554ebf,6453d22f1c1fcffb56f95060,2023-05-04_17h56.16.764,ga_syllabified_check,2022.2.5,Win32,60.09615385,,,,,,,,,,,,,,./stim/p06_syllable_1_lakafiaisto_hit.wav,p06,lakafiaisto,hit,la-ka-fia-is-to,la-ka-fiais-to,la-ka-fi-ais-to,la-ka-fia-is-to,0.00462963,-0.112963005,1,0,0,3.415,text_option_3,,0,94,94,112,1
5ef5f63c7aa58727ac4f8588,63f3cfca20052e4ae7554ebf,6453d22f1c1fcffb56f95060,2023-05-04_17h56.16.764,ga_syllabified_check,2022.2.5,Win32,60.09615385,,,,,,,,,,,,,,./stim/p05_syllable_1_lakaduaisto_hit.wav,p05,lakaduaisto,hit,la-ka-dais-to,la-ka-duais-to,la-ka-du-ais-to,la-ka-dua-is-to,-0.332407386,-0.109259288,1,0,0,2.5823,text_option_1,,0,95,95,77,1
5ef5f63c7aa58727ac4f8588,63f3cfca20052e4ae7554ebf,6453d22f1c1fcffb56f95060,2023-05-04_17h56.16.764,ga_syllabified_check,2022.2.5,Win32,60.09615385,,,,,,,,,,,,,,./stim/p08_syllable_1_palufauto_hit.wav,p08,palufauto,hit,pa-lu-fau-to,pa-lu-fau-to,pa-lu-fa-u-to, ,-0.357407393,-0.10555557,1,0,0,2.7655,text_option_1,,0,96,96,196,1
5ef5f63c7aa58727ac4f8588,63f3cfca20052e4ae7554ebf,6453d22f1c1fcffb56f95060,2023-05-04_17h56.16.764,ga_syllabified_check,2022.2.5,Win32,60.09615385,,,,,,,,,,,,,,./stim/p04_syllable_1_lakabiaisto_hit.wav,p04,lakabiaisto,hit,la-ka-biais-to,la-ka-biais-to,la-ka-bi-ais-to,la-ka-bia-is-to,-0.381481489,-0.104629658,1,0,0,0.7661,text_option_1,,0,97,97,40,1
5ef5f63c7aa58727ac4f8588,63f3cfca20052e4ae7554ebf,6453d22f1c1fcffb56f95060,2023-05-04_17h56.16.764,ga_syllabified_check,2022.2.5,Win32,60.09615385,,,,,,,,,,,,,,./stim/p07_syllable_1_falutraigo_hit.wav,p07,falutraigo,hit,fa-lu-trai-go,fa-lu-trai-go,fa-lu-tra-i-go, ,-0.384259259,-0.104629658,1,0,0,2.5659,text_option_1,,0,98,98,140,1
5ef5f63c7aa58727ac4f8588,63f3cfca20052e4ae7554ebf,6453d22f1c1fcffb56f95060,2023-05-04_17h56.16.764,ga_syllabified_check,2022.2.5,Win32,60.09615385,,,,,,,,,,,,,,./stim/p04_syllable_1_lakabuaisto_hit.wav,p04,lakabuaisto,hit,la-ka-buais-to,la-ka-buais-to,la-ka-bu-ais-to,la-ka-bua-is-to,-0.387962942,-0.104629658,1,0,0,1.9658,text_option_1,,0,99,99,41,1
5ef5f63c7aa58727ac4f8588,63f3cfca20052e4ae7554ebf,6453d22f1c1fcffb56f95060,2023-05-04_17h56.16.764,ga_syllabified_check,2022.2.5,Win32,60.09615385,,,,,,,,,,,,,,./stim/p05_syllable_1_nhiape_hit.wav,p05,ñiape,hit,nhia-pe,ñia-pe,ñi-a-pe, ,-0.387962942,-0.104629658,1,0,0,0.8165,text_option_1,,0,100,100,91,1
5ef5f63c7aa58727ac4f8588,63f3cfca20052e4ae7554ebf,6453d22f1c1fcffb56f95060,2023-05-04_17h56.16.764,ga_syllabified_check,2022.2.5,Win32,60.09615385,,,,,,,,,,,,,,./stim/p06_syllable_1_lakaduaisto_hit.wav,p06,lakaduaisto,hit,la-ka-du-a-is,la-ka-duais-to,la-ka-du-ais-to,la-ka-dua-is-to,0.363888917,-0.112963005,1,0,0,8.2796,text_option_2,,0,101,101,111,1
5ef5f63c7aa58727ac4f8588,63f3cfca20052e4ae7554ebf,6453d22f1c1fcffb56f95060,2023-05-04_17h56.16.764,ga_syllabified_check,2022.2.5,Win32,60.09615385,,,,,,,,,,,,,,./stim/p04_syllable_1_palumaisto_hit.wav,p04,palumaisto,hit,pa-lu-mais-to,pa-lu-mais-to,pa-lu-ma-is-to, ,-0.309259238,-0.112963005,1,0,0,1.4996,text_option_1,,0,102,102,62,1
5ef5f63c7aa58727ac4f8588,63f3cfca20052e4ae7554ebf,6453d22f1c1fcffb56f95060,2023-05-04_17h56.16.764,ga_syllabified_check,2022.2.5,Win32,60.09615385,,,,,,,,,,,,,,./stim/p07_syllable_1_flauro_hit.wav,p07,flauro,hit,flau-ro,flau-ro,fla-u-ro, ,-0.40370369,-0.102777764,1,0,0,0.916,text_option_1,,0,103,103,141,1
5ef5f63c7aa58727ac4f8588,63f3cfca20052e4ae7554ebf,6453d22f1c1fcffb56f95060,2023-05-04_17h56.16.764,ga_syllabified_check,2022.2.5,Win32,60.09615385,,,,,,,,,,,,,,./stim/p07_syllable_1_manhiala_hit.wav,p07,mañiala,hit,ma-nhia-la,ma-ñia-la,ma-ñi-a-la, ,-0.397222201,-0.103703746,1,0,0,1.2831,text_option_1,,0,104,104,157,1
5ef5f63c7aa58727ac4f8588,63f3cfca20052e4ae7554ebf,6453d22f1c1fcffb56f95060,2023-05-04_17h56.16.764,ga_syllabified_check,2022.2.5,Win32,60.09615385,,,,,,,,,,,,,,./stim/p06_syllable_1_lakapiaisto_hit.wav,p06,lakapiaisto,hit,la-ka-pia-is-to,la-ka-piais-to,la-ka-pi-ais-to,la-ka-pia-is-to,-0.012962977,-0.111111111,1,0,0,4.8318,text_option_3,,0,105,105,118,1
5ef5f63c7aa58727ac4f8588,63f3cfca20052e4ae7554ebf,6453d22f1c1fcffb56f95060,2023-05-04_17h56.16.764,ga_syllabified_check,2022.2.5,Win32,60.09615385,,,,,,,,,,,,,,./stim/p08_syllable_1_tuliafo_hit.wav,p08,tuliafo,hit,tu-li-a-fo,tu-lia-fo,tu-li-a-fo, ,0.40833339,-0.104629658,1,0,0,2.2658,text_option_2,,0,106,106,203,1
5ef5f63c7aa58727ac4f8588,63f3cfca20052e4ae7554ebf,6453d22f1c1fcffb56f95060,2023-05-04_17h56.16.764,ga_syllabified_check,2022.2.5,Win32,60.09615385,,,,,,,,,,,,,,./stim/p04_syllable_1_mebochiana_hit.wav,p04,mebochiana,hit,me-bo-chia-na,me-bo-chia-na,me-bo-chi-a-na, ,-0.356481481,-0.115740741,1,0,0,1.1827,text_option_1,,0,107,107,56,1
5ef5f63c7aa58727ac4f8588,63f3cfca20052e4ae7554ebf,6453d22f1c1fcffb56f95060,2023-05-04_17h56.16.764,ga_syllabified_check,2022.2.5,Win32,60.09615385,,,,,,,,,,,,,,./stim/p03_syllable_1_costonhialo_hit.wav,p03,costoñialo,hit,cos-to-nhia-lo,cos-to-ñia-lo,cos-to-ñi-a-lo, ,-0.356481481,-0.115740741,1,0,0,1.3163,text_option_1,,0,108,108,1,1
5ef5f63c7aa58727ac4f8588,63f3cfca20052e4ae7554ebf,6453d22f1c1fcffb56f95060,2023-05-04_17h56.16.764,ga_syllabified_check,2022.2.5,Win32,60.09615385,,,,,,,,,,,,,,./stim/p08_syllable_1_lakabuaisto_hit.wav,p08,lakabuaisto,hit,la-ka-bu-ais-to,la-ka-buais-to,la-ka-bu-ais-to,la-ka-bua-is-to,0.444444444,-0.108333376,1,0,0,3.6316,text_option_2,,0,109,109,177,1
5ef5f63c7aa58727ac4f8588,63f3cfca20052e4ae7554ebf,6453d22f1c1fcffb56f95060,2023-05-04_17h56.16.764,ga_syllabified_check,2022.2.5,Win32,60.09615385,,,,,,,,,,,,,,./stim/p05_syllable_1_manhiala_hit.wav,p05,mañiala,hit,ma-nhia-la,ma-ñia-la,ma-ñi-a-la, ,-0.37962963,-0.107407393,1,0,0,0.9498,text_option_1,,0,110,110,89,1
5ef5f63c7aa58727ac4f8588,63f3cfca20052e4ae7554ebf,6453d22f1c1fcffb56f95060,2023-05-04_17h56.16.764,ga_syllabified_check,2022.2.5,Win32,60.09615385,,,,,,,,,,,,,,./stim/p05_syllable_1_tuliafo_hit.wav,p05,tuliafo,hit,tu-lai-fo,tu-lia-fo,tu-li-a-fo, ,-0.074074074,-0.304629644,1,0,0,4.0984,text_option_other,tu-lai-fo,0,111,111,101,1
5ef5f63c7aa58727ac4f8588,63f3cfca20052e4ae7554ebf,6453d22f1c1fcffb56f95060,2023-05-04_17h56.16.764,ga_syllabified_check,2022.2.5,Win32,60.09615385,,,,,,,,,,,,,,./stim/p07_syllable_1_lliape_hit.wav,p07,lliape,hit,lliai-pe,llia-pe,lli-a-pe, ,0.039814843,-0.312037079,1,0,0,8.9961,text_option_other,Iai-pe,0,112,112,156,1
5ef5f63c7aa58727ac4f8588,63f3cfca20052e4ae7554ebf,6453d22f1c1fcffb56f95060,2023-05-04_17h56.16.764,ga_syllabified_check,2022.2.5,Win32,60.09615385,,,,,,,,,,,,,,./stim/p06_syllable_1_palutrauco_hit.wav,p06,palutrauco,hit,pa-lu-tra-u-co,pa-lu-trau-co,pa-lu-tra-u-co, ,0.396296325,-0.104629658,1,0,0,2.4826,text_option_2,,0,113,113,131,1
5ef5f63c7aa58727ac4f8588,63f3cfca20052e4ae7554ebf,6453d22f1c1fcffb56f95060,2023-05-04_17h56.16.764,ga_syllabified_check,2022.2.5,Win32,60.09615385,,,,,,,,,,,,,,./stim/p07_syllable_1_lakabuaisto_hit.wav,p07,lakabuaisto,hit,la-ka-buais-to,la-ka-buais-to,la-ka-bu-ais-to,la-ka-bua-is-to,-0.37037037,-0.10555557,1,0,0,2.249,text_option_1,,0,114,114,143,1
5ef5f63c7aa58727ac4f8588,63f3cfca20052e4ae7554ebf,6453d22f1c1fcffb56f95060,2023-05-04_17h56.16.764,ga_syllabified_check,2022.2.5,Win32,60.09615385,,,,,,,,,,,,,,./stim/p05_syllable_1_pachialo_hit.wav,p05,pachialo,hit,pan-chia-lo,pa-chia-lo,pa-chi-a-lo, ,-0.412037037,-0.110185199,1,0,0,5.2971,text_option_1,,0,115,115,92,1
5ef5f63c7aa58727ac4f8588,63f3cfca20052e4ae7554ebf,6453d22f1c1fcffb56f95060,2023-05-04_17h56.16.764,ga_syllabified_check,2022.2.5,Win32,60.09615385,,,,,,,,,,,,,,./stim/p05_syllable_1_flauro_hit.wav,p05,flauro,hit,fa-lu-ro,flau-ro,fla-u-ro, ,-0.037962949,-0.313888903,1,0,0,2.3991,text_option_other,fa-lu-ro,0,116,116,73,1
5ef5f63c7aa58727ac4f8588,63f3cfca20052e4ae7554ebf,6453d22f1c1fcffb56f95060,2023-05-04_17h56.16.764,ga_syllabified_check,2022.2.5,Win32,60.09615385,,,,,,,,,,,,,,./stim/p08_syllable_1_chiaba_hit.wav,p08,chiaba,hit,chi-a-ba,chia-ba,chi-a-ba, ,0.368518547,-0.10092594,1,0,0,1.9984,text_option_2,,0,117,117,170,1
5ef5f63c7aa58727ac4f8588,63f3cfca20052e4ae7554ebf,6453d22f1c1fcffb56f95060,2023-05-04_17h56.16.764,ga_syllabified_check,2022.2.5,Win32,60.09615385,,,,,,,,,,,,,,./stim/p06_syllable_1_lakakuaisto_hit.wav,p06,lakakuaisto,hit,la-ka-ku-a-is,la-ka-kuais-to,la-ka-ku-ais-to,la-ka-kua-is-to,0.069444444,-0.308333362,1,0,0,5.2308,text_option_other,la-ka-ku-a-is-to,0,118,118,117,1
5ef5f63c7aa58727ac4f8588,63f3cfca20052e4ae7554ebf,6453d22f1c1fcffb56f95060,2023-05-04_17h56.16.764,ga_syllabified_check,2022.2.5,Win32,60.09615385,,,,,,,,,,,,,,./stim/p04_syllable_1_lakapuaisto_hit.wav,p04,lakapuaisto,hit,la-ka-puais-to,la-ka-puais-to,la-ka-pu-ais-to,la-ka-pua-is-to,-0.360185164,-0.110185199,1,0,0,1.916,text_option_1,,0,119,119,51,1
5ef5f63c7aa58727ac4f8588,63f3cfca20052e4ae7554ebf,6453d22f1c1fcffb56f95060,2023-05-04_17h56.16.764,ga_syllabified_check,2022.2.5,Win32,60.09615385,,,,,,,,,,,,,,./stim/p04_syllable_1_palufauro_hit.wav,p04,palufauro,hit,pa-lu-fau-ro,pa-lu-fau-ro,pa-lu-fa-u-ro, ,-0.373148141,-0.108333376,1,0,0,1.8663,text_option_1,,0,120,120,59,1
5ef5f63c7aa58727ac4f8588,63f3cfca20052e4ae7554ebf,6453d22f1c1fcffb56f95060,2023-05-04_17h56.16.764,ga_syllabified_check,2022.2.5,Win32,60.09615385,,,,,,,,,,,,,,./stim/p07_syllable_1_pachialo_hit.wav,p07,pachialo,hit,pa-cha-lo,pa-chia-lo,pa-chi-a-lo, ,-0.373148141,-0.108333376,1,0,0,2.4822,text_option_1,,0,121,121,160,1
5ef5f63c7aa58727ac4f8588,63f3cfca20052e4ae7554ebf,6453d22f1c1fcffb56f95060,2023-05-04_17h56.16.764,ga_syllabified_check,2022.2.5,Win32,60.09615385,,,,,,,,,,,,,,./stim/p06_syllable_1_lakadiaisto_hit.wav,p06,lakadiaisto,hit,la-ka-dia-is-to,la-ka-diais-to,la-ka-di-ais-to,la-ka-dia-is-to,0.037037037,-0.112963005,1,0,0,4.0317,text_option_3,,0,122,122,110,1
5ef5f63c7aa58727ac4f8588,63f3cfca20052e4ae7554ebf,6453d22f1c1fcffb56f95060,2023-05-04_17h56.16.764,ga_syllabified_check,2022.2.5,Win32,60.09615385,,,,,,,,,,,,,,./stim/p04_syllable_1_ruyiola_hit.wav,p04,ruyiola,hit,ru-yio-la,ru-yio-la,ru-yi-o-la, ,-0.368518511,-0.095370399,1,0,0,0.9495,text_option_1,,0,123,123,66,1
5ef5f63c7aa58727ac4f8588,63f3cfca20052e4ae7554ebf,6453d22f1c1fcffb56f95060,2023-05-04_17h56.16.764,ga_syllabified_check,2022.2.5,Win32,60.09615385,,,,,,,,,,,,,,./stim/p04_syllable_1_nhiape_hit.wav,p04,ñiape,hit,nhia-pe,ñia-pe,ñi-a-pe, ,-0.400000007,-0.100000028,1,0,0,0.4665,text_option_1,,0,124,124,57,1
5ef5f63c7aa58727ac4f8588,63f3cfca20052e4ae7554ebf,6453d22f1c1fcffb56f95060,2023-05-04_17h56.16.764,ga_syllabified_check,2022.2.5,Win32,60.09615385,,,,,,,,,,,,,,./stim/p06_syllable_1_tuliafo_hit.wav,p06,tuliafo,hit,tu-li-a-fo,tu-lia-fo,tu-li-a-fo, ,0.385185242,-0.108333376,1,0,0,1.2996,text_option_2,,0,125,125,135,1
5ef5f63c7aa58727ac4f8588,63f3cfca20052e4ae7554ebf,6453d22f1c1fcffb56f95060,2023-05-04_17h56.16.764,ga_syllabified_check,2022.2.5,Win32,60.09615385,,,,,,,,,,,,,,./stim/p05_syllable_1_lliape_hit.wav,p05,lliape,hit,liai-pe,llia-pe,lli-a-pe, ,-0.077777792,-0.306481467,1,0,0,3.4945,text_option_other,llai-pe,0,126,126,88,1
5ef5f63c7aa58727ac4f8588,63f3cfca20052e4ae7554ebf,6453d22f1c1fcffb56f95060,2023-05-04_17h56.16.764,ga_syllabified_check,2022.2.5,Win32,60.09615385,,,,,,,,,,,,,,./stim/p07_syllable_1_palufauro_hit.wav,p07,palufauro,hit,pa-lu-fau-ro,pa-lu-fau-ro,pa-lu-fa-u-ro, ,-0.359259252,-0.098148134,1,0,0,2.8442,text_option_1,,0,127,127,161,1
5ef5f63c7aa58727ac4f8588,63f3cfca20052e4ae7554ebf,6453d22f1c1fcffb56f95060,2023-05-04_17h56.16.764,ga_syllabified_check,2022.2.5,Win32,60.09615385,,,,,,,,,,,,,,./stim/p03_syllable_1_palumaisto_hit.wav,p03,palumaisto,hit,pa-lu-mais-to,pa-lu-mais-to,pa-lu-ma-is-to, ,-0.378703683,-0.118518547,1,0,0,1.3666,text_option_1,,0,128,128,28,1
5ef5f63c7aa58727ac4f8588,63f3cfca20052e4ae7554ebf,6453d22f1c1fcffb56f95060,2023-05-04_17h56.16.764,ga_syllabified_check,2022.2.5,Win32,60.09615385,,,,,,,,,,,,,,./stim/p08_syllable_1_lakagiaisto_hit.wav,p08,lakagiaisto,hit,la-ka-gi-jas-to,la-ka-giais-to,la-ka-gi-ais-to,la-ka-gia-is-to,0.402777778,-0.094444487,1,0,0,8.5334,text_option_2,,0,129,129,182,1
5ef5f63c7aa58727ac4f8588,63f3cfca20052e4ae7554ebf,6453d22f1c1fcffb56f95060,2023-05-04_17h56.16.764,ga_syllabified_check,2022.2.5,Win32,60.09615385,,,,,,,,,,,,,,./stim/p05_syllable_1_lakagiaisto_hit.wav,p05,lakagiaisto,hit,la-ka-ki-ais-to,la-ka-giais-to,la-ka-gi-ais-to,la-ka-gia-is-to,-0.347222222,-0.110185199,1,0,0,2.4994,text_option_1,,0,130,130,80,1
5ef5f63c7aa58727ac4f8588,63f3cfca20052e4ae7554ebf,6453d22f1c1fcffb56f95060,2023-05-04_17h56.16.764,ga_syllabified_check,2022.2.5,Win32,60.09615385,,,,,,,,,,,,,,./stim/p04_syllable_1_lliape_hit.wav,p04,lliape,hit,lia-pe,llia-pe,lli-a-pe, ,-0.373148141,-0.112963005,1,0,0,3.0988,text_option_1,,0,131,131,54,1
5ef5f63c7aa58727ac4f8588,63f3cfca20052e4ae7554ebf,6453d22f1c1fcffb56f95060,2023-05-04_17h56.16.764,ga_syllabified_check,2022.2.5,Win32,60.09615385,,,,,,,,,,,,,,./stim/p04_syllable_1_chiaba_hit.wav,p04,chiaba,hit,chia-ba,chia-ba,chi-a-ba, ,-0.373148141,-0.112963005,1,0,0,0.2667,text_option_1,,0,132,132,34,1
5ef5f63c7aa58727ac4f8588,63f3cfca20052e4ae7554ebf,6453d22f1c1fcffb56f95060,2023-05-04_17h56.16.764,ga_syllabified_check,2022.2.5,Win32,60.09615385,,,,,,,,,,,,,,./stim/p08_syllable_1_flauro_hit.wav,p08,flauro,hit,flau-ro,flau-ro,fla-u-ro, ,-0.373148141,-0.112963005,1,0,0,0.8996,text_option_1,,0,133,133,175,1
5ef5f63c7aa58727ac4f8588,63f3cfca20052e4ae7554ebf,6453d22f1c1fcffb56f95060,2023-05-04_17h56.16.764,ga_syllabified_check,2022.2.5,Win32,60.09615385,,,,,,,,,,,,,,./stim/p05_syllable_1_lakabiaisto_hit.wav,p05,lakabiaisto,hit,la-ka-bi-ais-to,la-ka-biais-to,la-ka-bi-ais-to,la-ka-bia-is-to,-0.373148141,-0.112963005,1,0,0,2.1658,text_option_1,,0,134,134,74,1
5ef5f63c7aa58727ac4f8588,63f3cfca20052e4ae7554ebf,6453d22f1c1fcffb56f95060,2023-05-04_17h56.16.764,ga_syllabified_check,2022.2.5,Win32,60.09615385,,,,,,,,,,,,,,./stim/p06_syllable_1_pachialo_hit.wav,p06,pachialo,hit,pa-shi-a-lo,pa-chia-lo,pa-chi-a-lo, ,0.413888861,-0.101851852,1,0,0,1.4989,text_option_2,,0,135,135,126,1
5ef5f63c7aa58727ac4f8588,63f3cfca20052e4ae7554ebf,6453d22f1c1fcffb56f95060,2023-05-04_17h56.16.764,ga_syllabified_check,2022.2.5,Win32,60.09615385,,,,,,,,,,,,,,./stim/p04_syllable_1_tuliafo_hit.wav,p04,tuliafo,hit,tu-lia-fo,tu-lia-fo,tu-li-a-fo, ,-0.3675926,-0.112963005,1,0,0,0.9294,text_option_1,,0,136,136,67,1
5ef5f63c7aa58727ac4f8588,63f3cfca20052e4ae7554ebf,6453d22f1c1fcffb56f95060,2023-05-04_17h56.16.764,ga_syllabified_check,2022.2.5,Win32,60.09615385,,,,,,,,,,,,,,./stim/p05_syllable_1_mebochiana_hit.wav,p05,mebochiana,hit,me-cho-chai-na,me-bo-chia-na,me-bo-chi-a-na, ,0.049074102,-0.300000014,1,0,0,4.5151,text_option_other,me-cho-chai-na,0,137,137,90,1
5ef5f63c7aa58727ac4f8588,63f3cfca20052e4ae7554ebf,6453d22f1c1fcffb56f95060,2023-05-04_17h56.16.764,ga_syllabified_check,2022.2.5,Win32,60.09615385,,,,,,,,,,,,,,./stim/p05_syllable_1_costonhialo_hit.wav,p05,costoñialo,hit,cos-to-nhia-lo,cos-to-ñia-lo,cos-to-ñi-a-lo, ,-0.3675926,-0.113888917,1,0,0,1.3817,text_option_1,,0,138,138,69,1
5ef5f63c7aa58727ac4f8588,63f3cfca20052e4ae7554ebf,6453d22f1c1fcffb56f95060,2023-05-04_17h56.16.764,ga_syllabified_check,2022.2.5,Win32,60.09615385,,,,,,,,,,,,,,./stim/p08_syllable_1_ruyiola_hit.wav,p08,ruyiola,hit,ru-yio-la,ru-yio-la,ru-yi-o-la, ,-0.385185171,-0.10092594,1,0,0,0.9163,text_option_1,,0,139,139,202,1
5ef5f63c7aa58727ac4f8588,63f3cfca20052e4ae7554ebf,6453d22f1c1fcffb56f95060,2023-05-04_17h56.16.764,ga_syllabified_check,2022.2.5,Win32,60.09615385,,,,,,,,,,,,,,./stim/p05_syllable_1_lakatuaisto_hit.wav,p05,lakatuaisto,hit,la-ka-tais-to,la-ka-tuais-to,la-ka-tu-ais-to,la-ka-tua-is-to,0.073148162,-0.300000014,1,0,0,4.6979,text_option_other,la-ka-tais-to,0,140,140,87,1
5ef5f63c7aa58727ac4f8588,63f3cfca20052e4ae7554ebf,6453d22f1c1fcffb56f95060,2023-05-04_17h56.16.764,ga_syllabified_check,2022.2.5,Win32,60.09615385,,,,,,,,,,,,,,./stim/p06_syllable_1_payielo_hit.wav,p06,payielo,hit,pa-yi-e-lo,pa-yie-lo,pa-yi-e-lo, ,0.376851824,-0.111111111,1,0,0,2.199,text_option_2,,0,141,141,132,1
5ef5f63c7aa58727ac4f8588,63f3cfca20052e4ae7554ebf,6453d22f1c1fcffb56f95060,2023-05-04_17h56.16.764,ga_syllabified_check,2022.2.5,Win32,60.09615385,,,,,,,,,,,,,,./stim/p07_syllable_1_palufauto_hit.wav,p07,palufauto,hit,pa-lu-fau-to,pa-lu-fau-to,pa-lu-fa-u-to, ,-0.346296275,-0.111111111,1,0,0,1.7496,text_option_1,,0,142,142,162,1
5ef5f63c7aa58727ac4f8588,63f3cfca20052e4ae7554ebf,6453d22f1c1fcffb56f95060,2023-05-04_17h56.16.764,ga_syllabified_check,2022.2.5,Win32,60.09615385,,,,,,,,,,,,,,./stim/p05_syllable_1_ruyiola_hit.wav,p05,ruyiola,hit,ru-yio-la,ru-yio-la,ru-yi-o-la, ,-0.362037023,-0.110185199,1,0,0,2.3988,text_option_1,,0,143,143,100,1
5ef5f63c7aa58727ac4f8588,63f3cfca20052e4ae7554ebf,6453d22f1c1fcffb56f95060,2023-05-04_17h56.16.764,ga_syllabified_check,2022.2.5,Win32,60.09615385,,,,,,,,,,,,,,./stim/p08_syllable_1_palufauro_hit.wav,p08,palufauro,hit,pa-lu-fau-ro,pa-lu-fau-ro,pa-lu-fa-u-ro, ,-0.371296282,-0.107407393,1,0,0,2.5492,text_option_1,,0,144,144,195,1
5ef5f63c7aa58727ac4f8588,63f3cfca20052e4ae7554ebf,6453d22f1c1fcffb56f95060,2023-05-04_17h56.16.764,ga_syllabified_check,2022.2.5,Win32,60.09615385,,,,,,,,,,,,,,./stim/p03_syllable_1_falutraigo_hit.wav,p03,falutraigo,hit,fa-lu-trai-go,fa-lu-trai-go,fa-lu-tra-i-go, ,-0.380555541,-0.10555557,1,0,0,1.6494,text_option_1,,0,145,145,4,1
5ef5f63c7aa58727ac4f8588,63f3cfca20052e4ae7554ebf,6453d22f1c1fcffb56f95060,2023-05-04_17h56.16.764,ga_syllabified_check,2022.2.5,Win32,60.09615385,,,,,,,,,,,,,,./stim/p03_syllable_1_lakagiaisto_hit.wav,p03,lakagiaisto,hit,la-ka-giais-to,la-ka-giais-to,la-ka-gi-ais-to,la-ka-gia-is-to,-0.378703683,-0.10555557,1,0,0,1.666,text_option_1,,0,146,146,12,1
5ef5f63c7aa58727ac4f8588,63f3cfca20052e4ae7554ebf,6453d22f1c1fcffb56f95060,2023-05-04_17h56.16.764,ga_syllabified_check,2022.2.5,Win32,60.09615385,,,,,,,,,,,,,,./stim/p07_syllable_1_palumaisto_hit.wav,p07,palumaisto,hit,pa-lu-mais-to,pa-lu-mais-to,pa-lu-ma-is-to, ,-0.360185164,-0.104629658,1,0,0,2.616,text_option_1,,0,147,147,164,1
5ef5f63c7aa58727ac4f8588,63f3cfca20052e4ae7554ebf,6453d22f1c1fcffb56f95060,2023-05-04_17h56.16.764,ga_syllabified_check,2022.2.5,Win32,60.09615385,,,,,,,,,,,,,,./stim/p03_syllable_1_lakatiaisto_hit.wav,p03,lakatiaisto,hit,la-ka-tiais-to,la-ka-tiais-to,la-ka-ti-ais-to,la-ka-tia-is-to,-0.390740748,-0.104629658,1,0,0,1.4324,text_option_1,,0,148,148,18,1
5ef5f63c7aa58727ac4f8588,63f3cfca20052e4ae7554ebf,6453d22f1c1fcffb56f95060,2023-05-04_17h56.16.764,ga_syllabified_check,2022.2.5,Win32,60.09615385,,,,,,,,,,,,,,./stim/p08_syllable_1_lakakuaisto_hit.wav,p08,lakakuaisto,hit,la-ka-ku-ais-to,la-ka-kuais-to,la-ka-ku-ais-to,la-ka-kua-is-to,0.41851849,-0.116666653,1,0,0,4.8145,text_option_2,,0,149,149,185,1
5ef5f63c7aa58727ac4f8588,63f3cfca20052e4ae7554ebf,6453d22f1c1fcffb56f95060,2023-05-04_17h56.16.764,ga_syllabified_check,2022.2.5,Win32,60.09615385,,,,,,,,,,,,,,./stim/p04_syllable_1_lakafiaisto_hit.wav,p04,lakafiaisto,hit,la-ka-fiais-to,la-ka-fiais-to,la-ka-fi-ais-to,la-ka-fia-is-to,-0.352777764,-0.10555557,1,0,0,2.0662,text_option_1,,0,150,150,44,1
5ef5f63c7aa58727ac4f8588,63f3cfca20052e4ae7554ebf,6453d22f1c1fcffb56f95060,2023-05-04_17h56.16.764,ga_syllabified_check,2022.2.5,Win32,60.09615385,,,,,,,,,,,,,,./stim/p03_syllable_1_lakabiaisto_hit.wav,p03,lakabiaisto,hit,la-ka-biais-to,la-ka-biais-to,la-ka-bi-ais-to,la-ka-bia-is-to,-0.353703711,-0.10555557,1,0,0,1.3666,text_option_1,,0,151,151,6,1
5ef5f63c7aa58727ac4f8588,63f3cfca20052e4ae7554ebf,6453d22f1c1fcffb56f95060,2023-05-04_17h56.16.764,ga_syllabified_check,2022.2.5,Win32,60.09615385,,,,,,,,,,,,,,./stim/p03_syllable_1_rausto_hit.wav,p03,rausto,hit,raus-to,raus-to,ra-us-to, ,-0.38703703,-0.10555557,1,0,0,1.1329,text_option_1,,0,152,152,31,1
5ef5f63c7aa58727ac4f8588,63f3cfca20052e4ae7554ebf,6453d22f1c1fcffb56f95060,2023-05-04_17h56.16.764,ga_syllabified_check,2022.2.5,Win32,60.09615385,,,,,,,,,,,,,,./stim/p05_syllable_1_lakadiaisto_hit.wav,p05,lakadiaisto,hit,la-ka-di-ais-to,la-ka-diais-to,la-ka-di-ais-to,la-ka-dia-is-to,0.358333305,-0.102777764,1,0,0,3.2309,text_option_2,,0,153,153,76,1
5ef5f63c7aa58727ac4f8588,63f3cfca20052e4ae7554ebf,6453d22f1c1fcffb56f95060,2023-05-04_17h56.16.764,ga_syllabified_check,2022.2.5,Win32,60.09615385,,,,,,,,,,,,,,./stim/p04_syllable_1_paluguato_hit.wav,p04,paluguato,hit,pa-lu-gua,pa-lu-gua-to,pa-lu-gu-a-to, ,-0.330555563,-0.097222222,1,0,0,3.1488,text_option_1,,0,154,154,61,1
5ef5f63c7aa58727ac4f8588,63f3cfca20052e4ae7554ebf,6453d22f1c1fcffb56f95060,2023-05-04_17h56.16.764,ga_syllabified_check,2022.2.5,Win32,60.09615385,,,,,,,,,,,,,,./stim/p08_syllable_1_mebochiana_hit.wav,p08,mebochiana,hit,me-bo-chi-a-na,me-bo-chia-na,me-bo-chi-a-na, ,0.462962963,-0.107407393,1,0,0,3.2156,text_option_2,,0,155,155,192,1
5ef5f63c7aa58727ac4f8588,63f3cfca20052e4ae7554ebf,6453d22f1c1fcffb56f95060,2023-05-04_17h56.16.764,ga_syllabified_check,2022.2.5,Win32,60.09615385,,,,,,,,,,,,,,./stim/p07_syllable_1_lakatiaisto_hit.wav,p07,lakatiaisto,hit,la-ka-tiai-sto,la-ka-tiais-to,la-ka-ti-ais-to,la-ka-tia-is-to,-0.36296297,-0.102777764,1,0,0,6.5799,text_option_1,,0,156,156,154,1
5ef5f63c7aa58727ac4f8588,63f3cfca20052e4ae7554ebf,6453d22f1c1fcffb56f95060,2023-05-04_17h56.16.764,ga_syllabified_check,2022.2.5,Win32,60.09615385,,,,,,,,,,,,,,./stim/p08_syllable_1_lakadiaisto_hit.wav,p08,lakadiaisto,hit,la-ka-di-jas-to,la-ka-diais-to,la-ka-di-ais-to,la-ka-dia-is-to,0.424074102,-0.097222222,1,0,0,3.8314,text_option_2,,0,157,157,178,1
5ef5f63c7aa58727ac4f8588,63f3cfca20052e4ae7554ebf,6453d22f1c1fcffb56f95060,2023-05-04_17h56.16.764,ga_syllabified_check,2022.2.5,Win32,60.09615385,,,,,,,,,,,,,,./stim/p08_syllable_1_paluguato_hit.wav,p08,paluguato,hit,pa-lu-gua-to,pa-lu-gua-to,pa-lu-gu-a-to, ,-0.40370369,-0.103703746,1,0,0,2.2489,text_option_1,,0,158,158,197,1
5ef5f63c7aa58727ac4f8588,63f3cfca20052e4ae7554ebf,6453d22f1c1fcffb56f95060,2023-05-04_17h56.16.764,ga_syllabified_check,2022.2.5,Win32,60.09615385,,,,,,,,,,,,,,./stim/p04_syllable_1_palutrauco_hit.wav,p04,palutrauco,hit,pa-lu-trau-co,pa-lu-trau-co,pa-lu-tra-u-co, ,-0.371296282,-0.109259288,1,0,0,1.4157,text_option_1,,0,159,159,63,1
5ef5f63c7aa58727ac4f8588,63f3cfca20052e4ae7554ebf,6453d22f1c1fcffb56f95060,2023-05-04_17h56.16.764,ga_syllabified_check,2022.2.5,Win32,60.09615385,,,,,,,,,,,,,,./stim/p03_syllable_1_lakakiaisto_hit.wav,p03,lakakiaisto,hit,la-ka-kiais-to,la-ka-kiais-to,la-ka-ki-ais-to,la-ka-kia-is-to,-0.371296282,-0.108333376,1,0,0,2.0624,text_option_1,,0,160,160,14,1
5ef5f63c7aa58727ac4f8588,63f3cfca20052e4ae7554ebf,6453d22f1c1fcffb56f95060,2023-05-04_17h56.16.764,ga_syllabified_check,2022.2.5,Win32,60.09615385,,,,,,,,,,,,,,./stim/p04_syllable_1_lakakiaisto_hit.wav,p04,lakakiaisto,hit,la-ka-kiais-to,la-ka-kiais-to,la-ka-ki-ais-to,la-ka-kia-is-to,-0.3675926,-0.10555557,1,0,0,1.4328,text_option_1,,0,161,161,48,1
5ef5f63c7aa58727ac4f8588,63f3cfca20052e4ae7554ebf,6453d22f1c1fcffb56f95060,2023-05-04_17h56.16.764,ga_syllabified_check,2022.2.5,Win32,60.09615385,,,,,,,,,,,,,,./stim/p05_syllable_1_payielo_hit.wav,p05,payielo,hit,pai-yu-we-lo,pa-yie-lo,pa-yi-e-lo, ,-0.023148148,-0.293518561,1,0,0,2.4991,text_option_other,pa-yuelo,0,162,162,98,1
5ef5f63c7aa58727ac4f8588,63f3cfca20052e4ae7554ebf,6453d22f1c1fcffb56f95060,2023-05-04_17h56.16.764,ga_syllabified_check,2022.2.5,Win32,60.09615385,,,,,,,,,,,,,,./stim/p06_syllable_1_palumaisto_hit.wav,p06,palumaisto,hit,pa-lu-ma-is-to,pa-lu-mais-to,pa-lu-ma-is-to, ,0.389814871,-0.112963005,1,0,0,3.5321,text_option_2,,0,163,163,130,1
5ef5f63c7aa58727ac4f8588,63f3cfca20052e4ae7554ebf,6453d22f1c1fcffb56f95060,2023-05-04_17h56.16.764,ga_syllabified_check,2022.2.5,Win32,60.09615385,,,,,,,,,,,,,,./stim/p03_syllable_1_nhiape_hit.wav,p03,ñiape,hit,nhia-pe,ñia-pe,ñi-a-pe, ,-0.416666667,-0.104629658,1,0,0,0.8331,text_option_1,,0,164,164,23,1
5ef5f63c7aa58727ac4f8588,63f3cfca20052e4ae7554ebf,6453d22f1c1fcffb56f95060,2023-05-04_17h56.16.764,ga_syllabified_check,2022.2.5,Win32,60.09615385,,,,,,,,,,,,,,./stim/p08_syllable_1_manhiala_hit.wav,p08,mañiala,hit,ma-nhia-la,ma-ñia-la,ma-ñi-a-la, ,-0.381481489,-0.098148134,1,0,0,1.5164,text_option_1,,0,165,165,191,1
5ef5f63c7aa58727ac4f8588,63f3cfca20052e4ae7554ebf,6453d22f1c1fcffb56f95060,2023-05-04_17h56.16.764,ga_syllabified_check,2022.2.5,Win32,60.09615385,,,,,,,,,,,,,,./stim/p04_syllable_1_lakadiaisto_hit.wav,p04,lakadiaisto,hit,la-ka-dias-to,la-ka-diais-to,la-ka-di-ais-to,la-ka-dia-is-to,-0.35833334,-0.114814829,1,0,0,1.0828,text_option_1,,0,166,166,42,1
5ef5f63c7aa58727ac4f8588,63f3cfca20052e4ae7554ebf,6453d22f1c1fcffb56f95060,2023-05-04_17h56.16.764,ga_syllabified_check,2022.2.5,Win32,60.09615385,,,,,,,,,,,,,,./stim/p07_syllable_1_faluduako_hit.wav,p07,faluduako,hit,fa-lu-dua-ko,fa-lu-dua-ko,fa-lu-du-a-ko, ,-0.384259259,-0.109259288,1,0,0,2.1491,text_option_1,,0,167,167,138,1
5ef5f63c7aa58727ac4f8588,63f3cfca20052e4ae7554ebf,6453d22f1c1fcffb56f95060,2023-05-04_17h56.16.764,ga_syllabified_check,2022.2.5,Win32,60.09615385,,,,,,,,,,,,,,./stim/p03_syllable_1_chiaba_hit.wav,p03,chiaba,hit,chia-ba,chia-ba,chi-a-ba, ,-0.3675926,-0.114814829,1,0,0,0.55,text_option_1,,0,168,168,0,1
5ef5f63c7aa58727ac4f8588,63f3cfca20052e4ae7554ebf,6453d22f1c1fcffb56f95060,2023-05-04_17h56.16.764,ga_syllabified_check,2022.2.5,Win32,60.09615385,,,,,,,,,,,,,,./stim/p04_syllable_1_pachialo_hit.wav,p04,pachialo,hit,pa-chia-lo,pa-chia-lo,pa-chi-a-lo, ,-0.373148141,-0.104629658,1,0,0,0.5662,text_option_1,,0,169,169,58,1
5ef5f63c7aa58727ac4f8588,63f3cfca20052e4ae7554ebf,6453d22f1c1fcffb56f95060,2023-05-04_17h56.16.764,ga_syllabified_check,2022.2.5,Win32,60.09615385,,,,,,,,,,,,,,./stim/p07_syllable_1_lakapiaisto_hit.wav,p07,lakapiaisto,hit,la-ka-pia-sto,la-ka-piais-to,la-ka-pi-ais-to,la-ka-pia-is-to,-0.356481481,-0.108333376,1,0,0,3.1652,text_option_1,,0,170,170,152,1
5ef5f63c7aa58727ac4f8588,63f3cfca20052e4ae7554ebf,6453d22f1c1fcffb56f95060,2023-05-04_17h56.16.764,ga_syllabified_check,2022.2.5,Win32,60.09615385,,,,,,,,,,,,,,./stim/p04_syllable_1_falutraigo_hit.wav,p04,falutraigo,hit,fa-lu-trai-go,fa-lu-trai-go,fa-lu-tra-i-go, ,-0.3675926,-0.108333376,1,0,0,0.7665,text_option_1,,0,171,171,38,1
5ef5f63c7aa58727ac4f8588,63f3cfca20052e4ae7554ebf,6453d22f1c1fcffb56f95060,2023-05-04_17h56.16.764,ga_syllabified_check,2022.2.5,Win32,60.09615385,,,,,,,,,,,,,,./stim/p06_syllable_1_lakapuaisto_hit.wav,p06,lakapuaisto,hit,la-ka-pu-a-is,la-ka-puais-to,la-ka-pu-ais-to,la-ka-pua-is-to,0.075925968,-0.318518533,1,0,0,5.4143,text_option_other,la-ka-pu-a-is-to,0,172,172,119,1
5ef5f63c7aa58727ac4f8588,63f3cfca20052e4ae7554ebf,6453d22f1c1fcffb56f95060,2023-05-04_17h56.16.764,ga_syllabified_check,2022.2.5,Win32,60.09615385,,,,,,,,,,,,,,./stim/p06_syllable_1_paluguato_hit.wav,p06,paluguato,hit,pa-lu-gua-to,pa-lu-gua-to,pa-lu-gu-a-to, ,-0.337962963,-0.108333376,1,0,0,3.0987,text_option_1,,0,173,173,129,1
5ef5f63c7aa58727ac4f8588,63f3cfca20052e4ae7554ebf,6453d22f1c1fcffb56f95060,2023-05-04_17h56.16.764,ga_syllabified_check,2022.2.5,Win32,60.09615385,,,,,,,,,,,,,,./stim/p03_syllable_1_lliape_hit.wav,p03,lliape,hit,llia,llia-pe,lli-a-pe, ,-0.371296282,-0.100000028,1,0,0,0.7827,text_option_1,,0,174,174,20,1
5ef5f63c7aa58727ac4f8588,63f3cfca20052e4ae7554ebf,6453d22f1c1fcffb56f95060,2023-05-04_17h56.16.764,ga_syllabified_check,2022.2.5,Win32,60.09615385,,,,,,,,,,,,,,./stim/p07_syllable_1_lakaguaisto_hit.wav,p07,lakaguaisto,hit,la-ka-guais-to,la-ka-guais-to,la-ka-gu-ais-to,la-ka-gua-is-to,-0.361111111,-0.108333376,1,0,0,1.8991,text_option_1,,0,175,175,149,1
5ef5f63c7aa58727ac4f8588,63f3cfca20052e4ae7554ebf,6453d22f1c1fcffb56f95060,2023-05-04_17h56.16.764,ga_syllabified_check,2022.2.5,Win32,60.09615385,,,,,,,,,,,,,,./stim/p08_syllable_1_pachialo_hit.wav,p08,pachialo,hit,pa-chi-ja-lo,pa-chia-lo,pa-chi-a-lo, ,0.358333305,-0.101851852,1,0,0,1.4213,text_option_2,,0,176,176,194,1
5ef5f63c7aa58727ac4f8588,63f3cfca20052e4ae7554ebf,6453d22f1c1fcffb56f95060,2023-05-04_17h56.16.764,ga_syllabified_check,2022.2.5,Win32,60.09615385,,,,,,,,,,,,,,./stim/p07_syllable_1_lakagiaisto_hit.wav,p07,lakagiaisto,hit,la-ka-gais-to,la-ka-giais-to,la-ka-gi-ais-to,la-ka-gia-is-to,-0.017592607,-0.311111097,1,0,0,8.0297,text_option_other,la-ka-gais-to,0,177,177,148,1
5ef5f63c7aa58727ac4f8588,63f3cfca20052e4ae7554ebf,6453d22f1c1fcffb56f95060,2023-05-04_17h56.16.764,ga_syllabified_check,2022.2.5,Win32,60.09615385,,,,,,,,,,,,,,./stim/p03_syllable_1_lakakuaisto_hit.wav,p03,lakakuaisto,hit,la-ka-kuais-to,la-ka-kuais-to,la-ka-ku-ais-to,la-ka-kua-is-to,-0.389814801,-0.112963005,1,0,0,1.8496,text_option_1,,0,178,178,15,1
5ef5f63c7aa58727ac4f8588,63f3cfca20052e4ae7554ebf,6453d22f1c1fcffb56f95060,2023-05-04_17h56.16.764,ga_syllabified_check,2022.2.5,Win32,60.09615385,,,,,,,,,,,,,,./stim/p05_syllable_1_paluguato_hit.wav,p05,paluguato,hit,pa-lu-gau-to,pa-lu-gua-to,pa-lu-gu-a-to, ,-0.011111083,-0.297222208,1,0,0,3.3147,text_option_other,pa-lu-cau-to,0,179,179,95,1
5ef5f63c7aa58727ac4f8588,63f3cfca20052e4ae7554ebf,6453d22f1c1fcffb56f95060,2023-05-04_17h56.16.764,ga_syllabified_check,2022.2.5,Win32,60.09615385,,,,,,,,,,,,,,./stim/p03_syllable_1_mebochiana_hit.wav,p03,mebochiana,hit,me-bo-chia-na,me-bo-chia-na,me-bo-chi-a-na, ,-0.357407393,-0.095370399,1,0,0,1.866,text_option_1,,0,180,180,22,1
5ef5f63c7aa58727ac4f8588,63f3cfca20052e4ae7554ebf,6453d22f1c1fcffb56f95060,2023-05-04_17h56.16.764,ga_syllabified_check,2022.2.5,Win32,60.09615385,,,,,,,,,,,,,,./stim/p06_syllable_1_rausto_hit.wav,p06,rausto,hit,ra-us-to,raus-to,ra-us-to, ,0.399074131,-0.107407393,1,0,0,2.0491,text_option_2,,0,181,181,133,1
5ef5f63c7aa58727ac4f8588,63f3cfca20052e4ae7554ebf,6453d22f1c1fcffb56f95060,2023-05-04_17h56.16.764,ga_syllabified_check,2022.2.5,Win32,60.09615385,,,,,,,,,,,,,,./stim/p03_syllable_1_tuliafo_hit.wav,p03,tuliafo,hit,tu-lia-fo,tu-lia-fo,tu-li-a-fo, ,-0.374074053,-0.111111111,1,0,0,1.3827,text_option_1,,0,182,182,33,1
5ef5f63c7aa58727ac4f8588,63f3cfca20052e4ae7554ebf,6453d22f1c1fcffb56f95060,2023-05-04_17h56.16.764,ga_syllabified_check,2022.2.5,Win32,60.09615385,,,,,,,,,,,,,,./stim/p05_syllable_1_falutraigo_hit.wav,p05,falutraigo,hit,fa-lu-trai-go,fa-lu-trai-go,fa-lu-tra-i-go, ,-0.04814812,-0.308333362,1,0,0,2.066,text_option_other,fa-lu-trai-ko,0,183,183,72,1
5ef5f63c7aa58727ac4f8588,63f3cfca20052e4ae7554ebf,6453d22f1c1fcffb56f95060,2023-05-04_17h56.16.764,ga_syllabified_check,2022.2.5,Win32,60.09615385,,,,,,,,,,,,,,./stim/p08_syllable_1_falufaisto_hit.wav,p08,falufaisto,hit,fa-lu-fais-to,fa-lu-fais-to,fa-lu-fa-is-to, ,-0.364814794,-0.119444459,1,0,0,2.1489,text_option_1,,0,184,184,173,1
5ef5f63c7aa58727ac4f8588,63f3cfca20052e4ae7554ebf,6453d22f1c1fcffb56f95060,2023-05-04_17h56.16.764,ga_syllabified_check,2022.2.5,Win32,60.09615385,,,,,,,,,,,,,,./stim/p03_syllable_1_paluguato_hit.wav,p03,paluguato,hit,pa-lu-gua,pa-lu-gua-to,pa-lu-gu-a-to, ,-0.369444423,-0.101851852,1,0,0,1.2664,text_option_1,,0,185,185,27,1
5ef5f63c7aa58727ac4f8588,63f3cfca20052e4ae7554ebf,6453d22f1c1fcffb56f95060,2023-05-04_17h56.16.764,ga_syllabified_check,2022.2.5,Win32,60.09615385,,,,,,,,,,,,,,./stim/p03_syllable_1_flauro_hit.wav,p03,flauro,hit,flau-ro,flau-ro,fla-u-ro, ,-0.375,-0.102777764,1,0,0,0.383,text_option_1,,0,186,186,5,1
5ef5f63c7aa58727ac4f8588,63f3cfca20052e4ae7554ebf,6453d22f1c1fcffb56f95060,2023-05-04_17h56.16.764,ga_syllabified_check,2022.2.5,Win32,60.09615385,,,,,,,,,,,,,,./stim/p06_syllable_1_falufaisto_hit.wav,p06,falufaisto,hit,fa-lu-fa-is-to,fa-lu-fais-to,fa-lu-fa-is-to, ,0.362037094,-0.099074116,1,0,0,2.3157,text_option_2,,0,187,187,105,1
5ef5f63c7aa58727ac4f8588,63f3cfca20052e4ae7554ebf,6453d22f1c1fcffb56f95060,2023-05-04_17h56.16.764,ga_syllabified_check,2022.2.5,Win32,60.09615385,,,,,,,,,,,,,,./stim/p04_syllable_1_falufaisto_hit.wav,p04,falufaisto,hit,fa-lu-fais-to,fa-lu-fais-to,fa-lu-fa-is-to, ,-0.369444423,-0.10092594,1,0,0,0.9663,text_option_1,,0,188,188,37,1
5ef5f63c7aa58727ac4f8588,63f3cfca20052e4ae7554ebf,6453d22f1c1fcffb56f95060,2023-05-04_17h56.16.764,ga_syllabified_check,2022.2.5,Win32,60.09615385,,,,,,,,,,,,,,./stim/p04_syllable_1_payielo_hit.wav,p04,payielo,hit,pa-yie-lo,pa-yie-lo,pa-yi-e-lo, ,-0.395370377,-0.112037023,1,0,0,0.5998,text_option_1,,0,189,189,64,1
5ef5f63c7aa58727ac4f8588,63f3cfca20052e4ae7554ebf,6453d22f1c1fcffb56f95060,2023-05-04_17h56.16.764,ga_syllabified_check,2022.2.5,Win32,60.09615385,,,,,,,,,,,,,,./stim/p06_syllable_1_lakagiaisto_hit.wav,p06,lakagiaisto,hit,la-ka-gia-is-to,la-ka-giais-to,la-ka-gi-ais-to,la-ka-gia-is-to,0.031481496,-0.108333376,1,0,0,4.0648,text_option_3,,0,190,190,114,1
5ef5f63c7aa58727ac4f8588,63f3cfca20052e4ae7554ebf,6453d22f1c1fcffb56f95060,2023-05-04_17h56.16.764,ga_syllabified_check,2022.2.5,Win32,60.09615385,,,,,,,,,,,,,,./stim/p05_syllable_1_rausto_hit.wav,p05,rausto,hit,raus-to,raus-to,ra-us-to, ,-0.390740748,-0.10092594,1,0,0,0.3997,text_option_1,,0,191,191,99,1
5ef5f63c7aa58727ac4f8588,63f3cfca20052e4ae7554ebf,6453d22f1c1fcffb56f95060,2023-05-04_17h56.16.764,ga_syllabified_check,2022.2.5,Win32,60.09615385,,,,,,,,,,,,,,./stim/p08_syllable_1_rausto_hit.wav,p08,rausto,hit,raus-to,raus-to,ra-us-to, ,-0.395370377,-0.107407393,1,0,0,1.1329,text_option_1,,0,192,192,201,1
5ef5f63c7aa58727ac4f8588,63f3cfca20052e4ae7554ebf,6453d22f1c1fcffb56f95060,2023-05-04_17h56.16.764,ga_syllabified_check,2022.2.5,Win32,60.09615385,,,,,,,,,,,,,,./stim/p05_syllable_1_lakapiaisto_hit.wav,p05,lakapiaisto,hit,la-ka-pais-to,la-ka-piais-to,la-ka-pi-ais-to,la-ka-pia-is-to,-0.066666638,-0.310185185,1,0,0,2.9663,text_option_other,la-ka-pais-to,0,193,193,84,1
5ef5f63c7aa58727ac4f8588,63f3cfca20052e4ae7554ebf,6453d22f1c1fcffb56f95060,2023-05-04_17h56.16.764,ga_syllabified_check,2022.2.5,Win32,60.09615385,,,,,,,,,,,,,,./stim/p03_syllable_1_lakafuaisto_hit.wav,p03,lakafuaisto,hit,la-ka-fuais-to,la-ka-fuais-to,la-ka-fu-ais-to,la-ka-fua-is-to,-0.349999993,-0.109259288,1,0,0,1.7189,text_option_1,,0,194,194,11,1
5ef5f63c7aa58727ac4f8588,63f3cfca20052e4ae7554ebf,6453d22f1c1fcffb56f95060,2023-05-04_17h56.16.764,ga_syllabified_check,2022.2.5,Win32,60.09615385,,,,,,,,,,,,,,./stim/p03_syllable_1_lakapiaisto_hit.wav,p03,lakapiaisto,hit,la-ka-piais-to,la-ka-piais-to,la-ka-pi-ais-to,la-ka-pia-is-to,-0.378703683,-0.106481481,1,0,0,0.9497,text_option_1,,0,195,195,16,1
5ef5f63c7aa58727ac4f8588,63f3cfca20052e4ae7554ebf,6453d22f1c1fcffb56f95060,2023-05-04_17h56.16.764,ga_syllabified_check,2022.2.5,Win32,60.09615385,,,,,,,,,,,,,,./stim/p04_syllable_1_lakaguaisto_hit.wav,p04,lakaguaisto,hit,la-ka-guais-to,la-ka-guais-to,la-ka-gu-ais-to,la-ka-gua-is-to,-0.364814794,-0.101851852,1,0,0,1.2167,text_option_1,,0,196,196,47,1
5ef5f63c7aa58727ac4f8588,63f3cfca20052e4ae7554ebf,6453d22f1c1fcffb56f95060,2023-05-04_17h56.16.764,ga_syllabified_check,2022.2.5,Win32,60.09615385,,,,,,,,,,,,,,./stim/p08_syllable_1_palumaisto_hit.wav,p08,palumaisto,hit,pa-lu-mais-to,pa-lu-mais-to,pa-lu-ma-is-to, ,-0.343518504,-0.111111111,1,0,0,2.0491,text_option_1,,0,197,197,198,1
5ef5f63c7aa58727ac4f8588,63f3cfca20052e4ae7554ebf,6453d22f1c1fcffb56f95060,2023-05-04_17h56.16.764,ga_syllabified_check,2022.2.5,Win32,60.09615385,,,,,,,,,,,,,,./stim/p04_syllable_1_lakapiaisto_hit.wav,p04,lakapiaisto,hit,la-ka-piais-to,la-ka-piais-to,la-ka-pi-ais-to,la-ka-pia-is-to,-0.353703711,-0.10555557,1,0,0,1.9297,text_option_1,,0,198,198,50,1
5ef5f63c7aa58727ac4f8588,63f3cfca20052e4ae7554ebf,6453d22f1c1fcffb56f95060,2023-05-04_17h56.16.764,ga_syllabified_check,2022.2.5,Win32,60.09615385,,,,,,,,,,,,,,./stim/p05_syllable_1_lakapuaisto_hit.wav,p05,lakapuaisto,hit,la-ka-pais-to,la-ka-puais-to,la-ka-pu-ais-to,la-ka-pua-is-to,0.02870369,-0.300000014,1,0,0,4.4142,text_option_other,la-ka-pais-to,0,199,199,85,1
5ef5f63c7aa58727ac4f8588,63f3cfca20052e4ae7554ebf,6453d22f1c1fcffb56f95060,2023-05-04_17h56.16.764,ga_syllabified_check,2022.2.5,Win32,60.09615385,,,,,,,,,,,,,,./stim/p08_syllable_1_palutrauco_hit.wav,p08,palutrauco,hit,pa-lu-trau-ko,pa-lu-trau-co,pa-lu-tra-u-co, ,-0.35833334,-0.10092594,1,0,0,2.5323,text_option_1,,0,200,200,199,1
5ef5f63c7aa58727ac4f8588,63f3cfca20052e4ae7554ebf,6453d22f1c1fcffb56f95060,2023-05-04_17h56.16.764,ga_syllabified_check,2022.2.5,Win32,60.09615385,,,,,,,,,,,,,,./stim/p07_syllable_1_ruyiola_hit.wav,p07,ruyiola,hit,ru-yio-la,ru-yio-la,ru-yi-o-la, ,-0.374074053,-0.10092594,1,0,0,1.0332,text_option_1,,0,201,201,168,1
5ef5f63c7aa58727ac4f8588,63f3cfca20052e4ae7554ebf,6453d22f1c1fcffb56f95060,2023-05-04_17h56.16.764,ga_syllabified_check,2022.2.5,Win32,60.09615385,,,,,,,,,,,,,,./stim/p06_syllable_1_ruyiola_hit.wav,p06,ruyiola,hit,ru-yi-o-la,ru-yio-la,ru-yi-o-la, ,0.376851824,-0.107407393,1,0,0,1.6163,text_option_2,,0,202,202,134,1
5ef5f63c7aa58727ac4f8588,63f3cfca20052e4ae7554ebf,6453d22f1c1fcffb56f95060,2023-05-04_17h56.16.764,ga_syllabified_check,2022.2.5,Win32,60.09615385,,,,,,,,,,,,,,./stim/p03_syllable_1_lakapuaisto_hit.wav,p03,lakapuaisto,hit,la-ka-puais-to,la-ka-puais-to,la-ka-pu-ais-to,la-ka-pua-is-to,-0.302777785,-0.113888917,1,0,0,1.6991,text_option_1,,0,203,203,17,1
5ef5f63c7aa58727ac4f8588,63f3cfca20052e4ae7554ebf,6453d22f1c1fcffb56f95060,2023-05-04_17h56.16.764,ga_syllabified_check,2022.2.5,Win32,60.09615385,,,,,,,,,,,,,,,,,,,,,,,,,,,,,,,,,,
