participant,study,session,date,expName,psychopyVersion,OS,frameRate,mouse_practice.x,mouse_practice.y,mouse_practice.leftButton,mouse_practice.midButton,mouse_practice.rightButton,mouse_practice.time,mouse_practice.clicked_name,textbox_followup_practice.text,trials_practice.thisRepN,trials_practice.thisTrialN,trials_practice.thisN,trials_practice.thisIndex,trials_practice.ran,file_path,id,item,status,response,op1,op2,op3,mouse.x,mouse.y,mouse.leftButton,mouse.midButton,mouse.rightButton,mouse.time,mouse.clicked_name,textbox_followup.text,trials.thisRepN,trials.thisTrialN,trials.thisN,trials.thisIndex,trials.ran
5f1ff0f7027b2823badd501b,63f3cfca20052e4ae7554ebf,6453c8cb7516ae8532f95087,2023-05-04_17h07.17.939,ga_syllabified_check,2022.2.5,Win32,60.23370678,,,,,,,,,,,,,,,,,,,,,,,,,,,,,,,,,,
5f1ff0f7027b2823badd501b,63f3cfca20052e4ae7554ebf,6453c8cb7516ae8532f95087,2023-05-04_17h07.17.939,ga_syllabified_check,2022.2.5,Win32,60.23370678,-0.384259271,-0.108333333,1,0,0,9.3804,text_option_1_practice,,0,0,0,0,1,./stim/p03_syllable_1_liamo_hit.wav,p03,liamo,hit,lia-mo,lia-mo,li-a-mo, ,,,,,,,,,,,,,
5f1ff0f7027b2823badd501b,63f3cfca20052e4ae7554ebf,6453c8cb7516ae8532f95087,2023-05-04_17h07.17.939,ga_syllabified_check,2022.2.5,Win32,60.23370678,-0.387962986,-0.103703681,1,0,0,7.9471,text_option_1_practice,,0,1,1,1,1,./stim/p05_syllable_1_matio_hit.wav,p05,matio,hit,ma-tio,ma-tio,ma-ti-o, ,,,,,,,,,,,,,
5f1ff0f7027b2823badd501b,63f3cfca20052e4ae7554ebf,6453c8cb7516ae8532f95087,2023-05-04_17h07.17.939,ga_syllabified_check,2022.2.5,Win32,60.23370678,0.001851874,-0.302777846,1,0,0,5.2648,text_option_other_practice,i-lia-mo,0,2,2,2,1,./stim/p08_syllable_1_liamo_hit.wav,p08,liamo,hit,ja-mo,lia-mo,li-a-mo, ,,,,,,,,,,,,,
5f1ff0f7027b2823badd501b,63f3cfca20052e4ae7554ebf,6453c8cb7516ae8532f95087,2023-05-04_17h07.17.939,ga_syllabified_check,2022.2.5,Win32,60.23370678,,,,,,,,,,,,,,,,,,,,,,,,,,,,,,,,,,
5f1ff0f7027b2823badd501b,63f3cfca20052e4ae7554ebf,6453c8cb7516ae8532f95087,2023-05-04_17h07.17.939,ga_syllabified_check,2022.2.5,Win32,60.23370678,,,,,,,,,,,,,,./stim/p04_syllable_1_lakafiaisto_hit.wav,p04,lakafiaisto,hit,la-ka-fiais-to,la-ka-fiais-to,la-ka-fi-ais-to,la-ka-fia-is-to,0.004629652,-0.300925903,1,0,0,5.1323,text_option_other,la-ka-fiais,0,0,0,44,1
5f1ff0f7027b2823badd501b,63f3cfca20052e4ae7554ebf,6453c8cb7516ae8532f95087,2023-05-04_17h07.17.939,ga_syllabified_check,2022.2.5,Win32,60.23370678,,,,,,,,,,,,,,./stim/p07_syllable_1_lakafiaisto_hit.wav,p07,lakafiaisto,hit,la-ka-fiais-to,la-ka-fiais-to,la-ka-fi-ais-to,la-ka-fia-is-to,-0.385185208,-0.103703681,1,0,0,6.8554,text_option_1,,0,1,1,146,1
5f1ff0f7027b2823badd501b,63f3cfca20052e4ae7554ebf,6453c8cb7516ae8532f95087,2023-05-04_17h07.17.939,ga_syllabified_check,2022.2.5,Win32,60.23370678,,,,,,,,,,,,,,./stim/p08_syllable_1_pachialo_hit.wav,p08,pachialo,hit,pa-chi-ja-lo,pa-chia-lo,pa-chi-a-lo, ,0.399074029,-0.098148126,1,0,0,4.865,text_option_2,,0,2,2,194,1
5f1ff0f7027b2823badd501b,63f3cfca20052e4ae7554ebf,6453c8cb7516ae8532f95087,2023-05-04_17h07.17.939,ga_syllabified_check,2022.2.5,Win32,60.23370678,,,,,,,,,,,,,,./stim/p06_syllable_1_lakapuaisto_hit.wav,p06,lakapuaisto,hit,la-ka-pu-a-is,la-ka-puais-to,la-ka-pu-ais-to,la-ka-pua-is-to,0.004629652,-0.305555623,1,0,0,8.8636,text_option_other,la-ka-pu-a-isto,0,3,3,119,1
5f1ff0f7027b2823badd501b,63f3cfca20052e4ae7554ebf,6453c8cb7516ae8532f95087,2023-05-04_17h07.17.939,ga_syllabified_check,2022.2.5,Win32,60.23370678,,,,,,,,,,,,,,./stim/p04_syllable_1_nhiape_hit.wav,p04,ñiape,hit,nhia-pe,ñia-pe,ñi-a-pe, ,0.002777846,-0.301851874,1,0,0,4.3654,text_option_other,ñia,0,4,4,57,1
5f1ff0f7027b2823badd501b,63f3cfca20052e4ae7554ebf,6453c8cb7516ae8532f95087,2023-05-04_17h07.17.939,ga_syllabified_check,2022.2.5,Win32,60.23370678,,,,,,,,,,,,,,./stim/p04_syllable_1_manhiala_hit.wav,p04,mañiala,hit,ma-nhia-la,ma-ñia-la,ma-ñi-a-la, ,-0.014814792,-0.299074097,1,0,0,4.5151,text_option_other,ma-ña-la,0,5,5,55,1
5f1ff0f7027b2823badd501b,63f3cfca20052e4ae7554ebf,6453c8cb7516ae8532f95087,2023-05-04_17h07.17.939,ga_syllabified_check,2022.2.5,Win32,60.23370678,,,,,,,,,,,,,,./stim/p04_syllable_1_ruyiola_hit.wav,p04,ruyiola,hit,ru-yio-la,ru-yio-la,ru-yi-o-la, ,-0.398148159,-0.102777778,1,0,0,3.482,text_option_1,,0,6,6,66,1
5f1ff0f7027b2823badd501b,63f3cfca20052e4ae7554ebf,6453c8cb7516ae8532f95087,2023-05-04_17h07.17.939,ga_syllabified_check,2022.2.5,Win32,60.23370678,,,,,,,,,,,,,,./stim/p06_syllable_1_lakabuaisto_hit.wav,p06,lakabuaisto,hit,la-ka-bu-a-is,la-ka-buais-to,la-ka-bu-ais-to,la-ka-bua-is-to,0.01759257,-0.302777846,1,0,0,47.868,text_option_other,la-ka -bu-a-isto,0,7,7,109,1
5f1ff0f7027b2823badd501b,63f3cfca20052e4ae7554ebf,6453c8cb7516ae8532f95087,2023-05-04_17h07.17.939,ga_syllabified_check,2022.2.5,Win32,60.23370678,,,,,,,,,,,,,,./stim/p03_syllable_1_manhiala_hit.wav,p03,mañiala,hit,ma-nhia-la,ma-ñia-la,ma-ñi-a-la, ,-0.05277771,-0.310185208,1,0,0,3.299,text_option_other,ma-ña,0,8,8,21,1
5f1ff0f7027b2823badd501b,63f3cfca20052e4ae7554ebf,6453c8cb7516ae8532f95087,2023-05-04_17h07.17.939,ga_syllabified_check,2022.2.5,Win32,60.23370678,,,,,,,,,,,,,,./stim/p06_syllable_1_pachialo_hit.wav,p06,pachialo,hit,pa-shi-a-lo,pa-chia-lo,pa-chi-a-lo, ,0.408333333,-0.099074029,1,0,0,3.3486,text_option_2,,0,9,9,126,1
5f1ff0f7027b2823badd501b,63f3cfca20052e4ae7554ebf,6453c8cb7516ae8532f95087,2023-05-04_17h07.17.939,ga_syllabified_check,2022.2.5,Win32,60.23370678,,,,,,,,,,,,,,./stim/p03_syllable_1_rausto_hit.wav,p03,rausto,hit,raus-to,raus-to,ra-us-to, ,-0.402777778,-0.104629584,1,0,0,15.1615,text_option_1,,0,10,10,31,1
5f1ff0f7027b2823badd501b,63f3cfca20052e4ae7554ebf,6453c8cb7516ae8532f95087,2023-05-04_17h07.17.939,ga_syllabified_check,2022.2.5,Win32,60.23370678,,,,,,,,,,,,,,./stim/p05_syllable_1_lakatiaisto_hit.wav,p05,lakatiaisto,hit,la-ka-ti-ais-to,la-ka-tiais-to,la-ka-ti-ais-to,la-ka-tia-is-to,-0.381481493,-0.101851807,1,0,0,5.5814,text_option_1,,0,11,11,86,1
5f1ff0f7027b2823badd501b,63f3cfca20052e4ae7554ebf,6453c8cb7516ae8532f95087,2023-05-04_17h07.17.939,ga_syllabified_check,2022.2.5,Win32,60.23370678,,,,,,,,,,,,,,./stim/p07_syllable_1_manhiala_hit.wav,p07,mañiala,hit,ma-nhia-la,ma-ñia-la,ma-ñi-a-la, ,0.04259257,-0.308333401,1,0,0,4.2655,text_option_other,ma-ña-la,0,12,12,157,1
5f1ff0f7027b2823badd501b,63f3cfca20052e4ae7554ebf,6453c8cb7516ae8532f95087,2023-05-04_17h07.17.939,ga_syllabified_check,2022.2.5,Win32,60.23370678,,,,,,,,,,,,,,./stim/p07_syllable_1_faluduako_hit.wav,p07,faluduako,hit,fa-lu-dua-ko,fa-lu-dua-ko,fa-lu-du-a-ko, ,-0.398148159,-0.099074029,1,0,0,5.9144,text_option_1,,0,13,13,138,1
5f1ff0f7027b2823badd501b,63f3cfca20052e4ae7554ebf,6453c8cb7516ae8532f95087,2023-05-04_17h07.17.939,ga_syllabified_check,2022.2.5,Win32,60.23370678,,,,,,,,,,,,,,./stim/p03_syllable_1_nhiape_hit.wav,p03,ñiape,hit,nhia-pe,ñia-pe,ñi-a-pe, ,-0.418518507,-0.102777778,1,0,0,4.1486,text_option_1,,0,14,14,23,1
5f1ff0f7027b2823badd501b,63f3cfca20052e4ae7554ebf,6453c8cb7516ae8532f95087,2023-05-04_17h07.17.939,ga_syllabified_check,2022.2.5,Win32,60.23370678,,,,,,,,,,,,,,./stim/p08_syllable_1_lakapiaisto_hit.wav,p08,lakapiaisto,hit,la-ka-pi-as-to,la-ka-piais-to,la-ka-pi-ais-to,la-ka-pia-is-to,0.405555556,-0.105555556,1,0,0,11.0796,text_option_2,,0,15,15,186,1
5f1ff0f7027b2823badd501b,63f3cfca20052e4ae7554ebf,6453c8cb7516ae8532f95087,2023-05-04_17h07.17.939,ga_syllabified_check,2022.2.5,Win32,60.23370678,,,,,,,,,,,,,,./stim/p05_syllable_1_lakafuaisto_hit.wav,p05,lakafuaisto,hit,la-ka-fais-to,la-ka-fuais-to,la-ka-fu-ais-to,la-ka-fua-is-to,0.046296319,-0.301851874,1,0,0,3.5592,text_option_other,la-ka-fais-to,0,16,16,79,1
5f1ff0f7027b2823badd501b,63f3cfca20052e4ae7554ebf,6453c8cb7516ae8532f95087,2023-05-04_17h07.17.939,ga_syllabified_check,2022.2.5,Win32,60.23370678,,,,,,,,,,,,,,./stim/p08_syllable_1_lakafiaisto_hit.wav,p08,lakafiaisto,hit,la-ka-fi-as-to,la-ka-fiais-to,la-ka-fi-ais-to,la-ka-fia-is-to,0.029629652,-0.299074097,1,0,0,8.0364,text_option_other,la-ka-fi-as-to,0,17,17,180,1
5f1ff0f7027b2823badd501b,63f3cfca20052e4ae7554ebf,6453c8cb7516ae8532f95087,2023-05-04_17h07.17.939,ga_syllabified_check,2022.2.5,Win32,60.23370678,,,,,,,,,,,,,,./stim/p05_syllable_1_palufauto_hit.wav,p05,palufauto,hit,pa-lu-fau-to,pa-lu-fau-to,pa-lu-fa-u-to, ,-0.383333333,-0.101851807,1,0,0,7.1973,text_option_1,,0,18,18,94,1
5f1ff0f7027b2823badd501b,63f3cfca20052e4ae7554ebf,6453c8cb7516ae8532f95087,2023-05-04_17h07.17.939,ga_syllabified_check,2022.2.5,Win32,60.23370678,,,,,,,,,,,,,,./stim/p06_syllable_1_lakaduaisto_hit.wav,p06,lakaduaisto,hit,la-ka-du-a-is,la-ka-duais-to,la-ka-du-ais-to,la-ka-dua-is-to,-0.00277771,-0.287962986,1,0,0,27.5139,text_option_other,la-ka-du-a-is-to,0,19,19,111,1
5f1ff0f7027b2823badd501b,63f3cfca20052e4ae7554ebf,6453c8cb7516ae8532f95087,2023-05-04_17h07.17.939,ga_syllabified_check,2022.2.5,Win32,60.23370678,,,,,,,,,,,,,,./stim/p05_syllable_1_paluguato_hit.wav,p05,paluguato,hit,pa-lu-gau-to,pa-lu-gua-to,pa-lu-gu-a-to, ,0.016666734,-0.302777846,1,0,0,4.9654,text_option_other,pa-lu-ca,0,20,20,95,1
5f1ff0f7027b2823badd501b,63f3cfca20052e4ae7554ebf,6453c8cb7516ae8532f95087,2023-05-04_17h07.17.939,ga_syllabified_check,2022.2.5,Win32,60.23370678,,,,,,,,,,,,,,./stim/p03_syllable_1_lakakiaisto_hit.wav,p03,lakakiaisto,hit,la-ka-kiais-to,la-ka-kiais-to,la-ka-ki-ais-to,la-ka-kia-is-to,-0.38240743,-0.103703681,1,0,0,5.6152,text_option_1,,0,21,21,14,1
5f1ff0f7027b2823badd501b,63f3cfca20052e4ae7554ebf,6453c8cb7516ae8532f95087,2023-05-04_17h07.17.939,ga_syllabified_check,2022.2.5,Win32,60.23370678,,,,,,,,,,,,,,./stim/p03_syllable_1_lakapuaisto_hit.wav,p03,lakapuaisto,hit,la-ka-puais-to,la-ka-puais-to,la-ka-pu-ais-to,la-ka-pua-is-to,-0.377777778,-0.105555556,1,0,0,6.7859,text_option_1,,0,22,22,17,1
5f1ff0f7027b2823badd501b,63f3cfca20052e4ae7554ebf,6453c8cb7516ae8532f95087,2023-05-04_17h07.17.939,ga_syllabified_check,2022.2.5,Win32,60.23370678,,,,,,,,,,,,,,./stim/p04_syllable_1_lakafuaisto_hit.wav,p04,lakafuaisto,hit,la-ka-fuais-to,la-ka-fuais-to,la-ka-fu-ais-to,la-ka-fua-is-to,-0.374074097,-0.100925903,1,0,0,4.182,text_option_1,,0,23,23,45,1
5f1ff0f7027b2823badd501b,63f3cfca20052e4ae7554ebf,6453c8cb7516ae8532f95087,2023-05-04_17h07.17.939,ga_syllabified_check,2022.2.5,Win32,60.23370678,,,,,,,,,,,,,,./stim/p07_syllable_1_lakakuaisto_hit.wav,p07,lakakuaisto,hit,la-ka-kuais-to,la-ka-kuais-to,la-ka-ku-ais-to,la-ka-kua-is-to,-0.374074097,-0.106481459,1,0,0,7.475,text_option_1,,0,24,24,151,1
5f1ff0f7027b2823badd501b,63f3cfca20052e4ae7554ebf,6453c8cb7516ae8532f95087,2023-05-04_17h07.17.939,ga_syllabified_check,2022.2.5,Win32,60.23370678,,,,,,,,,,,,,,./stim/p07_syllable_1_costonhialo_hit.wav,p07,costoñialo,hit,cos-to-nhia-lo,cos-to-ñia-lo,cos-to-ñi-a-lo, ,-0.368518541,-0.109259237,1,0,0,6.6475,text_option_1,,0,25,25,137,1
5f1ff0f7027b2823badd501b,63f3cfca20052e4ae7554ebf,6453c8cb7516ae8532f95087,2023-05-04_17h07.17.939,ga_syllabified_check,2022.2.5,Win32,60.23370678,,,,,,,,,,,,,,./stim/p08_syllable_1_lakakuaisto_hit.wav,p08,lakakuaisto,hit,la-ka-ku-ais-to,la-ka-kuais-to,la-ka-ku-ais-to,la-ka-kua-is-to,0.431481391,-0.101851807,1,0,0,5.698,text_option_2,,0,26,26,185,1
5f1ff0f7027b2823badd501b,63f3cfca20052e4ae7554ebf,6453c8cb7516ae8532f95087,2023-05-04_17h07.17.939,ga_syllabified_check,2022.2.5,Win32,60.23370678,,,,,,,,,,,,,,./stim/p05_syllable_1_pachialo_hit.wav,p05,pachialo,hit,pan-chia-lo,pa-chia-lo,pa-chi-a-lo, ,0.394444444,-0.1,1,0,0,6.1307,text_option_2,,0,27,27,92,1
5f1ff0f7027b2823badd501b,63f3cfca20052e4ae7554ebf,6453c8cb7516ae8532f95087,2023-05-04_17h07.17.939,ga_syllabified_check,2022.2.5,Win32,60.23370678,,,,,,,,,,,,,,./stim/p06_syllable_1_falutraigo_hit.wav,p06,falutraigo,hit,fa-lu-tra-i-go,fa-lu-trai-go,fa-lu-tra-i-go, ,0.414814724,-0.1,1,0,0,7.5804,text_option_2,,0,28,28,106,1
5f1ff0f7027b2823badd501b,63f3cfca20052e4ae7554ebf,6453c8cb7516ae8532f95087,2023-05-04_17h07.17.939,ga_syllabified_check,2022.2.5,Win32,60.23370678,,,,,,,,,,,,,,./stim/p05_syllable_1_lakagiaisto_hit.wav,p05,lakagiaisto,hit,la-ka-ki-ais-to,la-ka-giais-to,la-ka-gi-ais-to,la-ka-gia-is-to,-0.021296319,-0.31759257,1,0,0,18.6773,text_option_other,la-ka-kiais-to,0,29,29,80,1
5f1ff0f7027b2823badd501b,63f3cfca20052e4ae7554ebf,6453c8cb7516ae8532f95087,2023-05-04_17h07.17.939,ga_syllabified_check,2022.2.5,Win32,60.23370678,,,,,,,,,,,,,,./stim/p07_syllable_1_pachialo_hit.wav,p07,pachialo,hit,pa-cha-lo,pa-chia-lo,pa-chi-a-lo, ,-0.009259237,-0.300000068,1,0,0,3.7654,text_option_other,pa-cha,0,30,30,160,1
5f1ff0f7027b2823badd501b,63f3cfca20052e4ae7554ebf,6453c8cb7516ae8532f95087,2023-05-04_17h07.17.939,ga_syllabified_check,2022.2.5,Win32,60.23370678,,,,,,,,,,,,,,./stim/p05_syllable_1_lakapiaisto_hit.wav,p05,lakapiaisto,hit,la-ka-pais-to,la-ka-piais-to,la-ka-pi-ais-to,la-ka-pia-is-to,0.006481459,-0.309259237,1,0,0,5.009,text_option_other,la-ka-pais-to,0,31,31,84,1
5f1ff0f7027b2823badd501b,63f3cfca20052e4ae7554ebf,6453c8cb7516ae8532f95087,2023-05-04_17h07.17.939,ga_syllabified_check,2022.2.5,Win32,60.23370678,,,,,,,,,,,,,,./stim/p05_syllable_1_lakakuaisto_hit.wav,p05,lakakuaisto,hit,la-ka-kais-to,la-ka-kuais-to,la-ka-ku-ais-to,la-ka-kua-is-to,0.021296319,-0.294444512,1,0,0,3.1993,text_option_other,la-ka-kais-to,0,32,32,83,1
5f1ff0f7027b2823badd501b,63f3cfca20052e4ae7554ebf,6453c8cb7516ae8532f95087,2023-05-04_17h07.17.939,ga_syllabified_check,2022.2.5,Win32,60.23370678,,,,,,,,,,,,,,./stim/p03_syllable_1_paluguato_hit.wav,p03,paluguato,hit,pa-lu-gua,pa-lu-gua-to,pa-lu-gu-a-to, ,-0.377777778,-0.106481459,1,0,0,4.0817,text_option_1,,0,33,33,27,1
5f1ff0f7027b2823badd501b,63f3cfca20052e4ae7554ebf,6453c8cb7516ae8532f95087,2023-05-04_17h07.17.939,ga_syllabified_check,2022.2.5,Win32,60.23370678,,,,,,,,,,,,,,./stim/p07_syllable_1_lakatuaisto_hit.wav,p07,lakatuaisto,hit,la-ka-tuais-to,la-ka-tuais-to,la-ka-tu-ais-to,la-ka-tua-is-to,-0.373148159,-0.101851807,1,0,0,6.0146,text_option_1,,0,34,34,155,1
5f1ff0f7027b2823badd501b,63f3cfca20052e4ae7554ebf,6453c8cb7516ae8532f95087,2023-05-04_17h07.17.939,ga_syllabified_check,2022.2.5,Win32,60.23370678,,,,,,,,,,,,,,./stim/p08_syllable_1_tuliafo_hit.wav,p08,tuliafo,hit,tu-li-a-fo,tu-lia-fo,tu-li-a-fo, ,0.012037014,-0.305555623,1,0,0,6.964,text_option_other,tu-li-a-po,0,35,35,203,1
5f1ff0f7027b2823badd501b,63f3cfca20052e4ae7554ebf,6453c8cb7516ae8532f95087,2023-05-04_17h07.17.939,ga_syllabified_check,2022.2.5,Win32,60.23370678,,,,,,,,,,,,,,./stim/p07_syllable_1_falufaisto_hit.wav,p07,falufaisto,hit,fa-lu-fais-to,fa-lu-fais-to,fa-lu-fa-is-to, ,-0.352777778,-0.108333333,1,0,0,4.3487,text_option_1,,0,36,36,139,1
5f1ff0f7027b2823badd501b,63f3cfca20052e4ae7554ebf,6453c8cb7516ae8532f95087,2023-05-04_17h07.17.939,ga_syllabified_check,2022.2.5,Win32,60.23370678,,,,,,,,,,,,,,./stim/p03_syllable_1_mebochiana_hit.wav,p03,mebochiana,hit,me-bo-chia-na,me-bo-chia-na,me-bo-chi-a-na, ,-0.361111111,-0.100925903,1,0,0,6.531,text_option_1,,0,37,37,22,1
5f1ff0f7027b2823badd501b,63f3cfca20052e4ae7554ebf,6453c8cb7516ae8532f95087,2023-05-04_17h07.17.939,ga_syllabified_check,2022.2.5,Win32,60.23370678,,,,,,,,,,,,,,./stim/p03_syllable_1_palutrauco_hit.wav,p03,palutrauco,hit,pa-lu-trau-co,pa-lu-trau-co,pa-lu-tra-u-co, ,-0.370370382,-0.104629584,1,0,0,4.9648,text_option_1,,0,38,38,29,1
5f1ff0f7027b2823badd501b,63f3cfca20052e4ae7554ebf,6453c8cb7516ae8532f95087,2023-05-04_17h07.17.939,ga_syllabified_check,2022.2.5,Win32,60.23370678,,,,,,,,,,,,,,./stim/p08_syllable_1_lakakiaisto_hit.wav,p08,lakakiaisto,hit,la-ka-ki-jas-to,la-ka-kiais-to,la-ka-ki-ais-to,la-ka-kia-is-to,0.027777846,-0.283333401,1,0,0,16.1281,text_option_other,la-ka-kias-to,0,39,39,184,1
5f1ff0f7027b2823badd501b,63f3cfca20052e4ae7554ebf,6453c8cb7516ae8532f95087,2023-05-04_17h07.17.939,ga_syllabified_check,2022.2.5,Win32,60.23370678,,,,,,,,,,,,,,./stim/p08_syllable_1_palumaisto_hit.wav,p08,palumaisto,hit,pa-lu-mais-to,pa-lu-mais-to,pa-lu-ma-is-to, ,-0.360185208,-0.11018514,1,0,0,3.1718,text_option_1,,0,40,40,198,1
5f1ff0f7027b2823badd501b,63f3cfca20052e4ae7554ebf,6453c8cb7516ae8532f95087,2023-05-04_17h07.17.939,ga_syllabified_check,2022.2.5,Win32,60.23370678,,,,,,,,,,,,,,./stim/p06_syllable_1_flauro_hit.wav,p06,flauro,hit,fla-u-ro,flau-ro,fla-u-ro, ,0.412036947,-0.101851807,1,0,0,3.5817,text_option_2,,0,41,41,107,1
5f1ff0f7027b2823badd501b,63f3cfca20052e4ae7554ebf,6453c8cb7516ae8532f95087,2023-05-04_17h07.17.939,ga_syllabified_check,2022.2.5,Win32,60.23370678,,,,,,,,,,,,,,./stim/p04_syllable_1_lakapuaisto_hit.wav,p04,lakapuaisto,hit,la-ka-puais-to,la-ka-puais-to,la-ka-pu-ais-to,la-ka-pua-is-to,-0.377777778,-0.109259237,1,0,0,5.8317,text_option_1,,0,42,42,51,1
5f1ff0f7027b2823badd501b,63f3cfca20052e4ae7554ebf,6453c8cb7516ae8532f95087,2023-05-04_17h07.17.939,ga_syllabified_check,2022.2.5,Win32,60.23370678,,,,,,,,,,,,,,./stim/p08_syllable_1_nhiape_hit.wav,p08,ñiape,hit,ni-a-pe,ñia-pe,ñi-a-pe, ,0.387962918,-0.103703681,1,0,0,5.548,text_option_2,,0,43,43,193,1
5f1ff0f7027b2823badd501b,63f3cfca20052e4ae7554ebf,6453c8cb7516ae8532f95087,2023-05-04_17h07.17.939,ga_syllabified_check,2022.2.5,Win32,60.23370678,,,,,,,,,,,,,,./stim/p08_syllable_1_paluguato_hit.wav,p08,paluguato,hit,pa-lu-gua-to,pa-lu-gua-to,pa-lu-gu-a-to, ,-0.390740763,-0.104629584,1,0,0,4.9814,text_option_1,,0,44,44,197,1
5f1ff0f7027b2823badd501b,63f3cfca20052e4ae7554ebf,6453c8cb7516ae8532f95087,2023-05-04_17h07.17.939,ga_syllabified_check,2022.2.5,Win32,60.23370678,,,,,,,,,,,,,,./stim/p08_syllable_1_lakafuaisto_hit.wav,p08,lakafuaisto,hit,la-ka-fju-ais-to,la-ka-fuais-to,la-ka-fu-ais-to,la-ka-fua-is-to,0.043518541,-0.300925903,1,0,0,31.1392,text_option_other,la-ka-fiuais-to,0,45,45,181,1
5f1ff0f7027b2823badd501b,63f3cfca20052e4ae7554ebf,6453c8cb7516ae8532f95087,2023-05-04_17h07.17.939,ga_syllabified_check,2022.2.5,Win32,60.23370678,,,,,,,,,,,,,,./stim/p03_syllable_1_lakadiaisto_hit.wav,p03,lakadiaisto,hit,la-ka-diais-to,la-ka-diais-to,la-ka-di-ais-to,la-ka-dia-is-to,0.00740743,-0.313888957,1,0,0,6.5476,text_option_other,la-ka-diai,0,46,46,8,1
5f1ff0f7027b2823badd501b,63f3cfca20052e4ae7554ebf,6453c8cb7516ae8532f95087,2023-05-04_17h07.17.939,ga_syllabified_check,2022.2.5,Win32,60.23370678,,,,,,,,,,,,,,./stim/p08_syllable_1_costonhialo_hit.wav,p08,costoñialo,hit,cos-to-nhia-lo,cos-to-ñia-lo,cos-to-ñi-a-lo, ,-0.00740743,-0.290740763,1,0,0,5.6485,text_option_other,cos-to-ña-lo,0,47,47,171,1
5f1ff0f7027b2823badd501b,63f3cfca20052e4ae7554ebf,6453c8cb7516ae8532f95087,2023-05-04_17h07.17.939,ga_syllabified_check,2022.2.5,Win32,60.23370678,,,,,,,,,,,,,,./stim/p07_syllable_1_flauro_hit.wav,p07,flauro,hit,flau-ro,flau-ro,fla-u-ro, ,-0.418518507,-0.102777778,1,0,0,3.5991,text_option_1,,0,48,48,141,1
5f1ff0f7027b2823badd501b,63f3cfca20052e4ae7554ebf,6453c8cb7516ae8532f95087,2023-05-04_17h07.17.939,ga_syllabified_check,2022.2.5,Win32,60.23370678,,,,,,,,,,,,,,./stim/p06_syllable_1_palutrauco_hit.wav,p06,palutrauco,hit,pa-lu-tra-u-co,pa-lu-trau-co,pa-lu-tra-u-co, ,0.439814724,-0.103703681,1,0,0,6.9149,text_option_2,,0,49,49,131,1
5f1ff0f7027b2823badd501b,63f3cfca20052e4ae7554ebf,6453c8cb7516ae8532f95087,2023-05-04_17h07.17.939,ga_syllabified_check,2022.2.5,Win32,60.23370678,,,,,,,,,,,,,,./stim/p05_syllable_1_lakabiaisto_hit.wav,p05,lakabiaisto,hit,la-ka-bi-ais-to,la-ka-biais-to,la-ka-bi-ais-to,la-ka-bia-is-to,-0.389814826,-0.103703681,1,0,0,9.8634,text_option_1,,0,50,50,74,1
5f1ff0f7027b2823badd501b,63f3cfca20052e4ae7554ebf,6453c8cb7516ae8532f95087,2023-05-04_17h07.17.939,ga_syllabified_check,2022.2.5,Win32,60.23370678,,,,,,,,,,,,,,./stim/p07_syllable_1_lakadiaisto_hit.wav,p07,lakadiaisto,hit,la-ka-dia-is-to,la-ka-diais-to,la-ka-di-ais-to,la-ka-dia-is-to,0.012037014,-0.107407362,1,0,0,10.5631,text_option_3,,0,51,51,144,1
5f1ff0f7027b2823badd501b,63f3cfca20052e4ae7554ebf,6453c8cb7516ae8532f95087,2023-05-04_17h07.17.939,ga_syllabified_check,2022.2.5,Win32,60.23370678,,,,,,,,,,,,,,./stim/p03_syllable_1_lakabuaisto_hit.wav,p03,lakabuaisto,hit,la-ka-buais-to,la-ka-buais-to,la-ka-bu-ais-to,la-ka-bua-is-to,-0.368518541,-0.102777778,1,0,0,3.6665,text_option_1,,0,52,52,7,1
5f1ff0f7027b2823badd501b,63f3cfca20052e4ae7554ebf,6453c8cb7516ae8532f95087,2023-05-04_17h07.17.939,ga_syllabified_check,2022.2.5,Win32,60.23370678,,,,,,,,,,,,,,./stim/p08_syllable_1_manhiala_hit.wav,p08,mañiala,hit,ma-nhia-la,ma-ñia-la,ma-ñi-a-la, ,0.045370348,-0.303703681,1,0,0,4.1921,text_option_other,ma-ña-la,0,53,53,191,1
5f1ff0f7027b2823badd501b,63f3cfca20052e4ae7554ebf,6453c8cb7516ae8532f95087,2023-05-04_17h07.17.939,ga_syllabified_check,2022.2.5,Win32,60.23370678,,,,,,,,,,,,,,./stim/p03_syllable_1_tuliafo_hit.wav,p03,tuliafo,hit,tu-lia-fo,tu-lia-fo,tu-li-a-fo, ,-0.386111111,-0.103703681,1,0,0,2.4991,text_option_1,,0,54,54,33,1
5f1ff0f7027b2823badd501b,63f3cfca20052e4ae7554ebf,6453c8cb7516ae8532f95087,2023-05-04_17h07.17.939,ga_syllabified_check,2022.2.5,Win32,60.23370678,,,,,,,,,,,,,,./stim/p06_syllable_1_palufauro_hit.wav,p06,palufauro,hit,pa-lu-fau-ro,pa-lu-fau-ro,pa-lu-fa-u-ro, ,-0.04259257,-0.300925903,1,0,0,16.5448,text_option_other,pa-lu-fao-u-ro,0,55,55,127,1
5f1ff0f7027b2823badd501b,63f3cfca20052e4ae7554ebf,6453c8cb7516ae8532f95087,2023-05-04_17h07.17.939,ga_syllabified_check,2022.2.5,Win32,60.23370678,,,,,,,,,,,,,,./stim/p05_syllable_1_palufauro_hit.wav,p05,palufauro,hit,pa-lu-fau-ro,pa-lu-fau-ro,pa-lu-fa-u-ro, ,-0.391666667,-0.102777778,1,0,0,5.2483,text_option_1,,0,56,56,93,1
5f1ff0f7027b2823badd501b,63f3cfca20052e4ae7554ebf,6453c8cb7516ae8532f95087,2023-05-04_17h07.17.939,ga_syllabified_check,2022.2.5,Win32,60.23370678,,,,,,,,,,,,,,./stim/p07_syllable_1_lakabuaisto_hit.wav,p07,lakabuaisto,hit,la-ka-buais-to,la-ka-buais-to,la-ka-bu-ais-to,la-ka-bua-is-to,-0.376851874,-0.1,1,0,0,5.2881,text_option_1,,0,57,57,143,1
5f1ff0f7027b2823badd501b,63f3cfca20052e4ae7554ebf,6453c8cb7516ae8532f95087,2023-05-04_17h07.17.939,ga_syllabified_check,2022.2.5,Win32,60.23370678,,,,,,,,,,,,,,./stim/p06_syllable_1_lakafuaisto_hit.wav,p06,lakafuaisto,hit,la-ka-fu-a-is,la-ka-fuais-to,la-ka-fu-ais-to,la-ka-fua-is-to,0.083333333,-0.296296319,1,0,0,7.9143,text_option_other,la-ka-fu-a-is-to,0,58,58,113,1
5f1ff0f7027b2823badd501b,63f3cfca20052e4ae7554ebf,6453c8cb7516ae8532f95087,2023-05-04_17h07.17.939,ga_syllabified_check,2022.2.5,Win32,60.23370678,,,,,,,,,,,,,,./stim/p07_syllable_1_palutrauco_hit.wav,p07,palutrauco,hit,pa-lu-trau-co,pa-lu-trau-co,pa-lu-tra-u-co, ,-0.361111111,-0.108333333,1,0,0,3.009,text_option_1,,0,59,59,165,1
5f1ff0f7027b2823badd501b,63f3cfca20052e4ae7554ebf,6453c8cb7516ae8532f95087,2023-05-04_17h07.17.939,ga_syllabified_check,2022.2.5,Win32,60.23370678,,,,,,,,,,,,,,./stim/p03_syllable_1_palumaisto_hit.wav,p03,palumaisto,hit,pa-lu-mais-to,pa-lu-mais-to,pa-lu-ma-is-to, ,-0.369444444,-0.109259237,1,0,0,2.8158,text_option_1,,0,60,60,28,1
5f1ff0f7027b2823badd501b,63f3cfca20052e4ae7554ebf,6453c8cb7516ae8532f95087,2023-05-04_17h07.17.939,ga_syllabified_check,2022.2.5,Win32,60.23370678,,,,,,,,,,,,,,./stim/p05_syllable_1_lakaguaisto_hit.wav,p05,lakaguaisto,hit,la-ka-gais,la-ka-guais-to,la-ka-gu-ais-to,la-ka-gua-is-to,0.035185208,-0.295370348,1,0,0,4.1487,text_option_other,la-ka-kais-to,0,61,61,81,1
5f1ff0f7027b2823badd501b,63f3cfca20052e4ae7554ebf,6453c8cb7516ae8532f95087,2023-05-04_17h07.17.939,ga_syllabified_check,2022.2.5,Win32,60.23370678,,,,,,,,,,,,,,./stim/p06_syllable_1_lakagiaisto_hit.wav,p06,lakagiaisto,hit,la-ka-gia-is-to,la-ka-giais-to,la-ka-gi-ais-to,la-ka-gia-is-to,0.011111179,-0.102777778,1,0,0,9.7406,text_option_3,,0,62,62,114,1
5f1ff0f7027b2823badd501b,63f3cfca20052e4ae7554ebf,6453c8cb7516ae8532f95087,2023-05-04_17h07.17.939,ga_syllabified_check,2022.2.5,Win32,60.23370678,,,,,,,,,,,,,,./stim/p08_syllable_1_faluduako_hit.wav,p08,faluduako,hit,fa-lu-duai-ko,fa-lu-dua-ko,fa-lu-du-a-ko, ,0.033333401,-0.309259237,1,0,0,8.0305,text_option_other,fa-lu-duai-ko,0,63,63,172,1
5f1ff0f7027b2823badd501b,63f3cfca20052e4ae7554ebf,6453c8cb7516ae8532f95087,2023-05-04_17h07.17.939,ga_syllabified_check,2022.2.5,Win32,60.23370678,,,,,,,,,,,,,,./stim/p07_syllable_1_lakafuaisto_hit.wav,p07,lakafuaisto,hit,la-ka-fuais-to,la-ka-fuais-to,la-ka-fu-ais-to,la-ka-fua-is-to,-0.366666667,-0.098148126,1,0,0,4.3819,text_option_1,,0,64,64,147,1
5f1ff0f7027b2823badd501b,63f3cfca20052e4ae7554ebf,6453c8cb7516ae8532f95087,2023-05-04_17h07.17.939,ga_syllabified_check,2022.2.5,Win32,60.23370678,,,,,,,,,,,,,,./stim/p03_syllable_1_lliape_hit.wav,p03,lliape,hit,llia,llia-pe,lli-a-pe, ,-0.381481493,-0.100925903,1,0,0,4.6654,text_option_1,,0,65,65,20,1
5f1ff0f7027b2823badd501b,63f3cfca20052e4ae7554ebf,6453c8cb7516ae8532f95087,2023-05-04_17h07.17.939,ga_syllabified_check,2022.2.5,Win32,60.23370678,,,,,,,,,,,,,,./stim/p03_syllable_1_lakaguaisto_hit.wav,p03,lakaguaisto,hit,la-ka-guais-to,la-ka-guais-to,la-ka-gu-ais-to,la-ka-gua-is-to,-0.371296319,-0.100925903,1,0,0,3.7987,text_option_1,,0,66,66,13,1
5f1ff0f7027b2823badd501b,63f3cfca20052e4ae7554ebf,6453c8cb7516ae8532f95087,2023-05-04_17h07.17.939,ga_syllabified_check,2022.2.5,Win32,60.23370678,,,,,,,,,,,,,,./stim/p05_syllable_1_lakafiaisto_hit.wav,p05,lakafiaisto,hit,la-ka-fi-ais-to,la-ka-fiais-to,la-ka-fi-ais-to,la-ka-fia-is-to,0.438888889,-0.101851807,1,0,0,6.525,text_option_2,,0,67,67,78,1
5f1ff0f7027b2823badd501b,63f3cfca20052e4ae7554ebf,6453c8cb7516ae8532f95087,2023-05-04_17h07.17.939,ga_syllabified_check,2022.2.5,Win32,60.23370678,,,,,,,,,,,,,,./stim/p05_syllable_1_mebochiana_hit.wav,p05,mebochiana,hit,me-cho-chai-na,me-bo-chia-na,me-bo-chi-a-na, ,0.061111111,-0.301851874,1,0,0,5.2482,text_option_other,me-cho-chai-na,0,68,68,90,1
5f1ff0f7027b2823badd501b,63f3cfca20052e4ae7554ebf,6453c8cb7516ae8532f95087,2023-05-04_17h07.17.939,ga_syllabified_check,2022.2.5,Win32,60.23370678,,,,,,,,,,,,,,./stim/p08_syllable_1_palufauro_hit.wav,p08,palufauro,hit,pa-lu-fau-ro,pa-lu-fau-ro,pa-lu-fa-u-ro, ,-0.344444444,-0.109259237,1,0,0,4.7483,text_option_1,,0,69,69,195,1
5f1ff0f7027b2823badd501b,63f3cfca20052e4ae7554ebf,6453c8cb7516ae8532f95087,2023-05-04_17h07.17.939,ga_syllabified_check,2022.2.5,Win32,60.23370678,,,,,,,,,,,,,,./stim/p03_syllable_1_lakapiaisto_hit.wav,p03,lakapiaisto,hit,la-ka-piais-to,la-ka-piais-to,la-ka-pi-ais-to,la-ka-pia-is-to,-0.354629652,-0.100925903,1,0,0,5.6318,text_option_1,,0,70,70,16,1
5f1ff0f7027b2823badd501b,63f3cfca20052e4ae7554ebf,6453c8cb7516ae8532f95087,2023-05-04_17h07.17.939,ga_syllabified_check,2022.2.5,Win32,60.23370678,,,,,,,,,,,,,,./stim/p04_syllable_1_lakadiaisto_hit.wav,p04,lakadiaisto,hit,la-ka-dias-to,la-ka-diais-to,la-ka-di-ais-to,la-ka-dia-is-to,-0.352777778,-0.102777778,1,0,0,3.4324,text_option_1,,0,71,71,42,1
5f1ff0f7027b2823badd501b,63f3cfca20052e4ae7554ebf,6453c8cb7516ae8532f95087,2023-05-04_17h07.17.939,ga_syllabified_check,2022.2.5,Win32,60.23370678,,,,,,,,,,,,,,./stim/p08_syllable_1_lakatuaisto_hit.wav,p08,lakatuaisto,hit,la-ka-tu-i-jis,la-ka-tuais-to,la-ka-tu-ais-to,la-ka-tua-is-to,0.03240743,-0.294444512,1,0,0,8.3305,text_option_other,la-ka-tu-i-is-to,0,72,72,189,1
5f1ff0f7027b2823badd501b,63f3cfca20052e4ae7554ebf,6453c8cb7516ae8532f95087,2023-05-04_17h07.17.939,ga_syllabified_check,2022.2.5,Win32,60.23370678,,,,,,,,,,,,,,./stim/p03_syllable_1_costonhialo_hit.wav,p03,costoñialo,hit,cos-to-nhia-lo,cos-to-ñia-lo,cos-to-ñi-a-lo, ,0.004629652,-0.302777846,1,0,0,6.0308,text_option_other,cos-to-ña-lo,0,73,73,1,1
5f1ff0f7027b2823badd501b,63f3cfca20052e4ae7554ebf,6453c8cb7516ae8532f95087,2023-05-04_17h07.17.939,ga_syllabified_check,2022.2.5,Win32,60.23370678,,,,,,,,,,,,,,./stim/p04_syllable_1_pachialo_hit.wav,p04,pachialo,hit,pa-chia-lo,pa-chia-lo,pa-chi-a-lo, ,-0.396296319,-0.111111111,1,0,0,3.5321,text_option_1,,0,74,74,58,1
5f1ff0f7027b2823badd501b,63f3cfca20052e4ae7554ebf,6453c8cb7516ae8532f95087,2023-05-04_17h07.17.939,ga_syllabified_check,2022.2.5,Win32,60.23370678,,,,,,,,,,,,,,./stim/p07_syllable_1_rausto_hit.wav,p07,rausto,hit,raus-to,raus-to,ra-us-to, ,-0.362037048,-0.096296251,1,0,0,2.1333,text_option_1,,0,75,75,167,1
5f1ff0f7027b2823badd501b,63f3cfca20052e4ae7554ebf,6453c8cb7516ae8532f95087,2023-05-04_17h07.17.939,ga_syllabified_check,2022.2.5,Win32,60.23370678,,,,,,,,,,,,,,./stim/p05_syllable_1_costonhialo_hit.wav,p05,costoñialo,hit,cos-to-nhia-lo,cos-to-ñia-lo,cos-to-ñi-a-lo, ,-0.353703715,-0.11018514,1,0,0,4.8046,text_option_1,,0,76,76,69,1
5f1ff0f7027b2823badd501b,63f3cfca20052e4ae7554ebf,6453c8cb7516ae8532f95087,2023-05-04_17h07.17.939,ga_syllabified_check,2022.2.5,Win32,60.23370678,,,,,,,,,,,,,,./stim/p07_syllable_1_lakapuaisto_hit.wav,p07,lakapuaisto,hit,la-ka-puais-to,la-ka-puais-to,la-ka-pu-ais-to,la-ka-pua-is-to,-0.372222222,-0.106481459,1,0,0,5.6979,text_option_1,,0,77,77,153,1
5f1ff0f7027b2823badd501b,63f3cfca20052e4ae7554ebf,6453c8cb7516ae8532f95087,2023-05-04_17h07.17.939,ga_syllabified_check,2022.2.5,Win32,60.23370678,,,,,,,,,,,,,,./stim/p08_syllable_1_chiaba_hit.wav,p08,chiaba,hit,chi-a-ba,chia-ba,chi-a-ba, ,0.396296251,-0.105555556,1,0,0,3.1823,text_option_2,,0,78,78,170,1
5f1ff0f7027b2823badd501b,63f3cfca20052e4ae7554ebf,6453c8cb7516ae8532f95087,2023-05-04_17h07.17.939,ga_syllabified_check,2022.2.5,Win32,60.23370678,,,,,,,,,,,,,,./stim/p04_syllable_1_palutrauco_hit.wav,p04,palutrauco,hit,pa-lu-trau-co,pa-lu-trau-co,pa-lu-tra-u-co, ,-0.374074097,-0.106481459,1,0,0,2.5654,text_option_1,,0,79,79,63,1
5f1ff0f7027b2823badd501b,63f3cfca20052e4ae7554ebf,6453c8cb7516ae8532f95087,2023-05-04_17h07.17.939,ga_syllabified_check,2022.2.5,Win32,60.23370678,,,,,,,,,,,,,,./stim/p06_syllable_1_tuliafo_hit.wav,p06,tuliafo,hit,tu-li-a-fo,tu-lia-fo,tu-li-a-fo, ,0.414814724,-0.100925903,1,0,0,3.8923,text_option_2,,0,80,80,135,1
5f1ff0f7027b2823badd501b,63f3cfca20052e4ae7554ebf,6453c8cb7516ae8532f95087,2023-05-04_17h07.17.939,ga_syllabified_check,2022.2.5,Win32,60.23370678,,,,,,,,,,,,,,./stim/p04_syllable_1_rausto_hit.wav,p04,rausto,hit,raus-to,raus-to,ra-us-to, ,-0.358333333,-0.093518473,1,0,0,1.0496,text_option_1,,0,81,81,65,1
5f1ff0f7027b2823badd501b,63f3cfca20052e4ae7554ebf,6453c8cb7516ae8532f95087,2023-05-04_17h07.17.939,ga_syllabified_check,2022.2.5,Win32,60.23370678,,,,,,,,,,,,,,./stim/p04_syllable_1_lakatiaisto_hit.wav,p04,lakatiaisto,hit,la-ka-kiais-to,la-ka-tiais-to,la-ka-ti-ais-to,la-ka-tia-is-to,-0.375,-0.099074029,1,0,0,3.6591,text_option_1,,0,82,82,52,1
5f1ff0f7027b2823badd501b,63f3cfca20052e4ae7554ebf,6453c8cb7516ae8532f95087,2023-05-04_17h07.17.939,ga_syllabified_check,2022.2.5,Win32,60.23370678,,,,,,,,,,,,,,./stim/p08_syllable_1_lakaduaisto_hit.wav,p08,lakaduaisto,hit,la-ka-du-ais-to,la-ka-duais-to,la-ka-du-ais-to,la-ka-dua-is-to,0.425,-0.112962918,1,0,0,5.0653,text_option_2,,0,83,83,179,1
5f1ff0f7027b2823badd501b,63f3cfca20052e4ae7554ebf,6453c8cb7516ae8532f95087,2023-05-04_17h07.17.939,ga_syllabified_check,2022.2.5,Win32,60.23370678,,,,,,,,,,,,,,./stim/p04_syllable_1_lakatuaisto_hit.wav,p04,lakatuaisto,hit,la-ka-kuais-to,la-ka-tuais-to,la-ka-tu-ais-to,la-ka-tua-is-to,-0.379629652,-0.102777778,1,0,0,3.8321,text_option_1,,0,84,84,53,1
5f1ff0f7027b2823badd501b,63f3cfca20052e4ae7554ebf,6453c8cb7516ae8532f95087,2023-05-04_17h07.17.939,ga_syllabified_check,2022.2.5,Win32,60.23370678,,,,,,,,,,,,,,./stim/p07_syllable_1_palufauro_hit.wav,p07,palufauro,hit,pa-lu-fau-ro,pa-lu-fau-ro,pa-lu-fa-u-ro, ,-0.376851874,-0.104629584,1,0,0,3.5485,text_option_1,,0,85,85,161,1
5f1ff0f7027b2823badd501b,63f3cfca20052e4ae7554ebf,6453c8cb7516ae8532f95087,2023-05-04_17h07.17.939,ga_syllabified_check,2022.2.5,Win32,60.23370678,,,,,,,,,,,,,,./stim/p07_syllable_1_lakatiaisto_hit.wav,p07,lakatiaisto,hit,la-ka-tiai-sto,la-ka-tiais-to,la-ka-ti-ais-to,la-ka-tia-is-to,0.026851874,-0.301851874,1,0,0,8.4636,text_option_other,la-ka-tians-to,0,86,86,154,1
5f1ff0f7027b2823badd501b,63f3cfca20052e4ae7554ebf,6453c8cb7516ae8532f95087,2023-05-04_17h07.17.939,ga_syllabified_check,2022.2.5,Win32,60.23370678,,,,,,,,,,,,,,./stim/p06_syllable_1_lakafiaisto_hit.wav,p06,lakafiaisto,hit,la-ka-fia-is-to,la-ka-fiais-to,la-ka-fi-ais-to,la-ka-fia-is-to,0.061111111,-0.302777846,1,0,0,8.214,text_option_other,la-ka-fia-is-to,0,87,87,112,1
5f1ff0f7027b2823badd501b,63f3cfca20052e4ae7554ebf,6453c8cb7516ae8532f95087,2023-05-04_17h07.17.939,ga_syllabified_check,2022.2.5,Win32,60.23370678,,,,,,,,,,,,,,./stim/p08_syllable_1_mebochiana_hit.wav,p08,mebochiana,hit,me-bo-chi-a-na,me-bo-chia-na,me-bo-chi-a-na, ,0.428703613,-0.105555556,1,0,0,6.5251,text_option_2,,0,88,88,192,1
5f1ff0f7027b2823badd501b,63f3cfca20052e4ae7554ebf,6453c8cb7516ae8532f95087,2023-05-04_17h07.17.939,ga_syllabified_check,2022.2.5,Win32,60.23370678,,,,,,,,,,,,,,./stim/p04_syllable_1_lakapiaisto_hit.wav,p04,lakapiaisto,hit,la-ka-piais-to,la-ka-piais-to,la-ka-pi-ais-to,la-ka-pia-is-to,-0.012037014,-0.308333401,1,0,0,7.081,text_option_other,la-kra-piais-to,0,89,89,50,1
5f1ff0f7027b2823badd501b,63f3cfca20052e4ae7554ebf,6453c8cb7516ae8532f95087,2023-05-04_17h07.17.939,ga_syllabified_check,2022.2.5,Win32,60.23370678,,,,,,,,,,,,,,./stim/p08_syllable_1_ruyiola_hit.wav,p08,ruyiola,hit,ru-yio-la,ru-yio-la,ru-yi-o-la, ,-0.385185208,-0.098148126,1,0,0,6.6809,text_option_1,,0,90,90,202,1
5f1ff0f7027b2823badd501b,63f3cfca20052e4ae7554ebf,6453c8cb7516ae8532f95087,2023-05-04_17h07.17.939,ga_syllabified_check,2022.2.5,Win32,60.23370678,,,,,,,,,,,,,,./stim/p04_syllable_1_paluguato_hit.wav,p04,paluguato,hit,pa-lu-gua,pa-lu-gua-to,pa-lu-gu-a-to, ,0.030555623,-0.302777846,1,0,0,3.0318,text_option_other,pa-lu-gua,0,91,91,61,1
5f1ff0f7027b2823badd501b,63f3cfca20052e4ae7554ebf,6453c8cb7516ae8532f95087,2023-05-04_17h07.17.939,ga_syllabified_check,2022.2.5,Win32,60.23370678,,,,,,,,,,,,,,./stim/p04_syllable_1_palumaisto_hit.wav,p04,palumaisto,hit,pa-lu-mais-to,pa-lu-mais-to,pa-lu-ma-is-to, ,-0.386111111,-0.102777778,1,0,0,3.0893,text_option_1,,0,92,92,62,1
5f1ff0f7027b2823badd501b,63f3cfca20052e4ae7554ebf,6453c8cb7516ae8532f95087,2023-05-04_17h07.17.939,ga_syllabified_check,2022.2.5,Win32,60.23370678,,,,,,,,,,,,,,./stim/p07_syllable_1_lliape_hit.wav,p07,lliape,hit,lliai-pe,llia-pe,lli-a-pe, ,0.013888957,-0.30740743,1,0,0,6.5145,text_option_other,lliai-pe,0,93,93,156,1
5f1ff0f7027b2823badd501b,63f3cfca20052e4ae7554ebf,6453c8cb7516ae8532f95087,2023-05-04_17h07.17.939,ga_syllabified_check,2022.2.5,Win32,60.23370678,,,,,,,,,,,,,,./stim/p04_syllable_1_lakakiaisto_hit.wav,p04,lakakiaisto,hit,la-ka-kiais-to,la-ka-kiais-to,la-ka-ki-ais-to,la-ka-kia-is-to,-0.372222222,-0.104629584,1,0,0,9.0972,text_option_1,,0,94,94,48,1
5f1ff0f7027b2823badd501b,63f3cfca20052e4ae7554ebf,6453c8cb7516ae8532f95087,2023-05-04_17h07.17.939,ga_syllabified_check,2022.2.5,Win32,60.23370678,,,,,,,,,,,,,,./stim/p05_syllable_1_lakapuaisto_hit.wav,p05,lakapuaisto,hit,la-ka-pais-to,la-ka-puais-to,la-ka-pu-ais-to,la-ka-pua-is-to,0.053703681,-0.309259237,1,0,0,5.8147,text_option_other,la-ka-pais-to,0,95,95,85,1
5f1ff0f7027b2823badd501b,63f3cfca20052e4ae7554ebf,6453c8cb7516ae8532f95087,2023-05-04_17h07.17.939,ga_syllabified_check,2022.2.5,Win32,60.23370678,,,,,,,,,,,,,,./stim/p06_syllable_1_lakaguaisto_hit.wav,p06,lakaguaisto,hit,la-ka-gu-a-is,la-ka-guais-to,la-ka-gu-ais-to,la-ka-gua-is-to,0.024074097,-0.295370348,1,0,0,8.3411,text_option_other,la-ka-gu-a-is-to,0,96,96,115,1
5f1ff0f7027b2823badd501b,63f3cfca20052e4ae7554ebf,6453c8cb7516ae8532f95087,2023-05-04_17h07.17.939,ga_syllabified_check,2022.2.5,Win32,60.23370678,,,,,,,,,,,,,,./stim/p06_syllable_1_palufauto_hit.wav,p06,palufauto,hit,pa-lu-fau-to,pa-lu-fau-to,pa-lu-fa-u-to, ,-0.364814826,-0.102777778,1,0,0,5.7079,text_option_1,,0,97,97,128,1
5f1ff0f7027b2823badd501b,63f3cfca20052e4ae7554ebf,6453c8cb7516ae8532f95087,2023-05-04_17h07.17.939,ga_syllabified_check,2022.2.5,Win32,60.23370678,,,,,,,,,,,,,,./stim/p03_syllable_1_palufauto_hit.wav,p03,palufauto,hit,pa-lu-fau,pa-lu-fau-to,pa-lu-fa-u-to, ,-0.379629652,-0.104629584,1,0,0,4.6384,text_option_1,,0,98,98,26,1
5f1ff0f7027b2823badd501b,63f3cfca20052e4ae7554ebf,6453c8cb7516ae8532f95087,2023-05-04_17h07.17.939,ga_syllabified_check,2022.2.5,Win32,60.23370678,,,,,,,,,,,,,,./stim/p06_syllable_1_lakabiaisto_hit.wav,p06,lakabiaisto,hit,la-ka-bia-is-to,la-ka-biais-to,la-ka-bi-ais-to,la-ka-bia-is-to,-0.000925903,-0.103703681,1,0,0,7.1309,text_option_3,,0,99,99,108,1
5f1ff0f7027b2823badd501b,63f3cfca20052e4ae7554ebf,6453c8cb7516ae8532f95087,2023-05-04_17h07.17.939,ga_syllabified_check,2022.2.5,Win32,60.23370678,,,,,,,,,,,,,,./stim/p05_syllable_1_lakaduaisto_hit.wav,p05,lakaduaisto,hit,la-ka-dais-to,la-ka-duais-to,la-ka-du-ais-to,la-ka-dua-is-to,0.008333401,-0.300000068,1,0,0,5.7481,text_option_other,la-ka-dais-to,0,100,100,77,1
5f1ff0f7027b2823badd501b,63f3cfca20052e4ae7554ebf,6453c8cb7516ae8532f95087,2023-05-04_17h07.17.939,ga_syllabified_check,2022.2.5,Win32,60.23370678,,,,,,,,,,,,,,./stim/p07_syllable_1_lakaguaisto_hit.wav,p07,lakaguaisto,hit,la-ka-guais-to,la-ka-guais-to,la-ka-gu-ais-to,la-ka-gua-is-to,-0.375,-0.1,1,0,0,4.282,text_option_1,,0,101,101,149,1
5f1ff0f7027b2823badd501b,63f3cfca20052e4ae7554ebf,6453c8cb7516ae8532f95087,2023-05-04_17h07.17.939,ga_syllabified_check,2022.2.5,Win32,60.23370678,,,,,,,,,,,,,,./stim/p06_syllable_1_manhiala_hit.wav,p06,mañiala,hit,ma-nhi-a-la,ma-ñia-la,ma-ñi-a-la, ,0.404629584,-0.107407362,1,0,0,5.148,text_option_2,,0,102,102,123,1
5f1ff0f7027b2823badd501b,63f3cfca20052e4ae7554ebf,6453c8cb7516ae8532f95087,2023-05-04_17h07.17.939,ga_syllabified_check,2022.2.5,Win32,60.23370678,,,,,,,,,,,,,,./stim/p04_syllable_1_lakagiaisto_hit.wav,p04,lakagiaisto,hit,la-ka-giais-to,la-ka-giais-to,la-ka-gi-ais-to,la-ka-gia-is-to,-0.362037048,-0.102777778,1,0,0,3.7996,text_option_1,,0,103,103,46,1
5f1ff0f7027b2823badd501b,63f3cfca20052e4ae7554ebf,6453c8cb7516ae8532f95087,2023-05-04_17h07.17.939,ga_syllabified_check,2022.2.5,Win32,60.23370678,,,,,,,,,,,,,,./stim/p05_syllable_1_lakabuaisto_hit.wav,p05,lakabuaisto,hit,la-ka-buais-to,la-ka-buais-to,la-ka-bu-ais-to,la-ka-bua-is-to,0.028703681,-0.302777846,1,0,0,5.0716,text_option_other,la-ka-bais-to,0,104,104,75,1
5f1ff0f7027b2823badd501b,63f3cfca20052e4ae7554ebf,6453c8cb7516ae8532f95087,2023-05-04_17h07.17.939,ga_syllabified_check,2022.2.5,Win32,60.23370678,,,,,,,,,,,,,,./stim/p06_syllable_1_mebochiana_hit.wav,p06,mebochiana,hit,me-bo-shi-a-na,me-bo-chia-na,me-bo-chi-a-na, ,0.423148058,-0.105555556,1,0,0,6.7581,text_option_2,,0,105,105,124,1
5f1ff0f7027b2823badd501b,63f3cfca20052e4ae7554ebf,6453c8cb7516ae8532f95087,2023-05-04_17h07.17.939,ga_syllabified_check,2022.2.5,Win32,60.23370678,,,,,,,,,,,,,,./stim/p05_syllable_1_faluduako_hit.wav,p05,faluduako,hit,fa-lu-ba-ko,fa-lu-dua-ko,fa-lu-du-a-ko, ,0.049074097,-0.303703681,1,0,0,6.948,text_option_other,fa-lu-ba-ko,0,106,106,70,1
5f1ff0f7027b2823badd501b,63f3cfca20052e4ae7554ebf,6453c8cb7516ae8532f95087,2023-05-04_17h07.17.939,ga_syllabified_check,2022.2.5,Win32,60.23370678,,,,,,,,,,,,,,./stim/p05_syllable_1_manhiala_hit.wav,p05,mañiala,hit,ma-nhia-la,ma-ñia-la,ma-ñi-a-la, ,-0.370370382,-0.107407362,1,0,0,6.0379,text_option_1,,0,107,107,89,1
5f1ff0f7027b2823badd501b,63f3cfca20052e4ae7554ebf,6453c8cb7516ae8532f95087,2023-05-04_17h07.17.939,ga_syllabified_check,2022.2.5,Win32,60.23370678,,,,,,,,,,,,,,./stim/p07_syllable_1_tuliafo_hit.wav,p07,tuliafo,hit,tu-lia-fo,tu-lia-fo,tu-li-a-fo, ,-0.390740763,-0.106481459,1,0,0,3.2225,text_option_1,,0,108,108,169,1
5f1ff0f7027b2823badd501b,63f3cfca20052e4ae7554ebf,6453c8cb7516ae8532f95087,2023-05-04_17h07.17.939,ga_syllabified_check,2022.2.5,Win32,60.23370678,,,,,,,,,,,,,,./stim/p03_syllable_1_lakakuaisto_hit.wav,p03,lakakuaisto,hit,la-ka-kuais-to,la-ka-kuais-to,la-ka-ku-ais-to,la-ka-kua-is-to,-0.358333333,-0.109259237,1,0,0,4.1317,text_option_1,,0,109,109,15,1
5f1ff0f7027b2823badd501b,63f3cfca20052e4ae7554ebf,6453c8cb7516ae8532f95087,2023-05-04_17h07.17.939,ga_syllabified_check,2022.2.5,Win32,60.23370678,,,,,,,,,,,,,,./stim/p06_syllable_1_lliape_hit.wav,p06,lliape,hit,lli-lla-pe,llia-pe,lli-a-pe, ,0.030555623,-0.305555623,1,0,0,8.2303,text_option_other,i-lia-pe,0,110,110,122,1
5f1ff0f7027b2823badd501b,63f3cfca20052e4ae7554ebf,6453c8cb7516ae8532f95087,2023-05-04_17h07.17.939,ga_syllabified_check,2022.2.5,Win32,60.23370678,,,,,,,,,,,,,,./stim/p08_syllable_1_falutraigo_hit.wav,p08,falutraigo,hit,fa-lu-trai-go,fa-lu-trai-go,fa-lu-tra-i-go, ,-0.378703715,-0.107407362,1,0,0,3.899,text_option_1,,0,111,111,174,1
5f1ff0f7027b2823badd501b,63f3cfca20052e4ae7554ebf,6453c8cb7516ae8532f95087,2023-05-04_17h07.17.939,ga_syllabified_check,2022.2.5,Win32,60.23370678,,,,,,,,,,,,,,./stim/p06_syllable_1_ruyiola_hit.wav,p06,ruyiola,hit,ru-yi-o-la,ru-yio-la,ru-yi-o-la, ,0.416666667,-0.1,1,0,0,3.4657,text_option_2,,0,112,112,134,1
5f1ff0f7027b2823badd501b,63f3cfca20052e4ae7554ebf,6453c8cb7516ae8532f95087,2023-05-04_17h07.17.939,ga_syllabified_check,2022.2.5,Win32,60.23370678,,,,,,,,,,,,,,./stim/p04_syllable_1_lakaduaisto_hit.wav,p04,lakaduaisto,hit,la-ka-duais-to,la-ka-duais-to,la-ka-du-ais-to,la-ka-dua-is-to,-0.351851874,-0.101851807,1,0,0,3.1669,text_option_1,,0,113,113,43,1
5f1ff0f7027b2823badd501b,63f3cfca20052e4ae7554ebf,6453c8cb7516ae8532f95087,2023-05-04_17h07.17.939,ga_syllabified_check,2022.2.5,Win32,60.23370678,,,,,,,,,,,,,,./stim/p05_syllable_1_lliape_hit.wav,p05,lliape,hit,liai-pe,llia-pe,lli-a-pe, ,0.030555623,-0.298148126,1,0,0,6.1647,text_option_other,lliai-pe,0,114,114,88,1
5f1ff0f7027b2823badd501b,63f3cfca20052e4ae7554ebf,6453c8cb7516ae8532f95087,2023-05-04_17h07.17.939,ga_syllabified_check,2022.2.5,Win32,60.23370678,,,,,,,,,,,,,,./stim/p03_syllable_1_lakabiaisto_hit.wav,p03,lakabiaisto,hit,la-ka-biais-to,la-ka-biais-to,la-ka-bi-ais-to,la-ka-bia-is-to,-0.350925937,-0.11018514,1,0,0,2.3161,text_option_1,,0,115,115,6,1
5f1ff0f7027b2823badd501b,63f3cfca20052e4ae7554ebf,6453c8cb7516ae8532f95087,2023-05-04_17h07.17.939,ga_syllabified_check,2022.2.5,Win32,60.23370678,,,,,,,,,,,,,,./stim/p05_syllable_1_payielo_hit.wav,p05,payielo,hit,pai-yu-we-lo,pa-yie-lo,pa-yi-e-lo, ,0.046296319,-0.304629652,1,0,0,16.1278,text_option_other,pa-yu-e-lo,0,116,116,98,1
5f1ff0f7027b2823badd501b,63f3cfca20052e4ae7554ebf,6453c8cb7516ae8532f95087,2023-05-04_17h07.17.939,ga_syllabified_check,2022.2.5,Win32,60.23370678,,,,,,,,,,,,,,./stim/p03_syllable_1_lakaduaisto_hit.wav,p03,lakaduaisto,hit,la-ka-duais-to,la-ka-duais-to,la-ka-du-ais-to,la-ka-dua-is-to,-0.365740763,-0.099074029,1,0,0,4.6984,text_option_1,,0,117,117,9,1
5f1ff0f7027b2823badd501b,63f3cfca20052e4ae7554ebf,6453c8cb7516ae8532f95087,2023-05-04_17h07.17.939,ga_syllabified_check,2022.2.5,Win32,60.23370678,,,,,,,,,,,,,,./stim/p06_syllable_1_falufaisto_hit.wav,p06,falufaisto,hit,fa-lu-fa-is-to,fa-lu-fais-to,fa-lu-fa-is-to, ,0.434259169,-0.1,1,0,0,4.4318,text_option_2,,0,118,118,105,1
5f1ff0f7027b2823badd501b,63f3cfca20052e4ae7554ebf,6453c8cb7516ae8532f95087,2023-05-04_17h07.17.939,ga_syllabified_check,2022.2.5,Win32,60.23370678,,,,,,,,,,,,,,./stim/p03_syllable_1_lakagiaisto_hit.wav,p03,lakagiaisto,hit,la-ka-giais-to,la-ka-giais-to,la-ka-gi-ais-to,la-ka-gia-is-to,-0.379629652,-0.103703681,1,0,0,4.6483,text_option_1,,0,119,119,12,1
5f1ff0f7027b2823badd501b,63f3cfca20052e4ae7554ebf,6453c8cb7516ae8532f95087,2023-05-04_17h07.17.939,ga_syllabified_check,2022.2.5,Win32,60.23370678,,,,,,,,,,,,,,./stim/p05_syllable_1_flauro_hit.wav,p05,flauro,hit,fa-lu-ro,flau-ro,fla-u-ro, ,0.030555623,-0.299074097,1,0,0,4.7318,text_option_other,fa-lu-ro,0,120,120,73,1
5f1ff0f7027b2823badd501b,63f3cfca20052e4ae7554ebf,6453c8cb7516ae8532f95087,2023-05-04_17h07.17.939,ga_syllabified_check,2022.2.5,Win32,60.23370678,,,,,,,,,,,,,,./stim/p04_syllable_1_falutraigo_hit.wav,p04,falutraigo,hit,fa-lu-trai-go,fa-lu-trai-go,fa-lu-tra-i-go, ,-0.387962986,-0.111111111,1,0,0,2.799,text_option_1,,0,121,121,38,1
5f1ff0f7027b2823badd501b,63f3cfca20052e4ae7554ebf,6453c8cb7516ae8532f95087,2023-05-04_17h07.17.939,ga_syllabified_check,2022.2.5,Win32,60.23370678,,,,,,,,,,,,,,./stim/p03_syllable_1_falutraigo_hit.wav,p03,falutraigo,hit,fa-lu-trai-go,fa-lu-trai-go,fa-lu-tra-i-go, ,-0.387962986,-0.111111111,1,0,0,8.8972,text_option_1,,0,122,122,4,1
5f1ff0f7027b2823badd501b,63f3cfca20052e4ae7554ebf,6453c8cb7516ae8532f95087,2023-05-04_17h07.17.939,ga_syllabified_check,2022.2.5,Win32,60.23370678,,,,,,,,,,,,,,./stim/p03_syllable_1_lakafiaisto_hit.wav,p03,lakafiaisto,hit,la-ka-fiais-to,la-ka-fiais-to,la-ka-fi-ais-to,la-ka-fia-is-to,-0.371296319,-0.106481459,1,0,0,4.0318,text_option_1,,0,123,123,10,1
5f1ff0f7027b2823badd501b,63f3cfca20052e4ae7554ebf,6453c8cb7516ae8532f95087,2023-05-04_17h07.17.939,ga_syllabified_check,2022.2.5,Win32,60.23370678,,,,,,,,,,,,,,./stim/p04_syllable_1_palufauto_hit.wav,p04,palufauto,hit,pa-lu-fau-to,pa-lu-fau-to,pa-lu-fa-u-to, ,0.036111179,-0.296296319,1,0,0,11.8469,text_option_other,fa-lu-fau-to,0,124,124,60,1
5f1ff0f7027b2823badd501b,63f3cfca20052e4ae7554ebf,6453c8cb7516ae8532f95087,2023-05-04_17h07.17.939,ga_syllabified_check,2022.2.5,Win32,60.23370678,,,,,,,,,,,,,,./stim/p05_syllable_1_falutraigo_hit.wav,p05,falutraigo,hit,fa-lu-trai-go,fa-lu-trai-go,fa-lu-tra-i-go, ,-0.376851874,-0.106481459,1,0,0,5.5651,text_option_1,,0,125,125,72,1
5f1ff0f7027b2823badd501b,63f3cfca20052e4ae7554ebf,6453c8cb7516ae8532f95087,2023-05-04_17h07.17.939,ga_syllabified_check,2022.2.5,Win32,60.23370678,,,,,,,,,,,,,,./stim/p07_syllable_1_mebochiana_hit.wav,p07,mebochiana,hit,me-bo-chia-na,me-bo-chia-na,me-bo-chi-a-na, ,-0.345370382,-0.106481459,1,0,0,3.2651,text_option_1,,0,126,126,158,1
5f1ff0f7027b2823badd501b,63f3cfca20052e4ae7554ebf,6453c8cb7516ae8532f95087,2023-05-04_17h07.17.939,ga_syllabified_check,2022.2.5,Win32,60.23370678,,,,,,,,,,,,,,./stim/p08_syllable_1_lakadiaisto_hit.wav,p08,lakadiaisto,hit,la-ka-di-jas-to,la-ka-diais-to,la-ka-di-ais-to,la-ka-dia-is-to,0.019444512,-0.308333401,1,0,0,11.4292,text_option_other,la-ka-di-as-to,0,127,127,178,1
5f1ff0f7027b2823badd501b,63f3cfca20052e4ae7554ebf,6453c8cb7516ae8532f95087,2023-05-04_17h07.17.939,ga_syllabified_check,2022.2.5,Win32,60.23370678,,,,,,,,,,,,,,./stim/p06_syllable_1_lakadiaisto_hit.wav,p06,lakadiaisto,hit,la-ka-dia-is-to,la-ka-diais-to,la-ka-di-ais-to,la-ka-dia-is-to,0.015740763,-0.098148126,1,0,0,9.7135,text_option_3,,0,128,128,110,1
5f1ff0f7027b2823badd501b,63f3cfca20052e4ae7554ebf,6453c8cb7516ae8532f95087,2023-05-04_17h07.17.939,ga_syllabified_check,2022.2.5,Win32,60.23370678,,,,,,,,,,,,,,./stim/p05_syllable_1_lakadiaisto_hit.wav,p05,lakadiaisto,hit,la-ka-di-ais-to,la-ka-diais-to,la-ka-di-ais-to,la-ka-dia-is-to,-0.365740763,-0.108333333,1,0,0,4.8484,text_option_1,,0,129,129,76,1
5f1ff0f7027b2823badd501b,63f3cfca20052e4ae7554ebf,6453c8cb7516ae8532f95087,2023-05-04_17h07.17.939,ga_syllabified_check,2022.2.5,Win32,60.23370678,,,,,,,,,,,,,,./stim/p03_syllable_1_faluduako_hit.wav,p03,faluduako,hit,fa-lu-dua-ko,fa-lu-dua-ko,fa-lu-du-a-ko, ,-0.375,-0.106481459,1,0,0,4.4336,text_option_1,,0,130,130,2,1
5f1ff0f7027b2823badd501b,63f3cfca20052e4ae7554ebf,6453c8cb7516ae8532f95087,2023-05-04_17h07.17.939,ga_syllabified_check,2022.2.5,Win32,60.23370678,,,,,,,,,,,,,,./stim/p06_syllable_1_lakakuaisto_hit.wav,p06,lakakuaisto,hit,la-ka-ku-a-is,la-ka-kuais-to,la-ka-ku-ais-to,la-ka-kua-is-to,0.073148126,-0.300000068,1,0,0,7.281,text_option_other,la-ka-ku-a-is-to,0,131,131,117,1
5f1ff0f7027b2823badd501b,63f3cfca20052e4ae7554ebf,6453c8cb7516ae8532f95087,2023-05-04_17h07.17.939,ga_syllabified_check,2022.2.5,Win32,60.23370678,,,,,,,,,,,,,,./stim/p06_syllable_1_chiaba_hit.wav,p06,chiaba,hit,chi-a-ba,chia-ba,chi-a-ba, ,-0.404629652,-0.102777778,1,0,0,2.8659,text_option_1,,0,132,132,102,1
5f1ff0f7027b2823badd501b,63f3cfca20052e4ae7554ebf,6453c8cb7516ae8532f95087,2023-05-04_17h07.17.939,ga_syllabified_check,2022.2.5,Win32,60.23370678,,,,,,,,,,,,,,./stim/p07_syllable_1_palumaisto_hit.wav,p07,palumaisto,hit,pa-lu-mais-to,pa-lu-mais-to,pa-lu-ma-is-to, ,-0.387962986,-0.103703681,1,0,0,3.1825,text_option_1,,0,133,133,164,1
5f1ff0f7027b2823badd501b,63f3cfca20052e4ae7554ebf,6453c8cb7516ae8532f95087,2023-05-04_17h07.17.939,ga_syllabified_check,2022.2.5,Win32,60.23370678,,,,,,,,,,,,,,./stim/p07_syllable_1_palufauto_hit.wav,p07,palufauto,hit,pa-lu-fau-to,pa-lu-fau-to,pa-lu-fa-u-to, ,-0.362037048,-0.106481459,1,0,0,3.7487,text_option_1,,0,134,134,162,1
5f1ff0f7027b2823badd501b,63f3cfca20052e4ae7554ebf,6453c8cb7516ae8532f95087,2023-05-04_17h07.17.939,ga_syllabified_check,2022.2.5,Win32,60.23370678,,,,,,,,,,,,,,./stim/p06_syllable_1_nhiape_hit.wav,p06,ñiape,hit,nhi-a-pe,ñia-pe,ñi-a-pe, ,0.39537028,-0.109259237,1,0,0,2.3328,text_option_2,,0,135,135,125,1
5f1ff0f7027b2823badd501b,63f3cfca20052e4ae7554ebf,6453c8cb7516ae8532f95087,2023-05-04_17h07.17.939,ga_syllabified_check,2022.2.5,Win32,60.23370678,,,,,,,,,,,,,,./stim/p06_syllable_1_lakatuaisto_hit.wav,p06,lakatuaisto,hit,la-ka-tu-a-is,la-ka-tuais-to,la-ka-tu-ais-to,la-ka-tua-is-to,0.37037028,-0.099074029,1,0,0,8.9972,text_option_2,,0,136,136,121,1
5f1ff0f7027b2823badd501b,63f3cfca20052e4ae7554ebf,6453c8cb7516ae8532f95087,2023-05-04_17h07.17.939,ga_syllabified_check,2022.2.5,Win32,60.23370678,,,,,,,,,,,,,,./stim/p05_syllable_1_nhiape_hit.wav,p05,ñiape,hit,nhia-pe,ñia-pe,ñi-a-pe, ,-0.385185208,-0.107407362,1,0,0,8.1977,text_option_1,,0,137,137,91,1
5f1ff0f7027b2823badd501b,63f3cfca20052e4ae7554ebf,6453c8cb7516ae8532f95087,2023-05-04_17h07.17.939,ga_syllabified_check,2022.2.5,Win32,60.23370678,,,,,,,,,,,,,,./stim/p04_syllable_1_faluduako_hit.wav,p04,faluduako,hit,fa-lu-dua-ko,fa-lu-dua-ko,fa-lu-du-a-ko, ,-0.370370382,-0.102777778,1,0,0,4.9324,text_option_1,,0,138,138,36,1
5f1ff0f7027b2823badd501b,63f3cfca20052e4ae7554ebf,6453c8cb7516ae8532f95087,2023-05-04_17h07.17.939,ga_syllabified_check,2022.2.5,Win32,60.23370678,,,,,,,,,,,,,,./stim/p08_syllable_1_lakapuaisto_hit.wav,p08,lakapuaisto,hit,la-ka-pu-as-to,la-ka-puais-to,la-ka-pu-ais-to,la-ka-pua-is-to,0.033333401,-0.302777846,1,0,0,8.1305,text_option_other,la-ka-pu-as-to,0,139,139,187,1
5f1ff0f7027b2823badd501b,63f3cfca20052e4ae7554ebf,6453c8cb7516ae8532f95087,2023-05-04_17h07.17.939,ga_syllabified_check,2022.2.5,Win32,60.23370678,,,,,,,,,,,,,,./stim/p08_syllable_1_lakagiaisto_hit.wav,p08,lakagiaisto,hit,la-ka-gi-jas-to,la-ka-giais-to,la-ka-gi-ais-to,la-ka-gia-is-to,0.015740763,-0.301851874,1,0,0,8.2807,text_option_other,la-ka-gi-as-to,0,140,140,182,1
5f1ff0f7027b2823badd501b,63f3cfca20052e4ae7554ebf,6453c8cb7516ae8532f95087,2023-05-04_17h07.17.939,ga_syllabified_check,2022.2.5,Win32,60.23370678,,,,,,,,,,,,,,./stim/p05_syllable_1_tuliafo_hit.wav,p05,tuliafo,hit,tu-lai-fo,tu-lia-fo,tu-li-a-fo, ,0.00740743,-0.300000068,1,0,0,4.5321,text_option_other,tu-lai-fo,0,141,141,101,1
5f1ff0f7027b2823badd501b,63f3cfca20052e4ae7554ebf,6453c8cb7516ae8532f95087,2023-05-04_17h07.17.939,ga_syllabified_check,2022.2.5,Win32,60.23370678,,,,,,,,,,,,,,./stim/p04_syllable_1_payielo_hit.wav,p04,payielo,hit,pa-yie-lo,pa-yie-lo,pa-yi-e-lo, ,-0.400925937,-0.106481459,1,0,0,1.4601,text_option_1,,0,142,142,64,1
5f1ff0f7027b2823badd501b,63f3cfca20052e4ae7554ebf,6453c8cb7516ae8532f95087,2023-05-04_17h07.17.939,ga_syllabified_check,2022.2.5,Win32,60.23370678,,,,,,,,,,,,,,./stim/p04_syllable_1_lakabuaisto_hit.wav,p04,lakabuaisto,hit,la-ka-buais-to,la-ka-buais-to,la-ka-bu-ais-to,la-ka-bua-is-to,-0.360185208,-0.105555556,1,0,0,7.4101,text_option_1,,0,143,143,41,1
5f1ff0f7027b2823badd501b,63f3cfca20052e4ae7554ebf,6453c8cb7516ae8532f95087,2023-05-04_17h07.17.939,ga_syllabified_check,2022.2.5,Win32,60.23370678,,,,,,,,,,,,,,./stim/p07_syllable_1_falutraigo_hit.wav,p07,falutraigo,hit,fa-lu-trai-go,fa-lu-trai-go,fa-lu-tra-i-go, ,-0.380555556,-0.101851807,1,0,0,3.5658,text_option_1,,0,144,144,140,1
5f1ff0f7027b2823badd501b,63f3cfca20052e4ae7554ebf,6453c8cb7516ae8532f95087,2023-05-04_17h07.17.939,ga_syllabified_check,2022.2.5,Win32,60.23370678,,,,,,,,,,,,,,./stim/p05_syllable_1_palutrauco_hit.wav,p05,palutrauco,hit,pa-lu-trai-co,pa-lu-trau-co,pa-lu-tra-u-co, ,0.061111111,-0.304629652,1,0,0,3.3822,text_option_other,pa-lu-trai-co,0,145,145,97,1
5f1ff0f7027b2823badd501b,63f3cfca20052e4ae7554ebf,6453c8cb7516ae8532f95087,2023-05-04_17h07.17.939,ga_syllabified_check,2022.2.5,Win32,60.23370678,,,,,,,,,,,,,,./stim/p04_syllable_1_palufauro_hit.wav,p04,palufauro,hit,pa-lu-fau-ro,pa-lu-fau-ro,pa-lu-fa-u-ro, ,-0.373148159,-0.104629584,1,0,0,5.2254,text_option_1,,0,146,146,59,1
5f1ff0f7027b2823badd501b,63f3cfca20052e4ae7554ebf,6453c8cb7516ae8532f95087,2023-05-04_17h07.17.939,ga_syllabified_check,2022.2.5,Win32,60.23370678,,,,,,,,,,,,,,./stim/p04_syllable_1_lliape_hit.wav,p04,lliape,hit,lia-pe,llia-pe,lli-a-pe, ,-0.371296319,-0.105555556,1,0,0,1.8659,text_option_1,,0,147,147,54,1
5f1ff0f7027b2823badd501b,63f3cfca20052e4ae7554ebf,6453c8cb7516ae8532f95087,2023-05-04_17h07.17.939,ga_syllabified_check,2022.2.5,Win32,60.23370678,,,,,,,,,,,,,,./stim/p06_syllable_1_costonhialo_hit.wav,p06,costoñialo,hit,cos-to-nhia-lo,cos-to-ñia-lo,cos-to-ñi-a-lo, ,-0.351851874,-0.103703681,1,0,0,5.6485,text_option_1,,0,148,148,103,1
5f1ff0f7027b2823badd501b,63f3cfca20052e4ae7554ebf,6453c8cb7516ae8532f95087,2023-05-04_17h07.17.939,ga_syllabified_check,2022.2.5,Win32,60.23370678,,,,,,,,,,,,,,./stim/p06_syllable_1_palumaisto_hit.wav,p06,palumaisto,hit,pa-lu-ma-is-to,pa-lu-mais-to,pa-lu-ma-is-to, ,0.425,-0.108333333,1,0,0,5.0819,text_option_2,,0,149,149,130,1
5f1ff0f7027b2823badd501b,63f3cfca20052e4ae7554ebf,6453c8cb7516ae8532f95087,2023-05-04_17h07.17.939,ga_syllabified_check,2022.2.5,Win32,60.23370678,,,,,,,,,,,,,,./stim/p06_syllable_1_paluguato_hit.wav,p06,paluguato,hit,pa-lu-gua-to,pa-lu-gua-to,pa-lu-gu-a-to, ,-0.375,-0.107407362,1,0,0,5.6317,text_option_1,,0,150,150,129,1
5f1ff0f7027b2823badd501b,63f3cfca20052e4ae7554ebf,6453c8cb7516ae8532f95087,2023-05-04_17h07.17.939,ga_syllabified_check,2022.2.5,Win32,60.23370678,,,,,,,,,,,,,,./stim/p04_syllable_1_flauro_hit.wav,p04,flauro,hit,flau-ro,flau-ro,fla-u-ro, ,-0.350925937,-0.105555556,1,0,0,1.1498,text_option_1,,0,151,151,39,1
5f1ff0f7027b2823badd501b,63f3cfca20052e4ae7554ebf,6453c8cb7516ae8532f95087,2023-05-04_17h07.17.939,ga_syllabified_check,2022.2.5,Win32,60.23370678,,,,,,,,,,,,,,./stim/p05_syllable_1_palumaisto_hit.wav,p05,palumaisto,hit,pa-lu-mais-to,pa-lu-mais-to,pa-lu-ma-is-to, ,-0.370370382,-0.108333333,1,0,0,3.299,text_option_1,,0,152,152,96,1
5f1ff0f7027b2823badd501b,63f3cfca20052e4ae7554ebf,6453c8cb7516ae8532f95087,2023-05-04_17h07.17.939,ga_syllabified_check,2022.2.5,Win32,60.23370678,,,,,,,,,,,,,,./stim/p07_syllable_1_payielo_hit.wav,p07,payielo,hit,pa-yie-lo,pa-yie-lo,pa-yi-e-lo, ,-0.386111111,-0.095370348,1,0,0,2.4159,text_option_1,,0,153,153,166,1
5f1ff0f7027b2823badd501b,63f3cfca20052e4ae7554ebf,6453c8cb7516ae8532f95087,2023-05-04_17h07.17.939,ga_syllabified_check,2022.2.5,Win32,60.23370678,,,,,,,,,,,,,,./stim/p04_syllable_1_falufaisto_hit.wav,p04,falufaisto,hit,fa-lu-fais-to,fa-lu-fais-to,fa-lu-fa-is-to, ,-0.373148159,-0.107407362,1,0,0,2.8829,text_option_1,,0,154,154,37,1
5f1ff0f7027b2823badd501b,63f3cfca20052e4ae7554ebf,6453c8cb7516ae8532f95087,2023-05-04_17h07.17.939,ga_syllabified_check,2022.2.5,Win32,60.23370678,,,,,,,,,,,,,,./stim/p07_syllable_1_lakakiaisto_hit.wav,p07,lakakiaisto,hit,la-ka-kais-to,la-ka-kiais-to,la-ka-ki-ais-to,la-ka-kia-is-to,0.044444512,-0.29722229,1,0,0,4.7323,text_option_other,la-ka-kais-to,0,155,155,150,1
5f1ff0f7027b2823badd501b,63f3cfca20052e4ae7554ebf,6453c8cb7516ae8532f95087,2023-05-04_17h07.17.939,ga_syllabified_check,2022.2.5,Win32,60.23370678,,,,,,,,,,,,,,./stim/p03_syllable_1_payielo_hit.wav,p03,payielo,hit,pa-yie-lo,pa-yie-lo,pa-yi-e-lo, ,-0.385185208,-0.106481459,1,0,0,2.7488,text_option_1,,0,156,156,30,1
5f1ff0f7027b2823badd501b,63f3cfca20052e4ae7554ebf,6453c8cb7516ae8532f95087,2023-05-04_17h07.17.939,ga_syllabified_check,2022.2.5,Win32,60.23370678,,,,,,,,,,,,,,./stim/p08_syllable_1_lakabiaisto_hit.wav,p08,lakabiaisto,hit,la-ka-bi-as-to,la-ka-biais-to,la-ka-bi-ais-to,la-ka-bia-is-to,0.044444512,-0.304629652,1,0,0,6.7144,text_option_other,la-ka-bi-as-to,0,157,157,176,1
5f1ff0f7027b2823badd501b,63f3cfca20052e4ae7554ebf,6453c8cb7516ae8532f95087,2023-05-04_17h07.17.939,ga_syllabified_check,2022.2.5,Win32,60.23370678,,,,,,,,,,,,,,./stim/p06_syllable_1_lakatiaisto_hit.wav,p06,lakatiaisto,hit,la-ka-pia-is-to,la-ka-tiais-to,la-ka-ti-ais-to,la-ka-tia-is-to,0.00740743,-0.099074029,1,0,0,11.0795,text_option_3,,0,158,158,120,1
5f1ff0f7027b2823badd501b,63f3cfca20052e4ae7554ebf,6453c8cb7516ae8532f95087,2023-05-04_17h07.17.939,ga_syllabified_check,2022.2.5,Win32,60.23370678,,,,,,,,,,,,,,./stim/p08_syllable_1_palufauto_hit.wav,p08,palufauto,hit,pa-lu-fau-to,pa-lu-fau-to,pa-lu-fa-u-to, ,-0.366666667,-0.103703681,1,0,0,6.0153,text_option_1,,0,159,159,196,1
5f1ff0f7027b2823badd501b,63f3cfca20052e4ae7554ebf,6453c8cb7516ae8532f95087,2023-05-04_17h07.17.939,ga_syllabified_check,2022.2.5,Win32,60.23370678,,,,,,,,,,,,,,./stim/p07_syllable_1_chiaba_hit.wav,p07,chiaba,hit,chia-ba,chia-ba,chi-a-ba, ,-0.373148159,-0.100925903,1,0,0,1.4329,text_option_1,,0,160,160,136,1
5f1ff0f7027b2823badd501b,63f3cfca20052e4ae7554ebf,6453c8cb7516ae8532f95087,2023-05-04_17h07.17.939,ga_syllabified_check,2022.2.5,Win32,60.23370678,,,,,,,,,,,,,,./stim/p07_syllable_1_lakagiaisto_hit.wav,p07,lakagiaisto,hit,la-ka-gais-to,la-ka-giais-to,la-ka-gi-ais-to,la-ka-gia-is-to,0.01759257,-0.29259257,1,0,0,5.0158,text_option_other,la-ka-gais-to,0,161,161,148,1
5f1ff0f7027b2823badd501b,63f3cfca20052e4ae7554ebf,6453c8cb7516ae8532f95087,2023-05-04_17h07.17.939,ga_syllabified_check,2022.2.5,Win32,60.23370678,,,,,,,,,,,,,,./stim/p07_syllable_1_lakabiaisto_hit.wav,p07,lakabiaisto,hit,la-ka-bais-to,la-ka-biais-to,la-ka-bi-ais-to,la-ka-bia-is-to,0.026851874,-0.294444512,1,0,0,3.5316,text_option_other,la-ka-bais-to,0,162,162,142,1
5f1ff0f7027b2823badd501b,63f3cfca20052e4ae7554ebf,6453c8cb7516ae8532f95087,2023-05-04_17h07.17.939,ga_syllabified_check,2022.2.5,Win32,60.23370678,,,,,,,,,,,,,,./stim/p04_syllable_1_costonhialo_hit.wav,p04,costoñialo,hit,cos-to-nhia-lo,cos-to-ñia-lo,cos-to-ñi-a-lo, ,-0.377777778,-0.097222222,1,0,0,2.3661,text_option_1,,0,163,163,35,1
5f1ff0f7027b2823badd501b,63f3cfca20052e4ae7554ebf,6453c8cb7516ae8532f95087,2023-05-04_17h07.17.939,ga_syllabified_check,2022.2.5,Win32,60.23370678,,,,,,,,,,,,,,./stim/p07_syllable_1_paluguato_hit.wav,p07,paluguato,hit,pa-lu-gua-to,pa-lu-gua-to,pa-lu-gu-a-to, ,-0.381481493,-0.104629584,1,0,0,2.6989,text_option_1,,0,164,164,163,1
5f1ff0f7027b2823badd501b,63f3cfca20052e4ae7554ebf,6453c8cb7516ae8532f95087,2023-05-04_17h07.17.939,ga_syllabified_check,2022.2.5,Win32,60.23370678,,,,,,,,,,,,,,./stim/p05_syllable_1_ruyiola_hit.wav,p05,ruyiola,hit,ru-yio-la,ru-yio-la,ru-yi-o-la, ,-0.377777778,-0.102777778,1,0,0,5.3647,text_option_1,,0,165,165,100,1
5f1ff0f7027b2823badd501b,63f3cfca20052e4ae7554ebf,6453c8cb7516ae8532f95087,2023-05-04_17h07.17.939,ga_syllabified_check,2022.2.5,Win32,60.23370678,,,,,,,,,,,,,,./stim/p04_syllable_1_lakabiaisto_hit.wav,p04,lakabiaisto,hit,la-ka-biais-to,la-ka-biais-to,la-ka-bi-ais-to,la-ka-bia-is-to,-0.35,-0.105555556,1,0,0,4.5382,text_option_1,,0,166,166,40,1
5f1ff0f7027b2823badd501b,63f3cfca20052e4ae7554ebf,6453c8cb7516ae8532f95087,2023-05-04_17h07.17.939,ga_syllabified_check,2022.2.5,Win32,60.23370678,,,,,,,,,,,,,,./stim/p03_syllable_1_lakatiaisto_hit.wav,p03,lakatiaisto,hit,la-ka-tiais-to,la-ka-tiais-to,la-ka-ti-ais-to,la-ka-tia-is-to,-0.368518541,-0.104629584,1,0,0,9.5798,text_option_1,,0,167,167,18,1
5f1ff0f7027b2823badd501b,63f3cfca20052e4ae7554ebf,6453c8cb7516ae8532f95087,2023-05-04_17h07.17.939,ga_syllabified_check,2022.2.5,Win32,60.23370678,,,,,,,,,,,,,,./stim/p08_syllable_1_lakabuaisto_hit.wav,p08,lakabuaisto,hit,la-ka-bu-ais-to,la-ka-buais-to,la-ka-bu-ais-to,la-ka-bua-is-to,0.412036947,-0.101851807,1,0,0,21.0591,text_option_2,,0,168,168,177,1
5f1ff0f7027b2823badd501b,63f3cfca20052e4ae7554ebf,6453c8cb7516ae8532f95087,2023-05-04_17h07.17.939,ga_syllabified_check,2022.2.5,Win32,60.23370678,,,,,,,,,,,,,,./stim/p07_syllable_1_nhiape_hit.wav,p07,ñiape,hit,nhia-pe,ñia-pe,ñi-a-pe, ,-0.378703715,-0.112962918,1,0,0,1.2002,text_option_1,,0,169,169,159,1
5f1ff0f7027b2823badd501b,63f3cfca20052e4ae7554ebf,6453c8cb7516ae8532f95087,2023-05-04_17h07.17.939,ga_syllabified_check,2022.2.5,Win32,60.23370678,,,,,,,,,,,,,,./stim/p07_syllable_1_ruyiola_hit.wav,p07,ruyiola,hit,ru-yio-la,ru-yio-la,ru-yi-o-la, ,-0.394444444,-0.108333333,1,0,0,2.4496,text_option_1,,0,170,170,168,1
5f1ff0f7027b2823badd501b,63f3cfca20052e4ae7554ebf,6453c8cb7516ae8532f95087,2023-05-04_17h07.17.939,ga_syllabified_check,2022.2.5,Win32,60.23370678,,,,,,,,,,,,,,./stim/p08_syllable_1_rausto_hit.wav,p08,rausto,hit,raus-to,raus-to,ra-us-to, ,-0.35740743,-0.108333333,1,0,0,3.0825,text_option_1,,0,171,171,201,1
5f1ff0f7027b2823badd501b,63f3cfca20052e4ae7554ebf,6453c8cb7516ae8532f95087,2023-05-04_17h07.17.939,ga_syllabified_check,2022.2.5,Win32,60.23370678,,,,,,,,,,,,,,./stim/p03_syllable_1_pachialo_hit.wav,p03,pachialo,hit,pa-chia-lo,pa-chia-lo,pa-chi-a-lo, ,-0.368518541,-0.09259257,1,0,0,2.2827,text_option_1,,0,172,172,24,1
5f1ff0f7027b2823badd501b,63f3cfca20052e4ae7554ebf,6453c8cb7516ae8532f95087,2023-05-04_17h07.17.939,ga_syllabified_check,2022.2.5,Win32,60.23370678,,,,,,,,,,,,,,./stim/p08_syllable_1_payielo_hit.wav,p08,payielo,hit,pa-yie-lo,pa-yie-lo,pa-yi-e-lo, ,-0.394444444,-0.107407362,1,0,0,1.9161,text_option_1,,0,173,173,200,1
5f1ff0f7027b2823badd501b,63f3cfca20052e4ae7554ebf,6453c8cb7516ae8532f95087,2023-05-04_17h07.17.939,ga_syllabified_check,2022.2.5,Win32,60.23370678,,,,,,,,,,,,,,./stim/p08_syllable_1_falufaisto_hit.wav,p08,falufaisto,hit,fa-lu-fais-to,fa-lu-fais-to,fa-lu-fa-is-to, ,-0.362037048,-0.108333333,1,0,0,5.6497,text_option_1,,0,174,174,173,1
5f1ff0f7027b2823badd501b,63f3cfca20052e4ae7554ebf,6453c8cb7516ae8532f95087,2023-05-04_17h07.17.939,ga_syllabified_check,2022.2.5,Win32,60.23370678,,,,,,,,,,,,,,./stim/p04_syllable_1_chiaba_hit.wav,p04,chiaba,hit,chia-ba,chia-ba,chi-a-ba, ,-0.372222222,-0.104629584,1,0,0,3.8487,text_option_1,,0,175,175,34,1
5f1ff0f7027b2823badd501b,63f3cfca20052e4ae7554ebf,6453c8cb7516ae8532f95087,2023-05-04_17h07.17.939,ga_syllabified_check,2022.2.5,Win32,60.23370678,,,,,,,,,,,,,,./stim/p03_syllable_1_ruyiola_hit.wav,p03,ruyiola,hit,ru-yio-la,ru-yio-la,ru-yi-o-la, ,-0.387962986,-0.098148126,1,0,0,2.71,text_option_1,,0,176,176,32,1
5f1ff0f7027b2823badd501b,63f3cfca20052e4ae7554ebf,6453c8cb7516ae8532f95087,2023-05-04_17h07.17.939,ga_syllabified_check,2022.2.5,Win32,60.23370678,,,,,,,,,,,,,,./stim/p05_syllable_1_falufaisto_hit.wav,p05,falufaisto,hit,fa-lu-fais-to,fa-lu-fais-to,fa-lu-fa-is-to, ,-0.362962986,-0.099074029,1,0,0,3.726,text_option_1,,0,177,177,71,1
5f1ff0f7027b2823badd501b,63f3cfca20052e4ae7554ebf,6453c8cb7516ae8532f95087,2023-05-04_17h07.17.939,ga_syllabified_check,2022.2.5,Win32,60.23370678,,,,,,,,,,,,,,./stim/p03_syllable_1_lakafuaisto_hit.wav,p03,lakafuaisto,hit,la-ka-fuais-to,la-ka-fuais-to,la-ka-fu-ais-to,la-ka-fua-is-to,-0.399074097,-0.101851807,1,0,0,3.623,text_option_1,,0,178,178,11,1
5f1ff0f7027b2823badd501b,63f3cfca20052e4ae7554ebf,6453c8cb7516ae8532f95087,2023-05-04_17h07.17.939,ga_syllabified_check,2022.2.5,Win32,60.23370678,,,,,,,,,,,,,,./stim/p03_syllable_1_lakatuaisto_hit.wav,p03,lakatuaisto,hit,la-ka-tuais-to,la-ka-tuais-to,la-ka-tu-ais-to,la-ka-tua-is-to,-0.360185208,-0.104629584,1,0,0,5.8317,text_option_1,,0,179,179,19,1
5f1ff0f7027b2823badd501b,63f3cfca20052e4ae7554ebf,6453c8cb7516ae8532f95087,2023-05-04_17h07.17.939,ga_syllabified_check,2022.2.5,Win32,60.23370678,,,,,,,,,,,,,,./stim/p05_syllable_1_lakatuaisto_hit.wav,p05,lakatuaisto,hit,la-ka-tais-to,la-ka-tuais-to,la-ka-tu-ais-to,la-ka-tua-is-to,0.021296319,-0.309259237,1,0,0,4.365,text_option_other,la-ka-tais-to,0,180,180,87,1
5f1ff0f7027b2823badd501b,63f3cfca20052e4ae7554ebf,6453c8cb7516ae8532f95087,2023-05-04_17h07.17.939,ga_syllabified_check,2022.2.5,Win32,60.23370678,,,,,,,,,,,,,,./stim/p04_syllable_1_lakaguaisto_hit.wav,p04,lakaguaisto,hit,la-ka-guais-to,la-ka-guais-to,la-ka-gu-ais-to,la-ka-gua-is-to,-0.376851874,-0.105555556,1,0,0,3.7321,text_option_1,,0,181,181,47,1
5f1ff0f7027b2823badd501b,63f3cfca20052e4ae7554ebf,6453c8cb7516ae8532f95087,2023-05-04_17h07.17.939,ga_syllabified_check,2022.2.5,Win32,60.23370678,,,,,,,,,,,,,,./stim/p08_syllable_1_flauro_hit.wav,p08,flauro,hit,flau-ro,flau-ro,fla-u-ro, ,-0.385185208,-0.106481459,1,0,0,10.597,text_option_1,,0,182,182,175,1
5f1ff0f7027b2823badd501b,63f3cfca20052e4ae7554ebf,6453c8cb7516ae8532f95087,2023-05-04_17h07.17.939,ga_syllabified_check,2022.2.5,Win32,60.23370678,,,,,,,,,,,,,,./stim/p05_syllable_1_chiaba_hit.wav,p05,chiaba,hit,chia-ba,chia-ba,chi-a-ba, ,0.034259237,-0.308333401,1,0,0,5.0818,text_option_other,chai-ba,0,183,183,68,1
5f1ff0f7027b2823badd501b,63f3cfca20052e4ae7554ebf,6453c8cb7516ae8532f95087,2023-05-04_17h07.17.939,ga_syllabified_check,2022.2.5,Win32,60.23370678,,,,,,,,,,,,,,./stim/p08_syllable_1_palutrauco_hit.wav,p08,palutrauco,hit,pa-lu-trau-ko,pa-lu-trau-co,pa-lu-tra-u-co, ,-0.373148159,-0.099074029,1,0,0,3.2826,text_option_1,,0,184,184,199,1
5f1ff0f7027b2823badd501b,63f3cfca20052e4ae7554ebf,6453c8cb7516ae8532f95087,2023-05-04_17h07.17.939,ga_syllabified_check,2022.2.5,Win32,60.23370678,,,,,,,,,,,,,,./stim/p06_syllable_1_payielo_hit.wav,p06,payielo,hit,pa-yi-e-lo,pa-yie-lo,pa-yi-e-lo, ,0.399074029,-0.098148126,1,0,0,3.1824,text_option_2,,0,185,185,132,1
5f1ff0f7027b2823badd501b,63f3cfca20052e4ae7554ebf,6453c8cb7516ae8532f95087,2023-05-04_17h07.17.939,ga_syllabified_check,2022.2.5,Win32,60.23370678,,,,,,,,,,,,,,./stim/p08_syllable_1_lakaguaisto_hit.wav,p08,lakaguaisto,hit,la-ka-gu-ais-to,la-ka-guais-to,la-ka-gu-ais-to,la-ka-gua-is-to,0.452777778,-0.103703681,1,0,0,8.6474,text_option_2,,0,186,186,183,1
5f1ff0f7027b2823badd501b,63f3cfca20052e4ae7554ebf,6453c8cb7516ae8532f95087,2023-05-04_17h07.17.939,ga_syllabified_check,2022.2.5,Win32,60.23370678,,,,,,,,,,,,,,./stim/p04_syllable_1_tuliafo_hit.wav,p04,tuliafo,hit,tu-lia-fo,tu-lia-fo,tu-li-a-fo, ,-0.402777778,-0.095370348,1,0,0,3.5083,text_option_1,,0,187,187,67,1
5f1ff0f7027b2823badd501b,63f3cfca20052e4ae7554ebf,6453c8cb7516ae8532f95087,2023-05-04_17h07.17.939,ga_syllabified_check,2022.2.5,Win32,60.23370678,,,,,,,,,,,,,,./stim/p03_syllable_1_palufauro_hit.wav,p03,palufauro,hit,pa-lu-fau-ro,pa-lu-fau-ro,pa-lu-fa-u-ro, ,-0.373148159,-0.1,1,0,0,5.5984,text_option_1,,0,188,188,25,1
5f1ff0f7027b2823badd501b,63f3cfca20052e4ae7554ebf,6453c8cb7516ae8532f95087,2023-05-04_17h07.17.939,ga_syllabified_check,2022.2.5,Win32,60.23370678,,,,,,,,,,,,,,./stim/p04_syllable_1_mebochiana_hit.wav,p04,mebochiana,hit,me-bo-chia-na,me-bo-chia-na,me-bo-chi-a-na, ,-0.379629652,-0.108333333,1,0,0,3.1323,text_option_1,,0,189,189,56,1
5f1ff0f7027b2823badd501b,63f3cfca20052e4ae7554ebf,6453c8cb7516ae8532f95087,2023-05-04_17h07.17.939,ga_syllabified_check,2022.2.5,Win32,60.23370678,,,,,,,,,,,,,,./stim/p06_syllable_1_lakakiaisto_hit.wav,p06,lakakiaisto,hit,la-ka-kia-is-to,la-ka-kiais-to,la-ka-ki-ais-to,la-ka-kia-is-to,0.012037014,-0.107407362,1,0,0,5.7482,text_option_3,,0,190,190,116,1
5f1ff0f7027b2823badd501b,63f3cfca20052e4ae7554ebf,6453c8cb7516ae8532f95087,2023-05-04_17h07.17.939,ga_syllabified_check,2022.2.5,Win32,60.23370678,,,,,,,,,,,,,,./stim/p08_syllable_1_lakatiaisto_hit.wav,p08,lakatiaisto,hit,la-ka-ti-as-to,la-ka-tiais-to,la-ka-ti-ais-to,la-ka-tia-is-to,0.02222229,-0.306481459,1,0,0,9.6304,text_option_other,la-ka-tias-to,0,191,191,188,1
5f1ff0f7027b2823badd501b,63f3cfca20052e4ae7554ebf,6453c8cb7516ae8532f95087,2023-05-04_17h07.17.939,ga_syllabified_check,2022.2.5,Win32,60.23370678,,,,,,,,,,,,,,./stim/p03_syllable_1_falufaisto_hit.wav,p03,falufaisto,hit,fa-lu-fais-to,fa-lu-fais-to,fa-lu-fa-is-to, ,-0.360185208,-0.105555556,1,0,0,4.8984,text_option_1,,0,192,192,3,1
5f1ff0f7027b2823badd501b,63f3cfca20052e4ae7554ebf,6453c8cb7516ae8532f95087,2023-05-04_17h07.17.939,ga_syllabified_check,2022.2.5,Win32,60.23370678,,,,,,,,,,,,,,./stim/p06_syllable_1_rausto_hit.wav,p06,rausto,hit,ra-us-to,raus-to,ra-us-to, ,0.406481391,-0.102777778,1,0,0,2.8827,text_option_2,,0,193,193,133,1
5f1ff0f7027b2823badd501b,63f3cfca20052e4ae7554ebf,6453c8cb7516ae8532f95087,2023-05-04_17h07.17.939,ga_syllabified_check,2022.2.5,Win32,60.23370678,,,,,,,,,,,,,,./stim/p08_syllable_1_lliape_hit.wav,p08,lliape,hit,li-a-pe,llia-pe,lli-a-pe, ,0.394444444,-0.106481459,1,0,0,7.5306,text_option_2,,0,194,194,190,1
5f1ff0f7027b2823badd501b,63f3cfca20052e4ae7554ebf,6453c8cb7516ae8532f95087,2023-05-04_17h07.17.939,ga_syllabified_check,2022.2.5,Win32,60.23370678,,,,,,,,,,,,,,./stim/p07_syllable_1_lakaduaisto_hit.wav,p07,lakaduaisto,hit,la-ka-duais-to,la-ka-duais-to,la-ka-du-ais-to,la-ka-dua-is-to,-0.361111111,-0.097222222,1,0,0,5.0319,text_option_1,,0,195,195,145,1
5f1ff0f7027b2823badd501b,63f3cfca20052e4ae7554ebf,6453c8cb7516ae8532f95087,2023-05-04_17h07.17.939,ga_syllabified_check,2022.2.5,Win32,60.23370678,,,,,,,,,,,,,,./stim/p04_syllable_1_lakakuaisto_hit.wav,p04,lakakuaisto,hit,la-ka-kuais-to,la-ka-kuais-to,la-ka-ku-ais-to,la-ka-kua-is-to,-0.348148159,-0.107407362,1,0,0,5.415,text_option_1,,0,196,196,49,1
5f1ff0f7027b2823badd501b,63f3cfca20052e4ae7554ebf,6453c8cb7516ae8532f95087,2023-05-04_17h07.17.939,ga_syllabified_check,2022.2.5,Win32,60.23370678,,,,,,,,,,,,,,./stim/p05_syllable_1_lakakiaisto_hit.wav,p05,lakakiaisto,hit,la-ka-ki-ais-to,la-ka-kiais-to,la-ka-ki-ais-to,la-ka-kia-is-to,-0.374074097,-0.101851807,1,0,0,8.9808,text_option_1,,0,197,197,82,1
5f1ff0f7027b2823badd501b,63f3cfca20052e4ae7554ebf,6453c8cb7516ae8532f95087,2023-05-04_17h07.17.939,ga_syllabified_check,2022.2.5,Win32,60.23370678,,,,,,,,,,,,,,./stim/p06_syllable_1_faluduako_hit.wav,p06,faluduako,hit,fa-lu-dua-ko,fa-lu-dua-ko,fa-lu-du-a-ko, ,-0.381481493,-0.099074029,1,0,0,5.7144,text_option_1,,0,198,198,104,1
5f1ff0f7027b2823badd501b,63f3cfca20052e4ae7554ebf,6453c8cb7516ae8532f95087,2023-05-04_17h07.17.939,ga_syllabified_check,2022.2.5,Win32,60.23370678,,,,,,,,,,,,,,./stim/p07_syllable_1_lakapiaisto_hit.wav,p07,lakapiaisto,hit,la-ka-pia-sto,la-ka-piais-to,la-ka-pi-ais-to,la-ka-pia-is-to,0.012962986,-0.300000068,1,0,0,24.0257,text_option_other,la-ka-pias-to,0,199,199,152,1
5f1ff0f7027b2823badd501b,63f3cfca20052e4ae7554ebf,6453c8cb7516ae8532f95087,2023-05-04_17h07.17.939,ga_syllabified_check,2022.2.5,Win32,60.23370678,,,,,,,,,,,,,,./stim/p03_syllable_1_flauro_hit.wav,p03,flauro,hit,flau-ro,flau-ro,fla-u-ro, ,0.01759257,-0.298148126,1,0,0,3.2655,text_option_other,flau,0,200,200,5,1
5f1ff0f7027b2823badd501b,63f3cfca20052e4ae7554ebf,6453c8cb7516ae8532f95087,2023-05-04_17h07.17.939,ga_syllabified_check,2022.2.5,Win32,60.23370678,,,,,,,,,,,,,,./stim/p05_syllable_1_rausto_hit.wav,p05,rausto,hit,raus-to,raus-to,ra-us-to, ,-0.392592604,-0.098148126,1,0,0,0.9044,text_option_1,,0,201,201,99,1
5f1ff0f7027b2823badd501b,63f3cfca20052e4ae7554ebf,6453c8cb7516ae8532f95087,2023-05-04_17h07.17.939,ga_syllabified_check,2022.2.5,Win32,60.23370678,,,,,,,,,,,,,,./stim/p06_syllable_1_lakapiaisto_hit.wav,p06,lakapiaisto,hit,la-ka-pia-is-to,la-ka-piais-to,la-ka-pi-ais-to,la-ka-pia-is-to,0.040740763,-0.101851807,1,0,0,7.0824,text_option_3,,0,202,202,118,1
5f1ff0f7027b2823badd501b,63f3cfca20052e4ae7554ebf,6453c8cb7516ae8532f95087,2023-05-04_17h07.17.939,ga_syllabified_check,2022.2.5,Win32,60.23370678,,,,,,,,,,,,,,./stim/p03_syllable_1_chiaba_hit.wav,p03,chiaba,hit,chia-ba,chia-ba,chi-a-ba, ,-0.424999966,-0.116666667,1,0,0,1.4832,text_option_1,,0,203,203,0,1
5f1ff0f7027b2823badd501b,63f3cfca20052e4ae7554ebf,6453c8cb7516ae8532f95087,2023-05-04_17h07.17.939,ga_syllabified_check,2022.2.5,Win32,60.23370678,,,,,,,,,,,,,,,,,,,,,,,,,,,,,,,,,,
