participant,study,session,date,expName,psychopyVersion,OS,frameRate,mouse_practice.x,mouse_practice.y,mouse_practice.leftButton,mouse_practice.midButton,mouse_practice.rightButton,mouse_practice.time,mouse_practice.clicked_name,textbox_followup_practice.text,trials_practice.thisRepN,trials_practice.thisTrialN,trials_practice.thisN,trials_practice.thisIndex,trials_practice.ran,file_path,id,item,status,response,op1,op2,op3,mouse.x,mouse.y,mouse.leftButton,mouse.midButton,mouse.rightButton,mouse.time,mouse.clicked_name,textbox_followup.text,trials.thisRepN,trials.thisTrialN,trials.thisN,trials.thisIndex,trials.ran
5f22e7ae938d2d018633624a,63f3cfca20052e4ae7554ebf,6453c927dfb8ae149e5db2ca,2023-05-04_17h03.51.974,ga_syllabified_check,2022.2.5,Win32,29.79205148,,,,,,,,,,,,,,,,,,,,,,,,,,,,,,,,,,
5f22e7ae938d2d018633624a,63f3cfca20052e4ae7554ebf,6453c927dfb8ae149e5db2ca,2023-05-04_17h03.51.974,ga_syllabified_check,2022.2.5,Win32,29.79205148,-0.420572917,-0.09375,1,0,0,2.0694,text_option_1_practice,,0,0,0,0,1,./stim/p03_syllable_1_liamo_hit.wav,p03,liamo,hit,lia-mo,lia-mo,li-a-mo, ,,,,,,,,,,,,,
5f22e7ae938d2d018633624a,63f3cfca20052e4ae7554ebf,6453c927dfb8ae149e5db2ca,2023-05-04_17h03.51.974,ga_syllabified_check,2022.2.5,Win32,29.79205148,0.4140625,-0.110677083,1,0,0,2.8841,text_option_2_practice,,0,1,1,1,1,./stim/p05_syllable_1_matio_hit.wav,p05,matio,hit,ma-tio,ma-tio,ma-ti-o, ,,,,,,,,,,,,,
5f22e7ae938d2d018633624a,63f3cfca20052e4ae7554ebf,6453c927dfb8ae149e5db2ca,2023-05-04_17h03.51.974,ga_syllabified_check,2022.2.5,Win32,29.79205148,0.4140625,-0.110677083,1,0,0,2.0869,text_option_2_practice,,0,2,2,2,1,./stim/p08_syllable_1_liamo_hit.wav,p08,liamo,hit,ja-mo,lia-mo,li-a-mo, ,,,,,,,,,,,,,
5f22e7ae938d2d018633624a,63f3cfca20052e4ae7554ebf,6453c927dfb8ae149e5db2ca,2023-05-04_17h03.51.974,ga_syllabified_check,2022.2.5,Win32,29.79205148,,,,,,,,,,,,,,,,,,,,,,,,,,,,,,,,,,
5f22e7ae938d2d018633624a,63f3cfca20052e4ae7554ebf,6453c927dfb8ae149e5db2ca,2023-05-04_17h03.51.974,ga_syllabified_check,2022.2.5,Win32,29.79205148,,,,,,,,,,,,,,./stim/p07_syllable_1_lakaduaisto_hit.wav,p07,lakaduaisto,hit,la-ka-duais-to,la-ka-duais-to,la-ka-du-ais-to,la-ka-dua-is-to,-0.376302083,-0.110677083,1,0,0,2.2189,text_option_1,,0,0,0,145,1
5f22e7ae938d2d018633624a,63f3cfca20052e4ae7554ebf,6453c927dfb8ae149e5db2ca,2023-05-04_17h03.51.974,ga_syllabified_check,2022.2.5,Win32,29.79205148,,,,,,,,,,,,,,./stim/p07_syllable_1_falutraigo_hit.wav,p07,falutraigo,hit,fa-lu-trai-go,fa-lu-trai-go,fa-lu-tra-i-go, ,-0.37890625,-0.108072917,1,0,0,3.0311,text_option_1,,0,1,1,140,1
5f22e7ae938d2d018633624a,63f3cfca20052e4ae7554ebf,6453c927dfb8ae149e5db2ca,2023-05-04_17h03.51.974,ga_syllabified_check,2022.2.5,Win32,29.79205148,,,,,,,,,,,,,,./stim/p04_syllable_1_tuliafo_hit.wav,p04,tuliafo,hit,tu-lia-fo,tu-lia-fo,tu-li-a-fo, ,-0.36328125,-0.100260417,1,0,0,1.8863,text_option_1,,0,2,2,67,1
5f22e7ae938d2d018633624a,63f3cfca20052e4ae7554ebf,6453c927dfb8ae149e5db2ca,2023-05-04_17h03.51.974,ga_syllabified_check,2022.2.5,Win32,29.79205148,,,,,,,,,,,,,,./stim/p03_syllable_1_manhiala_hit.wav,p03,mañiala,hit,ma-nhia-la,ma-ñia-la,ma-ñi-a-la, ,-0.372395833,-0.115885417,1,0,0,2.5321,text_option_1,,0,3,3,21,1
5f22e7ae938d2d018633624a,63f3cfca20052e4ae7554ebf,6453c927dfb8ae149e5db2ca,2023-05-04_17h03.51.974,ga_syllabified_check,2022.2.5,Win32,29.79205148,,,,,,,,,,,,,,./stim/p04_syllable_1_palufauto_hit.wav,p04,palufauto,hit,pa-lu-fau-to,pa-lu-fau-to,pa-lu-fa-u-to, ,-0.375,-0.115885417,1,0,0,3.79,text_option_1,,0,4,4,60,1
5f22e7ae938d2d018633624a,63f3cfca20052e4ae7554ebf,6453c927dfb8ae149e5db2ca,2023-05-04_17h03.51.974,ga_syllabified_check,2022.2.5,Win32,29.79205148,,,,,,,,,,,,,,./stim/p04_syllable_1_paluguato_hit.wav,p04,paluguato,hit,pa-lu-gua,pa-lu-gua-to,pa-lu-gu-a-to, ,-0.39453125,-0.091145833,1,0,0,5.7086,text_option_1,,0,5,5,61,1
5f22e7ae938d2d018633624a,63f3cfca20052e4ae7554ebf,6453c927dfb8ae149e5db2ca,2023-05-04_17h03.51.974,ga_syllabified_check,2022.2.5,Win32,29.79205148,,,,,,,,,,,,,,./stim/p03_syllable_1_lakadiaisto_hit.wav,p03,lakadiaisto,hit,la-ka-diais-to,la-ka-diais-to,la-ka-di-ais-to,la-ka-dia-is-to,0.419270833,-0.111979167,1,0,0,7.9601,text_option_2,,0,6,6,8,1
5f22e7ae938d2d018633624a,63f3cfca20052e4ae7554ebf,6453c927dfb8ae149e5db2ca,2023-05-04_17h03.51.974,ga_syllabified_check,2022.2.5,Win32,29.79205148,,,,,,,,,,,,,,./stim/p08_syllable_1_lakatiaisto_hit.wav,p08,lakatiaisto,hit,la-ka-ti-as-to,la-ka-tiais-to,la-ka-ti-ais-to,la-ka-tia-is-to,0.022135417,-0.303385417,1,0,0,8.6621,text_option_other,la-ka-tia-so,0,7,7,188,1
5f22e7ae938d2d018633624a,63f3cfca20052e4ae7554ebf,6453c927dfb8ae149e5db2ca,2023-05-04_17h03.51.974,ga_syllabified_check,2022.2.5,Win32,29.79205148,,,,,,,,,,,,,,./stim/p07_syllable_1_lakabiaisto_hit.wav,p07,lakabiaisto,hit,la-ka-bais-to,la-ka-biais-to,la-ka-bi-ais-to,la-ka-bia-is-to,-0.356770833,-0.118489583,1,0,0,6.3776,text_option_1,,0,8,8,142,1
5f22e7ae938d2d018633624a,63f3cfca20052e4ae7554ebf,6453c927dfb8ae149e5db2ca,2023-05-04_17h03.51.974,ga_syllabified_check,2022.2.5,Win32,29.79205148,,,,,,,,,,,,,,./stim/p06_syllable_1_palutrauco_hit.wav,p06,palutrauco,hit,pa-lu-tra-u-co,pa-lu-trau-co,pa-lu-tra-u-co, ,0.37890625,-0.100260417,1,0,0,3.4685,text_option_2,,0,9,9,131,1
5f22e7ae938d2d018633624a,63f3cfca20052e4ae7554ebf,6453c927dfb8ae149e5db2ca,2023-05-04_17h03.51.974,ga_syllabified_check,2022.2.5,Win32,29.79205148,,,,,,,,,,,,,,./stim/p06_syllable_1_costonhialo_hit.wav,p06,costoñialo,hit,cos-to-nhia-lo,cos-to-ñia-lo,cos-to-ñi-a-lo, ,-0.3828125,-0.104166667,1,0,0,4.5028,text_option_1,,0,10,10,103,1
5f22e7ae938d2d018633624a,63f3cfca20052e4ae7554ebf,6453c927dfb8ae149e5db2ca,2023-05-04_17h03.51.974,ga_syllabified_check,2022.2.5,Win32,29.79205148,,,,,,,,,,,,,,./stim/p06_syllable_1_lakakuaisto_hit.wav,p06,lakakuaisto,hit,la-ka-ku-a-is,la-ka-kuais-to,la-ka-ku-ais-to,la-ka-kua-is-to,0.052083333,-0.286458333,1,0,0,6.2603,text_option_other,la-ka-ku-a-is-to,0,11,11,117,1
5f22e7ae938d2d018633624a,63f3cfca20052e4ae7554ebf,6453c927dfb8ae149e5db2ca,2023-05-04_17h03.51.974,ga_syllabified_check,2022.2.5,Win32,29.79205148,,,,,,,,,,,,,,./stim/p07_syllable_1_ruyiola_hit.wav,p07,ruyiola,hit,ru-yio-la,ru-yio-la,ru-yi-o-la, ,-0.430989583,-0.110677083,1,0,0,1.4533,text_option_1,,0,12,12,168,1
5f22e7ae938d2d018633624a,63f3cfca20052e4ae7554ebf,6453c927dfb8ae149e5db2ca,2023-05-04_17h03.51.974,ga_syllabified_check,2022.2.5,Win32,29.79205148,,,,,,,,,,,,,,./stim/p04_syllable_1_nhiape_hit.wav,p04,ñiape,hit,nhia-pe,ñia-pe,ñi-a-pe, ,-0.369791667,-0.098958333,1,0,0,0.8666,text_option_1,,0,13,13,57,1
5f22e7ae938d2d018633624a,63f3cfca20052e4ae7554ebf,6453c927dfb8ae149e5db2ca,2023-05-04_17h03.51.974,ga_syllabified_check,2022.2.5,Win32,29.79205148,,,,,,,,,,,,,,./stim/p06_syllable_1_lakabiaisto_hit.wav,p06,lakabiaisto,hit,la-ka-bia-is-to,la-ka-biais-to,la-ka-bi-ais-to,la-ka-bia-is-to,0.061197917,-0.110677083,1,0,0,3.9775,text_option_3,,0,14,14,108,1
5f22e7ae938d2d018633624a,63f3cfca20052e4ae7554ebf,6453c927dfb8ae149e5db2ca,2023-05-04_17h03.51.974,ga_syllabified_check,2022.2.5,Win32,29.79205148,,,,,,,,,,,,,,./stim/p08_syllable_1_lakakuaisto_hit.wav,p08,lakakuaisto,hit,la-ka-ku-ais-to,la-ka-kuais-to,la-ka-ku-ais-to,la-ka-kua-is-to,0.442708333,-0.106770833,1,0,0,2.6625,text_option_2,,0,15,15,185,1
5f22e7ae938d2d018633624a,63f3cfca20052e4ae7554ebf,6453c927dfb8ae149e5db2ca,2023-05-04_17h03.51.974,ga_syllabified_check,2022.2.5,Win32,29.79205148,,,,,,,,,,,,,,./stim/p04_syllable_1_lakafiaisto_hit.wav,p04,lakafiaisto,hit,la-ka-fiais-to,la-ka-fiais-to,la-ka-fi-ais-to,la-ka-fia-is-to,-0.384114583,-0.10546875,1,0,0,2.8031,text_option_1,,0,16,16,44,1
5f22e7ae938d2d018633624a,63f3cfca20052e4ae7554ebf,6453c927dfb8ae149e5db2ca,2023-05-04_17h03.51.974,ga_syllabified_check,2022.2.5,Win32,29.79205148,,,,,,,,,,,,,,./stim/p07_syllable_1_lakabuaisto_hit.wav,p07,lakabuaisto,hit,la-ka-buais-to,la-ka-buais-to,la-ka-bu-ais-to,la-ka-bua-is-to,-0.34375,-0.102864583,1,0,0,3.339,text_option_1,,0,17,17,143,1
5f22e7ae938d2d018633624a,63f3cfca20052e4ae7554ebf,6453c927dfb8ae149e5db2ca,2023-05-04_17h03.51.974,ga_syllabified_check,2022.2.5,Win32,29.79205148,,,,,,,,,,,,,,./stim/p04_syllable_1_manhiala_hit.wav,p04,mañiala,hit,ma-nhia-la,ma-ñia-la,ma-ñi-a-la, ,-0.334635417,-0.104166667,1,0,0,1.6696,text_option_1,,0,18,18,55,1
5f22e7ae938d2d018633624a,63f3cfca20052e4ae7554ebf,6453c927dfb8ae149e5db2ca,2023-05-04_17h03.51.974,ga_syllabified_check,2022.2.5,Win32,29.79205148,,,,,,,,,,,,,,./stim/p07_syllable_1_lakatuaisto_hit.wav,p07,lakatuaisto,hit,la-ka-tuais-to,la-ka-tuais-to,la-ka-tu-ais-to,la-ka-tua-is-to,-0.334635417,-0.104166667,1,0,0,4.7957,text_option_1,,0,19,19,155,1
5f22e7ae938d2d018633624a,63f3cfca20052e4ae7554ebf,6453c927dfb8ae149e5db2ca,2023-05-04_17h03.51.974,ga_syllabified_check,2022.2.5,Win32,29.79205148,,,,,,,,,,,,,,./stim/p03_syllable_1_lakakiaisto_hit.wav,p03,lakakiaisto,hit,la-ka-kiais-to,la-ka-kiais-to,la-ka-ki-ais-to,la-ka-kia-is-to,-0.391927083,-0.102864583,1,0,0,3.4317,text_option_1,,0,20,20,14,1
5f22e7ae938d2d018633624a,63f3cfca20052e4ae7554ebf,6453c927dfb8ae149e5db2ca,2023-05-04_17h03.51.974,ga_syllabified_check,2022.2.5,Win32,29.79205148,,,,,,,,,,,,,,./stim/p03_syllable_1_lakabiaisto_hit.wav,p03,lakabiaisto,hit,la-ka-biais-to,la-ka-biais-to,la-ka-bi-ais-to,la-ka-bia-is-to,0.424479167,-0.11328125,1,0,0,6.8842,text_option_2,,0,21,21,6,1
5f22e7ae938d2d018633624a,63f3cfca20052e4ae7554ebf,6453c927dfb8ae149e5db2ca,2023-05-04_17h03.51.974,ga_syllabified_check,2022.2.5,Win32,29.79205148,,,,,,,,,,,,,,./stim/p03_syllable_1_palufauto_hit.wav,p03,palufauto,hit,pa-lu-fau,pa-lu-fau-to,pa-lu-fa-u-to, ,0.40625,-0.095052083,1,0,0,4.3384,text_option_2,,0,22,22,26,1
5f22e7ae938d2d018633624a,63f3cfca20052e4ae7554ebf,6453c927dfb8ae149e5db2ca,2023-05-04_17h03.51.974,ga_syllabified_check,2022.2.5,Win32,29.79205148,,,,,,,,,,,,,,./stim/p08_syllable_1_lliape_hit.wav,p08,lliape,hit,li-a-pe,llia-pe,lli-a-pe, ,0.397135417,-0.1015625,1,0,0,1.7598,text_option_2,,0,23,23,190,1
5f22e7ae938d2d018633624a,63f3cfca20052e4ae7554ebf,6453c927dfb8ae149e5db2ca,2023-05-04_17h03.51.974,ga_syllabified_check,2022.2.5,Win32,29.79205148,,,,,,,,,,,,,,./stim/p05_syllable_1_palufauro_hit.wav,p05,palufauro,hit,pa-lu-fau-ro,pa-lu-fau-ro,pa-lu-fa-u-ro, ,-0.365885417,-0.098958333,1,0,0,2.5256,text_option_1,,0,24,24,93,1
5f22e7ae938d2d018633624a,63f3cfca20052e4ae7554ebf,6453c927dfb8ae149e5db2ca,2023-05-04_17h03.51.974,ga_syllabified_check,2022.2.5,Win32,29.79205148,,,,,,,,,,,,,,./stim/p05_syllable_1_costonhialo_hit.wav,p05,costoñialo,hit,cos-to-nhia-lo,cos-to-ñia-lo,cos-to-ñi-a-lo, ,-0.369791667,-0.102864583,1,0,0,2.6016,text_option_1,,0,25,25,69,1
5f22e7ae938d2d018633624a,63f3cfca20052e4ae7554ebf,6453c927dfb8ae149e5db2ca,2023-05-04_17h03.51.974,ga_syllabified_check,2022.2.5,Win32,29.79205148,,,,,,,,,,,,,,./stim/p06_syllable_1_lakagiaisto_hit.wav,p06,lakagiaisto,hit,la-ka-gia-is-to,la-ka-giais-to,la-ka-gi-ais-to,la-ka-gia-is-to,0.01953125,-0.1015625,1,0,0,3.9893,text_option_3,,0,26,26,114,1
5f22e7ae938d2d018633624a,63f3cfca20052e4ae7554ebf,6453c927dfb8ae149e5db2ca,2023-05-04_17h03.51.974,ga_syllabified_check,2022.2.5,Win32,29.79205148,,,,,,,,,,,,,,./stim/p08_syllable_1_palufauto_hit.wav,p08,palufauto,hit,pa-lu-fau-to,pa-lu-fau-to,pa-lu-fa-u-to, ,-0.389322917,-0.092447917,1,0,0,3.196,text_option_1,,0,27,27,196,1
5f22e7ae938d2d018633624a,63f3cfca20052e4ae7554ebf,6453c927dfb8ae149e5db2ca,2023-05-04_17h03.51.974,ga_syllabified_check,2022.2.5,Win32,29.79205148,,,,,,,,,,,,,,./stim/p05_syllable_1_manhiala_hit.wav,p05,mañiala,hit,ma-nhia-la,ma-ñia-la,ma-ñi-a-la, ,-0.388020833,-0.10546875,1,0,0,4.6249,text_option_1,,0,28,28,89,1
5f22e7ae938d2d018633624a,63f3cfca20052e4ae7554ebf,6453c927dfb8ae149e5db2ca,2023-05-04_17h03.51.974,ga_syllabified_check,2022.2.5,Win32,29.79205148,,,,,,,,,,,,,,./stim/p03_syllable_1_lakagiaisto_hit.wav,p03,lakagiaisto,hit,la-ka-giais-to,la-ka-giais-to,la-ka-gi-ais-to,la-ka-gia-is-to,-0.411458333,-0.11328125,1,0,0,2.7412,text_option_1,,0,29,29,12,1
5f22e7ae938d2d018633624a,63f3cfca20052e4ae7554ebf,6453c927dfb8ae149e5db2ca,2023-05-04_17h03.51.974,ga_syllabified_check,2022.2.5,Win32,29.79205148,,,,,,,,,,,,,,./stim/p08_syllable_1_rausto_hit.wav,p08,rausto,hit,raus-to,raus-to,ra-us-to, ,-0.37109375,-0.106770833,1,0,0,0.9896,text_option_1,,0,30,30,201,1
5f22e7ae938d2d018633624a,63f3cfca20052e4ae7554ebf,6453c927dfb8ae149e5db2ca,2023-05-04_17h03.51.974,ga_syllabified_check,2022.2.5,Win32,29.79205148,,,,,,,,,,,,,,./stim/p04_syllable_1_lakapuaisto_hit.wav,p04,lakapuaisto,hit,la-ka-puais-to,la-ka-puais-to,la-ka-pu-ais-to,la-ka-pua-is-to,-0.372395833,-0.109375,1,0,0,4.147,text_option_1,,0,31,31,51,1
5f22e7ae938d2d018633624a,63f3cfca20052e4ae7554ebf,6453c927dfb8ae149e5db2ca,2023-05-04_17h03.51.974,ga_syllabified_check,2022.2.5,Win32,29.79205148,,,,,,,,,,,,,,./stim/p06_syllable_1_chiaba_hit.wav,p06,chiaba,hit,chi-a-ba,chia-ba,chi-a-ba, ,-0.389322917,-0.098958333,1,0,0,5.6846,text_option_1,,0,32,32,102,1
5f22e7ae938d2d018633624a,63f3cfca20052e4ae7554ebf,6453c927dfb8ae149e5db2ca,2023-05-04_17h03.51.974,ga_syllabified_check,2022.2.5,Win32,29.79205148,,,,,,,,,,,,,,./stim/p03_syllable_1_lakaduaisto_hit.wav,p03,lakaduaisto,hit,la-ka-duais-to,la-ka-duais-to,la-ka-du-ais-to,la-ka-dua-is-to,-0.40625,-0.114583333,1,0,0,3.2294,text_option_1,,0,33,33,9,1
5f22e7ae938d2d018633624a,63f3cfca20052e4ae7554ebf,6453c927dfb8ae149e5db2ca,2023-05-04_17h03.51.974,ga_syllabified_check,2022.2.5,Win32,29.79205148,,,,,,,,,,,,,,./stim/p04_syllable_1_lakatiaisto_hit.wav,p04,lakatiaisto,hit,la-ka-kiais-to,la-ka-tiais-to,la-ka-ti-ais-to,la-ka-tia-is-to,-0.446614583,-0.100260417,1,0,0,3.0114,text_option_1,,0,34,34,52,1
5f22e7ae938d2d018633624a,63f3cfca20052e4ae7554ebf,6453c927dfb8ae149e5db2ca,2023-05-04_17h03.51.974,ga_syllabified_check,2022.2.5,Win32,29.79205148,,,,,,,,,,,,,,./stim/p06_syllable_1_falutraigo_hit.wav,p06,falutraigo,hit,fa-lu-tra-i-go,fa-lu-trai-go,fa-lu-tra-i-go, ,0.434895833,-0.115885417,1,0,0,3.7705,text_option_2,,0,35,35,106,1
5f22e7ae938d2d018633624a,63f3cfca20052e4ae7554ebf,6453c927dfb8ae149e5db2ca,2023-05-04_17h03.51.974,ga_syllabified_check,2022.2.5,Win32,29.79205148,,,,,,,,,,,,,,./stim/p03_syllable_1_costonhialo_hit.wav,p03,costoñialo,hit,cos-to-nhia-lo,cos-to-ñia-lo,cos-to-ñi-a-lo, ,-0.3671875,-0.095052083,1,0,0,3.0248,text_option_1,,0,36,36,1,1
5f22e7ae938d2d018633624a,63f3cfca20052e4ae7554ebf,6453c927dfb8ae149e5db2ca,2023-05-04_17h03.51.974,ga_syllabified_check,2022.2.5,Win32,29.79205148,,,,,,,,,,,,,,./stim/p04_syllable_1_lakaduaisto_hit.wav,p04,lakaduaisto,hit,la-ka-duais-to,la-ka-duais-to,la-ka-du-ais-to,la-ka-dua-is-to,-0.395833333,-0.106770833,1,0,0,2.3343,text_option_1,,0,37,37,43,1
5f22e7ae938d2d018633624a,63f3cfca20052e4ae7554ebf,6453c927dfb8ae149e5db2ca,2023-05-04_17h03.51.974,ga_syllabified_check,2022.2.5,Win32,29.79205148,,,,,,,,,,,,,,./stim/p04_syllable_1_faluduako_hit.wav,p04,faluduako,hit,fa-lu-dua-ko,fa-lu-dua-ko,fa-lu-du-a-ko, ,-0.388020833,-0.118489583,1,0,0,5.8251,text_option_1,,0,38,38,36,1
5f22e7ae938d2d018633624a,63f3cfca20052e4ae7554ebf,6453c927dfb8ae149e5db2ca,2023-05-04_17h03.51.974,ga_syllabified_check,2022.2.5,Win32,29.79205148,,,,,,,,,,,,,,./stim/p08_syllable_1_paluguato_hit.wav,p08,paluguato,hit,pa-lu-gua-to,pa-lu-gua-to,pa-lu-gu-a-to, ,-0.388020833,-0.118489583,1,0,0,1.8923,text_option_1,,0,39,39,197,1
5f22e7ae938d2d018633624a,63f3cfca20052e4ae7554ebf,6453c927dfb8ae149e5db2ca,2023-05-04_17h03.51.974,ga_syllabified_check,2022.2.5,Win32,29.79205148,,,,,,,,,,,,,,./stim/p07_syllable_1_nhiape_hit.wav,p07,ñiape,hit,nhia-pe,ñia-pe,ñi-a-pe, ,0.397135417,-0.111979167,1,0,0,2.4385,text_option_2,,0,40,40,159,1
5f22e7ae938d2d018633624a,63f3cfca20052e4ae7554ebf,6453c927dfb8ae149e5db2ca,2023-05-04_17h03.51.974,ga_syllabified_check,2022.2.5,Win32,29.79205148,,,,,,,,,,,,,,./stim/p07_syllable_1_manhiala_hit.wav,p07,mañiala,hit,ma-nhia-la,ma-ñia-la,ma-ñi-a-la, ,-0.395833333,-0.111979167,1,0,0,2.8306,text_option_1,,0,41,41,157,1
5f22e7ae938d2d018633624a,63f3cfca20052e4ae7554ebf,6453c927dfb8ae149e5db2ca,2023-05-04_17h03.51.974,ga_syllabified_check,2022.2.5,Win32,29.79205148,,,,,,,,,,,,,,./stim/p05_syllable_1_flauro_hit.wav,p05,flauro,hit,fa-lu-ro,flau-ro,fla-u-ro, ,0.053385417,-0.311197917,1,0,0,6.3031,text_option_other,fa-lu-ro,0,42,42,73,1
5f22e7ae938d2d018633624a,63f3cfca20052e4ae7554ebf,6453c927dfb8ae149e5db2ca,2023-05-04_17h03.51.974,ga_syllabified_check,2022.2.5,Win32,29.79205148,,,,,,,,,,,,,,./stim/p03_syllable_1_lliape_hit.wav,p03,lliape,hit,llia,llia-pe,lli-a-pe, ,-0.44140625,-0.100260417,1,0,0,1.0736,text_option_1,,0,43,43,20,1
5f22e7ae938d2d018633624a,63f3cfca20052e4ae7554ebf,6453c927dfb8ae149e5db2ca,2023-05-04_17h03.51.974,ga_syllabified_check,2022.2.5,Win32,29.79205148,,,,,,,,,,,,,,./stim/p04_syllable_1_payielo_hit.wav,p04,payielo,hit,pa-yie-lo,pa-yie-lo,pa-yi-e-lo, ,-0.3515625,-0.100260417,1,0,0,1.3966,text_option_1,,0,44,44,64,1
5f22e7ae938d2d018633624a,63f3cfca20052e4ae7554ebf,6453c927dfb8ae149e5db2ca,2023-05-04_17h03.51.974,ga_syllabified_check,2022.2.5,Win32,29.79205148,,,,,,,,,,,,,,./stim/p06_syllable_1_lakapiaisto_hit.wav,p06,lakapiaisto,hit,la-ka-pia-is-to,la-ka-piais-to,la-ka-pi-ais-to,la-ka-pia-is-to,0.084635417,-0.11328125,1,0,0,4.7181,text_option_3,,0,45,45,118,1
5f22e7ae938d2d018633624a,63f3cfca20052e4ae7554ebf,6453c927dfb8ae149e5db2ca,2023-05-04_17h03.51.974,ga_syllabified_check,2022.2.5,Win32,29.79205148,,,,,,,,,,,,,,./stim/p05_syllable_1_lakakuaisto_hit.wav,p05,lakakuaisto,hit,la-ka-kais-to,la-ka-kuais-to,la-ka-ku-ais-to,la-ka-kua-is-to,-0.075520833,-0.100260417,1,0,0,10.3937,text_option_3,,0,46,46,83,1
5f22e7ae938d2d018633624a,63f3cfca20052e4ae7554ebf,6453c927dfb8ae149e5db2ca,2023-05-04_17h03.51.974,ga_syllabified_check,2022.2.5,Win32,29.79205148,,,,,,,,,,,,,,./stim/p08_syllable_1_lakagiaisto_hit.wav,p08,lakagiaisto,hit,la-ka-gi-jas-to,la-ka-giais-to,la-ka-gi-ais-to,la-ka-gia-is-to,-0.407552083,-0.102864583,1,0,0,8.9187,text_option_1,,0,47,47,182,1
5f22e7ae938d2d018633624a,63f3cfca20052e4ae7554ebf,6453c927dfb8ae149e5db2ca,2023-05-04_17h03.51.974,ga_syllabified_check,2022.2.5,Win32,29.79205148,,,,,,,,,,,,,,./stim/p05_syllable_1_lakafiaisto_hit.wav,p05,lakafiaisto,hit,la-ka-fi-ais-to,la-ka-fiais-to,la-ka-fi-ais-to,la-ka-fia-is-to,0.002604167,-0.1015625,1,0,0,2.7199,text_option_3,,0,48,48,78,1
5f22e7ae938d2d018633624a,63f3cfca20052e4ae7554ebf,6453c927dfb8ae149e5db2ca,2023-05-04_17h03.51.974,ga_syllabified_check,2022.2.5,Win32,29.79205148,,,,,,,,,,,,,,./stim/p03_syllable_1_flauro_hit.wav,p03,flauro,hit,flau-ro,flau-ro,fla-u-ro, ,-0.421875,-0.10546875,1,0,0,1.7526,text_option_1,,0,49,49,5,1
5f22e7ae938d2d018633624a,63f3cfca20052e4ae7554ebf,6453c927dfb8ae149e5db2ca,2023-05-04_17h03.51.974,ga_syllabified_check,2022.2.5,Win32,29.79205148,,,,,,,,,,,,,,./stim/p08_syllable_1_payielo_hit.wav,p08,payielo,hit,pa-yie-lo,pa-yie-lo,pa-yi-e-lo, ,-0.045572917,-0.305989583,1,0,0,4.6471,text_option_other,pay-ie-lo,0,50,50,200,1
5f22e7ae938d2d018633624a,63f3cfca20052e4ae7554ebf,6453c927dfb8ae149e5db2ca,2023-05-04_17h03.51.974,ga_syllabified_check,2022.2.5,Win32,29.79205148,,,,,,,,,,,,,,./stim/p03_syllable_1_nhiape_hit.wav,p03,ñiape,hit,nhia-pe,ñia-pe,ñi-a-pe, ,-0.359375,-0.08984375,1,0,0,0.8613,text_option_1,,0,51,51,23,1
5f22e7ae938d2d018633624a,63f3cfca20052e4ae7554ebf,6453c927dfb8ae149e5db2ca,2023-05-04_17h03.51.974,ga_syllabified_check,2022.2.5,Win32,29.79205148,,,,,,,,,,,,,,./stim/p05_syllable_1_mebochiana_hit.wav,p05,mebochiana,hit,me-cho-chai-na,me-bo-chia-na,me-bo-chi-a-na, ,0.4453125,-0.108072917,1,0,0,5.8121,text_option_2,,0,52,52,90,1
5f22e7ae938d2d018633624a,63f3cfca20052e4ae7554ebf,6453c927dfb8ae149e5db2ca,2023-05-04_17h03.51.974,ga_syllabified_check,2022.2.5,Win32,29.79205148,,,,,,,,,,,,,,./stim/p07_syllable_1_payielo_hit.wav,p07,payielo,hit,pa-yie-lo,pa-yie-lo,pa-yi-e-lo, ,-0.346354167,-0.108072917,1,0,0,2.2088,text_option_1,,0,53,53,166,1
5f22e7ae938d2d018633624a,63f3cfca20052e4ae7554ebf,6453c927dfb8ae149e5db2ca,2023-05-04_17h03.51.974,ga_syllabified_check,2022.2.5,Win32,29.79205148,,,,,,,,,,,,,,./stim/p08_syllable_1_falufaisto_hit.wav,p08,falufaisto,hit,fa-lu-fais-to,fa-lu-fais-to,fa-lu-fa-is-to, ,-0.322916667,-0.108072917,1,0,0,2.2752,text_option_1,,0,54,54,173,1
5f22e7ae938d2d018633624a,63f3cfca20052e4ae7554ebf,6453c927dfb8ae149e5db2ca,2023-05-04_17h03.51.974,ga_syllabified_check,2022.2.5,Win32,29.79205148,,,,,,,,,,,,,,./stim/p05_syllable_1_lakabiaisto_hit.wav,p05,lakabiaisto,hit,la-ka-bi-ais-to,la-ka-biais-to,la-ka-bi-ais-to,la-ka-bia-is-to,0.01953125,-0.106770833,1,0,0,3.6271,text_option_3,,0,55,55,74,1
5f22e7ae938d2d018633624a,63f3cfca20052e4ae7554ebf,6453c927dfb8ae149e5db2ca,2023-05-04_17h03.51.974,ga_syllabified_check,2022.2.5,Win32,29.79205148,,,,,,,,,,,,,,./stim/p06_syllable_1_rausto_hit.wav,p06,rausto,hit,ra-us-to,raus-to,ra-us-to, ,0.3671875,-0.102864583,1,0,0,1.6214,text_option_2,,0,56,56,133,1
5f22e7ae938d2d018633624a,63f3cfca20052e4ae7554ebf,6453c927dfb8ae149e5db2ca,2023-05-04_17h03.51.974,ga_syllabified_check,2022.2.5,Win32,29.79205148,,,,,,,,,,,,,,./stim/p05_syllable_1_lakatiaisto_hit.wav,p05,lakatiaisto,hit,la-ka-ti-ais-to,la-ka-tiais-to,la-ka-ti-ais-to,la-ka-tia-is-to,-0.334635417,-0.118489583,1,0,0,3.9509,text_option_1,,0,57,57,86,1
5f22e7ae938d2d018633624a,63f3cfca20052e4ae7554ebf,6453c927dfb8ae149e5db2ca,2023-05-04_17h03.51.974,ga_syllabified_check,2022.2.5,Win32,29.79205148,,,,,,,,,,,,,,./stim/p05_syllable_1_paluguato_hit.wav,p05,paluguato,hit,pa-lu-gau-to,pa-lu-gua-to,pa-lu-gu-a-to, ,-0.38671875,-0.114583333,1,0,0,4.0449,text_option_1,,0,58,58,95,1
5f22e7ae938d2d018633624a,63f3cfca20052e4ae7554ebf,6453c927dfb8ae149e5db2ca,2023-05-04_17h03.51.974,ga_syllabified_check,2022.2.5,Win32,29.79205148,,,,,,,,,,,,,,./stim/p06_syllable_1_lakatuaisto_hit.wav,p06,lakatuaisto,hit,la-ka-tu-a-is,la-ka-tuais-to,la-ka-tu-ais-to,la-ka-tua-is-to,0.033854167,-0.10546875,1,0,0,4.919,text_option_3,,0,59,59,121,1
5f22e7ae938d2d018633624a,63f3cfca20052e4ae7554ebf,6453c927dfb8ae149e5db2ca,2023-05-04_17h03.51.974,ga_syllabified_check,2022.2.5,Win32,29.79205148,,,,,,,,,,,,,,./stim/p08_syllable_1_lakakiaisto_hit.wav,p08,lakakiaisto,hit,la-ka-ki-jas-to,la-ka-kiais-to,la-ka-ki-ais-to,la-ka-kia-is-to,0.427083333,-0.10546875,1,0,0,8.652,text_option_2,,0,60,60,184,1
5f22e7ae938d2d018633624a,63f3cfca20052e4ae7554ebf,6453c927dfb8ae149e5db2ca,2023-05-04_17h03.51.974,ga_syllabified_check,2022.2.5,Win32,29.79205148,,,,,,,,,,,,,,./stim/p04_syllable_1_palutrauco_hit.wav,p04,palutrauco,hit,pa-lu-trau-co,pa-lu-trau-co,pa-lu-tra-u-co, ,-0.33984375,-0.111979167,1,0,0,2.2785,text_option_1,,0,61,61,63,1
5f22e7ae938d2d018633624a,63f3cfca20052e4ae7554ebf,6453c927dfb8ae149e5db2ca,2023-05-04_17h03.51.974,ga_syllabified_check,2022.2.5,Win32,29.79205148,,,,,,,,,,,,,,./stim/p08_syllable_1_lakaguaisto_hit.wav,p08,lakaguaisto,hit,la-ka-gu-ais-to,la-ka-guais-to,la-ka-gu-ais-to,la-ka-gua-is-to,0.384114583,-0.11328125,1,0,0,6.4956,text_option_2,,0,62,62,183,1
5f22e7ae938d2d018633624a,63f3cfca20052e4ae7554ebf,6453c927dfb8ae149e5db2ca,2023-05-04_17h03.51.974,ga_syllabified_check,2022.2.5,Win32,29.79205148,,,,,,,,,,,,,,./stim/p04_syllable_1_flauro_hit.wav,p04,flauro,hit,flau-ro,flau-ro,fla-u-ro, ,0.37109375,-0.114583333,1,0,0,1.9574,text_option_2,,0,63,63,39,1
5f22e7ae938d2d018633624a,63f3cfca20052e4ae7554ebf,6453c927dfb8ae149e5db2ca,2023-05-04_17h03.51.974,ga_syllabified_check,2022.2.5,Win32,29.79205148,,,,,,,,,,,,,,./stim/p07_syllable_1_chiaba_hit.wav,p07,chiaba,hit,chia-ba,chia-ba,chi-a-ba, ,-0.40234375,-0.106770833,1,0,0,2.9349,text_option_1,,0,64,64,136,1
5f22e7ae938d2d018633624a,63f3cfca20052e4ae7554ebf,6453c927dfb8ae149e5db2ca,2023-05-04_17h03.51.974,ga_syllabified_check,2022.2.5,Win32,29.79205148,,,,,,,,,,,,,,./stim/p04_syllable_1_ruyiola_hit.wav,p04,ruyiola,hit,ru-yio-la,ru-yio-la,ru-yi-o-la, ,-0.390625,-0.100260417,1,0,0,1.1314,text_option_1,,0,65,65,66,1
5f22e7ae938d2d018633624a,63f3cfca20052e4ae7554ebf,6453c927dfb8ae149e5db2ca,2023-05-04_17h03.51.974,ga_syllabified_check,2022.2.5,Win32,29.79205148,,,,,,,,,,,,,,./stim/p06_syllable_1_manhiala_hit.wav,p06,mañiala,hit,ma-nhi-a-la,ma-ñia-la,ma-ñi-a-la, ,0.369791667,-0.114583333,1,0,0,2.2017,text_option_2,,0,66,66,123,1
5f22e7ae938d2d018633624a,63f3cfca20052e4ae7554ebf,6453c927dfb8ae149e5db2ca,2023-05-04_17h03.51.974,ga_syllabified_check,2022.2.5,Win32,29.79205148,,,,,,,,,,,,,,./stim/p06_syllable_1_palumaisto_hit.wav,p06,palumaisto,hit,pa-lu-ma-is-to,pa-lu-mais-to,pa-lu-ma-is-to, ,0.380208333,-0.1015625,1,0,0,3.5963,text_option_2,,0,67,67,130,1
5f22e7ae938d2d018633624a,63f3cfca20052e4ae7554ebf,6453c927dfb8ae149e5db2ca,2023-05-04_17h03.51.974,ga_syllabified_check,2022.2.5,Win32,29.79205148,,,,,,,,,,,,,,./stim/p06_syllable_1_paluguato_hit.wav,p06,paluguato,hit,pa-lu-gua-to,pa-lu-gua-to,pa-lu-gu-a-to, ,-0.352864583,-0.09765625,1,0,0,2.3379,text_option_1,,0,68,68,129,1
5f22e7ae938d2d018633624a,63f3cfca20052e4ae7554ebf,6453c927dfb8ae149e5db2ca,2023-05-04_17h03.51.974,ga_syllabified_check,2022.2.5,Win32,29.79205148,,,,,,,,,,,,,,./stim/p05_syllable_1_lakafuaisto_hit.wav,p05,lakafuaisto,hit,la-ka-fais-to,la-ka-fuais-to,la-ka-fu-ais-to,la-ka-fua-is-to,-0.321614583,-0.104166667,1,0,0,3.0584,text_option_1,,0,69,69,79,1
5f22e7ae938d2d018633624a,63f3cfca20052e4ae7554ebf,6453c927dfb8ae149e5db2ca,2023-05-04_17h03.51.974,ga_syllabified_check,2022.2.5,Win32,29.79205148,,,,,,,,,,,,,,./stim/p04_syllable_1_mebochiana_hit.wav,p04,mebochiana,hit,me-bo-chia-na,me-bo-chia-na,me-bo-chi-a-na, ,-0.377604167,-0.114583333,1,0,0,2.4974,text_option_1,,0,70,70,56,1
5f22e7ae938d2d018633624a,63f3cfca20052e4ae7554ebf,6453c927dfb8ae149e5db2ca,2023-05-04_17h03.51.974,ga_syllabified_check,2022.2.5,Win32,29.79205148,,,,,,,,,,,,,,./stim/p04_syllable_1_chiaba_hit.wav,p04,chiaba,hit,chia-ba,chia-ba,chi-a-ba, ,-0.41796875,-0.102864583,1,0,0,1.3691,text_option_1,,0,71,71,34,1
5f22e7ae938d2d018633624a,63f3cfca20052e4ae7554ebf,6453c927dfb8ae149e5db2ca,2023-05-04_17h03.51.974,ga_syllabified_check,2022.2.5,Win32,29.79205148,,,,,,,,,,,,,,./stim/p07_syllable_1_lakadiaisto_hit.wav,p07,lakadiaisto,hit,la-ka-dia-is-to,la-ka-diais-to,la-ka-di-ais-to,la-ka-dia-is-to,0.055989583,-0.111979167,1,0,0,2.6547,text_option_3,,0,72,72,144,1
5f22e7ae938d2d018633624a,63f3cfca20052e4ae7554ebf,6453c927dfb8ae149e5db2ca,2023-05-04_17h03.51.974,ga_syllabified_check,2022.2.5,Win32,29.79205148,,,,,,,,,,,,,,./stim/p05_syllable_1_lakadiaisto_hit.wav,p05,lakadiaisto,hit,la-ka-di-ais-to,la-ka-diais-to,la-ka-di-ais-to,la-ka-dia-is-to,0.486979167,-0.118489583,1,0,0,4.3241,text_option_2,,0,73,73,76,1
5f22e7ae938d2d018633624a,63f3cfca20052e4ae7554ebf,6453c927dfb8ae149e5db2ca,2023-05-04_17h03.51.974,ga_syllabified_check,2022.2.5,Win32,29.79205148,,,,,,,,,,,,,,./stim/p07_syllable_1_lakatiaisto_hit.wav,p07,lakatiaisto,hit,la-ka-tiai-sto,la-ka-tiais-to,la-ka-ti-ais-to,la-ka-tia-is-to,-0.4296875,-0.106770833,1,0,0,3.3318,text_option_1,,0,74,74,154,1
5f22e7ae938d2d018633624a,63f3cfca20052e4ae7554ebf,6453c927dfb8ae149e5db2ca,2023-05-04_17h03.51.974,ga_syllabified_check,2022.2.5,Win32,29.79205148,,,,,,,,,,,,,,./stim/p08_syllable_1_lakapuaisto_hit.wav,p08,lakapuaisto,hit,la-ka-pu-as-to,la-ka-puais-to,la-ka-pu-ais-to,la-ka-pua-is-to,0.4765625,-0.1015625,1,0,0,7.7828,text_option_2,,0,75,75,187,1
5f22e7ae938d2d018633624a,63f3cfca20052e4ae7554ebf,6453c927dfb8ae149e5db2ca,2023-05-04_17h03.51.974,ga_syllabified_check,2022.2.5,Win32,29.79205148,,,,,,,,,,,,,,./stim/p05_syllable_1_nhiape_hit.wav,p05,ñiape,hit,nhia-pe,ñia-pe,ñi-a-pe, ,0.401041667,-0.122395833,1,0,0,0.621,text_option_2,,0,76,76,91,1
5f22e7ae938d2d018633624a,63f3cfca20052e4ae7554ebf,6453c927dfb8ae149e5db2ca,2023-05-04_17h03.51.974,ga_syllabified_check,2022.2.5,Win32,29.79205148,,,,,,,,,,,,,,./stim/p08_syllable_1_lakafuaisto_hit.wav,p08,lakafuaisto,hit,la-ka-fju-ais-to,la-ka-fuais-to,la-ka-fu-ais-to,la-ka-fua-is-to,-0.4375,-0.106770833,1,0,0,6.0999,text_option_1,,0,77,77,181,1
5f22e7ae938d2d018633624a,63f3cfca20052e4ae7554ebf,6453c927dfb8ae149e5db2ca,2023-05-04_17h03.51.974,ga_syllabified_check,2022.2.5,Win32,29.79205148,,,,,,,,,,,,,,./stim/p03_syllable_1_rausto_hit.wav,p03,rausto,hit,raus-to,raus-to,ra-us-to, ,-0.420572917,-0.098958333,1,0,0,0.962,text_option_1,,0,78,78,31,1
5f22e7ae938d2d018633624a,63f3cfca20052e4ae7554ebf,6453c927dfb8ae149e5db2ca,2023-05-04_17h03.51.974,ga_syllabified_check,2022.2.5,Win32,29.79205148,,,,,,,,,,,,,,./stim/p08_syllable_1_falutraigo_hit.wav,p08,falutraigo,hit,fa-lu-trai-go,fa-lu-trai-go,fa-lu-tra-i-go, ,-0.36328125,-0.11328125,1,0,0,5.6653,text_option_1,,0,79,79,174,1
5f22e7ae938d2d018633624a,63f3cfca20052e4ae7554ebf,6453c927dfb8ae149e5db2ca,2023-05-04_17h03.51.974,ga_syllabified_check,2022.2.5,Win32,29.79205148,,,,,,,,,,,,,,./stim/p05_syllable_1_lakatuaisto_hit.wav,p05,lakatuaisto,hit,la-ka-tais-to,la-ka-tuais-to,la-ka-tu-ais-to,la-ka-tua-is-to,-0.41015625,-0.108072917,1,0,0,3.3414,text_option_1,,0,80,80,87,1
5f22e7ae938d2d018633624a,63f3cfca20052e4ae7554ebf,6453c927dfb8ae149e5db2ca,2023-05-04_17h03.51.974,ga_syllabified_check,2022.2.5,Win32,29.79205148,,,,,,,,,,,,,,./stim/p04_syllable_1_lakabuaisto_hit.wav,p04,lakabuaisto,hit,la-ka-buais-to,la-ka-buais-to,la-ka-bu-ais-to,la-ka-bua-is-to,-0.390625,-0.115885417,1,0,0,1.7011,text_option_1,,0,81,81,41,1
5f22e7ae938d2d018633624a,63f3cfca20052e4ae7554ebf,6453c927dfb8ae149e5db2ca,2023-05-04_17h03.51.974,ga_syllabified_check,2022.2.5,Win32,29.79205148,,,,,,,,,,,,,,./stim/p08_syllable_1_lakatuaisto_hit.wav,p08,lakatuaisto,hit,la-ka-tu-i-jis,la-ka-tuais-to,la-ka-tu-ais-to,la-ka-tua-is-to,0.013020833,-0.104166667,1,0,0,4.8346,text_option_3,,0,82,82,189,1
5f22e7ae938d2d018633624a,63f3cfca20052e4ae7554ebf,6453c927dfb8ae149e5db2ca,2023-05-04_17h03.51.974,ga_syllabified_check,2022.2.5,Win32,29.79205148,,,,,,,,,,,,,,./stim/p06_syllable_1_lakabuaisto_hit.wav,p06,lakabuaisto,hit,la-ka-bu-a-is,la-ka-buais-to,la-ka-bu-ais-to,la-ka-bua-is-to,0.364583333,-0.106770833,1,0,0,4.2017,text_option_2,,0,83,83,109,1
5f22e7ae938d2d018633624a,63f3cfca20052e4ae7554ebf,6453c927dfb8ae149e5db2ca,2023-05-04_17h03.51.974,ga_syllabified_check,2022.2.5,Win32,29.79205148,,,,,,,,,,,,,,./stim/p06_syllable_1_tuliafo_hit.wav,p06,tuliafo,hit,tu-li-a-fo,tu-lia-fo,tu-li-a-fo, ,-0.3828125,-0.115885417,1,0,0,2.101,text_option_1,,0,84,84,135,1
5f22e7ae938d2d018633624a,63f3cfca20052e4ae7554ebf,6453c927dfb8ae149e5db2ca,2023-05-04_17h03.51.974,ga_syllabified_check,2022.2.5,Win32,29.79205148,,,,,,,,,,,,,,./stim/p04_syllable_1_lakakiaisto_hit.wav,p04,lakakiaisto,hit,la-ka-kiais-to,la-ka-kiais-to,la-ka-ki-ais-to,la-ka-kia-is-to,-0.380208333,-0.109375,1,0,0,3.1588,text_option_1,,0,85,85,48,1
5f22e7ae938d2d018633624a,63f3cfca20052e4ae7554ebf,6453c927dfb8ae149e5db2ca,2023-05-04_17h03.51.974,ga_syllabified_check,2022.2.5,Win32,29.79205148,,,,,,,,,,,,,,./stim/p05_syllable_1_lakaguaisto_hit.wav,p05,lakaguaisto,hit,la-ka-gais,la-ka-guais-to,la-ka-gu-ais-to,la-ka-gua-is-to,0.022135417,-0.3046875,1,0,0,5.6141,text_option_other,la-ka-kais-to,0,86,86,81,1
5f22e7ae938d2d018633624a,63f3cfca20052e4ae7554ebf,6453c927dfb8ae149e5db2ca,2023-05-04_17h03.51.974,ga_syllabified_check,2022.2.5,Win32,29.79205148,,,,,,,,,,,,,,./stim/p03_syllable_1_palumaisto_hit.wav,p03,palumaisto,hit,pa-lu-mais-to,pa-lu-mais-to,pa-lu-ma-is-to, ,-0.416666667,-0.118489583,1,0,0,1.9271,text_option_1,,0,87,87,28,1
5f22e7ae938d2d018633624a,63f3cfca20052e4ae7554ebf,6453c927dfb8ae149e5db2ca,2023-05-04_17h03.51.974,ga_syllabified_check,2022.2.5,Win32,29.79205148,,,,,,,,,,,,,,./stim/p05_syllable_1_tuliafo_hit.wav,p05,tuliafo,hit,tu-lai-fo,tu-lia-fo,tu-li-a-fo, ,-0.442708333,-0.111979167,1,0,0,1.2901,text_option_1,,0,88,88,101,1
5f22e7ae938d2d018633624a,63f3cfca20052e4ae7554ebf,6453c927dfb8ae149e5db2ca,2023-05-04_17h03.51.974,ga_syllabified_check,2022.2.5,Win32,29.79205148,,,,,,,,,,,,,,./stim/p07_syllable_1_paluguato_hit.wav,p07,paluguato,hit,pa-lu-gua-to,pa-lu-gua-to,pa-lu-gu-a-to, ,-0.364583333,-0.11328125,1,0,0,2.4802,text_option_1,,0,89,89,163,1
5f22e7ae938d2d018633624a,63f3cfca20052e4ae7554ebf,6453c927dfb8ae149e5db2ca,2023-05-04_17h03.51.974,ga_syllabified_check,2022.2.5,Win32,29.79205148,,,,,,,,,,,,,,./stim/p05_syllable_1_lakapiaisto_hit.wav,p05,lakapiaisto,hit,la-ka-pais-to,la-ka-piais-to,la-ka-pi-ais-to,la-ka-pia-is-to,-0.352864583,-0.11328125,1,0,0,2.9471,text_option_1,,0,90,90,84,1
5f22e7ae938d2d018633624a,63f3cfca20052e4ae7554ebf,6453c927dfb8ae149e5db2ca,2023-05-04_17h03.51.974,ga_syllabified_check,2022.2.5,Win32,29.79205148,,,,,,,,,,,,,,./stim/p08_syllable_1_nhiape_hit.wav,p08,ñiape,hit,ni-a-pe,ñia-pe,ñi-a-pe, ,0.44921875,-0.11328125,1,0,0,1.4954,text_option_2,,0,91,91,193,1
5f22e7ae938d2d018633624a,63f3cfca20052e4ae7554ebf,6453c927dfb8ae149e5db2ca,2023-05-04_17h03.51.974,ga_syllabified_check,2022.2.5,Win32,29.79205148,,,,,,,,,,,,,,./stim/p07_syllable_1_lliape_hit.wav,p07,lliape,hit,lliai-pe,llia-pe,lli-a-pe, ,-0.401041667,-0.1015625,1,0,0,0.8739,text_option_1,,0,92,92,156,1
5f22e7ae938d2d018633624a,63f3cfca20052e4ae7554ebf,6453c927dfb8ae149e5db2ca,2023-05-04_17h03.51.974,ga_syllabified_check,2022.2.5,Win32,29.79205148,,,,,,,,,,,,,,./stim/p06_syllable_1_lakapuaisto_hit.wav,p06,lakapuaisto,hit,la-ka-pu-a-is,la-ka-puais-to,la-ka-pu-ais-to,la-ka-pua-is-to,0.444010417,-0.108072917,1,0,0,7.3412,text_option_2,,0,93,93,119,1
5f22e7ae938d2d018633624a,63f3cfca20052e4ae7554ebf,6453c927dfb8ae149e5db2ca,2023-05-04_17h03.51.974,ga_syllabified_check,2022.2.5,Win32,29.79205148,,,,,,,,,,,,,,./stim/p05_syllable_1_payielo_hit.wav,p05,payielo,hit,pai-yu-we-lo,pa-yie-lo,pa-yi-e-lo, ,-0.397135417,-0.102864583,1,0,0,1.9283,text_option_1,,0,94,94,98,1
5f22e7ae938d2d018633624a,63f3cfca20052e4ae7554ebf,6453c927dfb8ae149e5db2ca,2023-05-04_17h03.51.974,ga_syllabified_check,2022.2.5,Win32,29.79205148,,,,,,,,,,,,,,./stim/p06_syllable_1_payielo_hit.wav,p06,payielo,hit,pa-yi-e-lo,pa-yie-lo,pa-yi-e-lo, ,0.419270833,-0.109375,1,0,0,1.7428,text_option_2,,0,95,95,132,1
5f22e7ae938d2d018633624a,63f3cfca20052e4ae7554ebf,6453c927dfb8ae149e5db2ca,2023-05-04_17h03.51.974,ga_syllabified_check,2022.2.5,Win32,29.79205148,,,,,,,,,,,,,,./stim/p03_syllable_1_lakaguaisto_hit.wav,p03,lakaguaisto,hit,la-ka-guais-to,la-ka-guais-to,la-ka-gu-ais-to,la-ka-gua-is-to,-0.390625,-0.096354167,1,0,0,2.3481,text_option_1,,0,96,96,13,1
5f22e7ae938d2d018633624a,63f3cfca20052e4ae7554ebf,6453c927dfb8ae149e5db2ca,2023-05-04_17h03.51.974,ga_syllabified_check,2022.2.5,Win32,29.79205148,,,,,,,,,,,,,,./stim/p07_syllable_1_palumaisto_hit.wav,p07,palumaisto,hit,pa-lu-mais-to,pa-lu-mais-to,pa-lu-ma-is-to, ,-0.3984375,-0.110677083,1,0,0,2.432,text_option_1,,0,97,97,164,1
5f22e7ae938d2d018633624a,63f3cfca20052e4ae7554ebf,6453c927dfb8ae149e5db2ca,2023-05-04_17h03.51.974,ga_syllabified_check,2022.2.5,Win32,29.79205148,,,,,,,,,,,,,,./stim/p05_syllable_1_lakakiaisto_hit.wav,p05,lakakiaisto,hit,la-ka-ki-ais-to,la-ka-kiais-to,la-ka-ki-ais-to,la-ka-kia-is-to,-0.39453125,-0.111979167,1,0,0,2.0435,text_option_1,,0,98,98,82,1
5f22e7ae938d2d018633624a,63f3cfca20052e4ae7554ebf,6453c927dfb8ae149e5db2ca,2023-05-04_17h03.51.974,ga_syllabified_check,2022.2.5,Win32,29.79205148,,,,,,,,,,,,,,./stim/p08_syllable_1_pachialo_hit.wav,p08,pachialo,hit,pa-chi-ja-lo,pa-chia-lo,pa-chi-a-lo, ,0.384114583,-0.1015625,1,0,0,1.6141,text_option_2,,0,99,99,194,1
5f22e7ae938d2d018633624a,63f3cfca20052e4ae7554ebf,6453c927dfb8ae149e5db2ca,2023-05-04_17h03.51.974,ga_syllabified_check,2022.2.5,Win32,29.79205148,,,,,,,,,,,,,,./stim/p07_syllable_1_mebochiana_hit.wav,p07,mebochiana,hit,me-bo-chia-na,me-bo-chia-na,me-bo-chi-a-na, ,-0.37890625,-0.100260417,1,0,0,2.1026,text_option_1,,0,100,100,158,1
5f22e7ae938d2d018633624a,63f3cfca20052e4ae7554ebf,6453c927dfb8ae149e5db2ca,2023-05-04_17h03.51.974,ga_syllabified_check,2022.2.5,Win32,29.79205148,,,,,,,,,,,,,,./stim/p07_syllable_1_lakakiaisto_hit.wav,p07,lakakiaisto,hit,la-ka-kais-to,la-ka-kiais-to,la-ka-ki-ais-to,la-ka-kia-is-to,-0.39453125,-0.104166667,1,0,0,5.2259,text_option_1,,0,101,101,150,1
5f22e7ae938d2d018633624a,63f3cfca20052e4ae7554ebf,6453c927dfb8ae149e5db2ca,2023-05-04_17h03.51.974,ga_syllabified_check,2022.2.5,Win32,29.79205148,,,,,,,,,,,,,,./stim/p07_syllable_1_lakapiaisto_hit.wav,p07,lakapiaisto,hit,la-ka-pia-sto,la-ka-piais-to,la-ka-pi-ais-to,la-ka-pia-is-to,0.053385417,-0.110677083,1,0,0,3.2791,text_option_3,,0,102,102,152,1
5f22e7ae938d2d018633624a,63f3cfca20052e4ae7554ebf,6453c927dfb8ae149e5db2ca,2023-05-04_17h03.51.974,ga_syllabified_check,2022.2.5,Win32,29.79205148,,,,,,,,,,,,,,./stim/p06_syllable_1_lakafiaisto_hit.wav,p06,lakafiaisto,hit,la-ka-fia-is-to,la-ka-fiais-to,la-ka-fi-ais-to,la-ka-fia-is-to,0.053385417,-0.104166667,1,0,0,3.1493,text_option_3,,0,103,103,112,1
5f22e7ae938d2d018633624a,63f3cfca20052e4ae7554ebf,6453c927dfb8ae149e5db2ca,2023-05-04_17h03.51.974,ga_syllabified_check,2022.2.5,Win32,29.79205148,,,,,,,,,,,,,,./stim/p07_syllable_1_lakapuaisto_hit.wav,p07,lakapuaisto,hit,la-ka-puais-to,la-ka-puais-to,la-ka-pu-ais-to,la-ka-pua-is-to,-0.388020833,-0.098958333,1,0,0,2.7404,text_option_1,,0,104,104,153,1
5f22e7ae938d2d018633624a,63f3cfca20052e4ae7554ebf,6453c927dfb8ae149e5db2ca,2023-05-04_17h03.51.974,ga_syllabified_check,2022.2.5,Win32,29.79205148,,,,,,,,,,,,,,./stim/p07_syllable_1_falufaisto_hit.wav,p07,falufaisto,hit,fa-lu-fais-to,fa-lu-fais-to,fa-lu-fa-is-to, ,-0.388020833,-0.102864583,1,0,0,2.6176,text_option_1,,0,105,105,139,1
5f22e7ae938d2d018633624a,63f3cfca20052e4ae7554ebf,6453c927dfb8ae149e5db2ca,2023-05-04_17h03.51.974,ga_syllabified_check,2022.2.5,Win32,29.79205148,,,,,,,,,,,,,,./stim/p07_syllable_1_lakaguaisto_hit.wav,p07,lakaguaisto,hit,la-ka-guais-to,la-ka-guais-to,la-ka-gu-ais-to,la-ka-gua-is-to,-0.365885417,-0.108072917,1,0,0,2.3737,text_option_1,,0,106,106,149,1
5f22e7ae938d2d018633624a,63f3cfca20052e4ae7554ebf,6453c927dfb8ae149e5db2ca,2023-05-04_17h03.51.974,ga_syllabified_check,2022.2.5,Win32,29.79205148,,,,,,,,,,,,,,./stim/p03_syllable_1_faluduako_hit.wav,p03,faluduako,hit,fa-lu-dua-ko,fa-lu-dua-ko,fa-lu-du-a-ko, ,-0.37109375,-0.111979167,1,0,0,1.6247,text_option_1,,0,107,107,2,1
5f22e7ae938d2d018633624a,63f3cfca20052e4ae7554ebf,6453c927dfb8ae149e5db2ca,2023-05-04_17h03.51.974,ga_syllabified_check,2022.2.5,Win32,29.79205148,,,,,,,,,,,,,,./stim/p08_syllable_1_lakadiaisto_hit.wav,p08,lakadiaisto,hit,la-ka-di-jas-to,la-ka-diais-to,la-ka-di-ais-to,la-ka-dia-is-to,0.466145833,-0.108072917,1,0,0,4.474,text_option_2,,0,108,108,178,1
5f22e7ae938d2d018633624a,63f3cfca20052e4ae7554ebf,6453c927dfb8ae149e5db2ca,2023-05-04_17h03.51.974,ga_syllabified_check,2022.2.5,Win32,29.79205148,,,,,,,,,,,,,,./stim/p04_syllable_1_falufaisto_hit.wav,p04,falufaisto,hit,fa-lu-fais-to,fa-lu-fais-to,fa-lu-fa-is-to, ,-0.4140625,-0.091145833,1,0,0,2.6608,text_option_1,,0,109,109,37,1
5f22e7ae938d2d018633624a,63f3cfca20052e4ae7554ebf,6453c927dfb8ae149e5db2ca,2023-05-04_17h03.51.974,ga_syllabified_check,2022.2.5,Win32,29.79205148,,,,,,,,,,,,,,./stim/p05_syllable_1_lakapuaisto_hit.wav,p05,lakapuaisto,hit,la-ka-pais-to,la-ka-puais-to,la-ka-pu-ais-to,la-ka-pua-is-to,-0.389322917,-0.108072917,1,0,0,3.5568,text_option_1,,0,110,110,85,1
5f22e7ae938d2d018633624a,63f3cfca20052e4ae7554ebf,6453c927dfb8ae149e5db2ca,2023-05-04_17h03.51.974,ga_syllabified_check,2022.2.5,Win32,29.79205148,,,,,,,,,,,,,,./stim/p07_syllable_1_lakafuaisto_hit.wav,p07,lakafuaisto,hit,la-ka-fuais-to,la-ka-fuais-to,la-ka-fu-ais-to,la-ka-fua-is-to,-0.352864583,-0.10546875,1,0,0,2.1012,text_option_1,,0,111,111,147,1
5f22e7ae938d2d018633624a,63f3cfca20052e4ae7554ebf,6453c927dfb8ae149e5db2ca,2023-05-04_17h03.51.974,ga_syllabified_check,2022.2.5,Win32,29.79205148,,,,,,,,,,,,,,./stim/p04_syllable_1_lakatuaisto_hit.wav,p04,lakatuaisto,hit,la-ka-kuais-to,la-ka-tuais-to,la-ka-tu-ais-to,la-ka-tua-is-to,-0.360677083,-0.108072917,1,0,0,3.8266,text_option_1,,0,112,112,53,1
5f22e7ae938d2d018633624a,63f3cfca20052e4ae7554ebf,6453c927dfb8ae149e5db2ca,2023-05-04_17h03.51.974,ga_syllabified_check,2022.2.5,Win32,29.79205148,,,,,,,,,,,,,,./stim/p04_syllable_1_lakafuaisto_hit.wav,p04,lakafuaisto,hit,la-ka-fuais-to,la-ka-fuais-to,la-ka-fu-ais-to,la-ka-fua-is-to,-0.3515625,-0.106770833,1,0,0,2.1515,text_option_1,,0,113,113,45,1
5f22e7ae938d2d018633624a,63f3cfca20052e4ae7554ebf,6453c927dfb8ae149e5db2ca,2023-05-04_17h03.51.974,ga_syllabified_check,2022.2.5,Win32,29.79205148,,,,,,,,,,,,,,./stim/p08_syllable_1_faluduako_hit.wav,p08,faluduako,hit,fa-lu-duai-ko,fa-lu-dua-ko,fa-lu-du-a-ko, ,0.4453125,-0.119791667,1,0,0,6.6073,text_option_2,,0,114,114,172,1
5f22e7ae938d2d018633624a,63f3cfca20052e4ae7554ebf,6453c927dfb8ae149e5db2ca,2023-05-04_17h03.51.974,ga_syllabified_check,2022.2.5,Win32,29.79205148,,,,,,,,,,,,,,./stim/p08_syllable_1_lakapiaisto_hit.wav,p08,lakapiaisto,hit,la-ka-pi-as-to,la-ka-piais-to,la-ka-pi-ais-to,la-ka-pia-is-to,0.04296875,-0.1015625,1,0,0,2.5096,text_option_3,,0,115,115,186,1
5f22e7ae938d2d018633624a,63f3cfca20052e4ae7554ebf,6453c927dfb8ae149e5db2ca,2023-05-04_17h03.51.974,ga_syllabified_check,2022.2.5,Win32,29.79205148,,,,,,,,,,,,,,./stim/p07_syllable_1_pachialo_hit.wav,p07,pachialo,hit,pa-cha-lo,pa-chia-lo,pa-chi-a-lo, ,-0.337239583,-0.098958333,1,0,0,4.5284,text_option_1,,0,116,116,160,1
5f22e7ae938d2d018633624a,63f3cfca20052e4ae7554ebf,6453c927dfb8ae149e5db2ca,2023-05-04_17h03.51.974,ga_syllabified_check,2022.2.5,Win32,29.79205148,,,,,,,,,,,,,,./stim/p03_syllable_1_lakapuaisto_hit.wav,p03,lakapuaisto,hit,la-ka-puais-to,la-ka-puais-to,la-ka-pu-ais-to,la-ka-pua-is-to,-0.401041667,-0.111979167,1,0,0,2.385,text_option_1,,0,117,117,17,1
5f22e7ae938d2d018633624a,63f3cfca20052e4ae7554ebf,6453c927dfb8ae149e5db2ca,2023-05-04_17h03.51.974,ga_syllabified_check,2022.2.5,Win32,29.79205148,,,,,,,,,,,,,,./stim/p08_syllable_1_palutrauco_hit.wav,p08,palutrauco,hit,pa-lu-trau-ko,pa-lu-trau-co,pa-lu-tra-u-co, ,-0.388020833,-0.111979167,1,0,0,2.4179,text_option_1,,0,118,118,199,1
5f22e7ae938d2d018633624a,63f3cfca20052e4ae7554ebf,6453c927dfb8ae149e5db2ca,2023-05-04_17h03.51.974,ga_syllabified_check,2022.2.5,Win32,29.79205148,,,,,,,,,,,,,,./stim/p05_syllable_1_lakabuaisto_hit.wav,p05,lakabuaisto,hit,la-ka-buais-to,la-ka-buais-to,la-ka-bu-ais-to,la-ka-bua-is-to,-0.3828125,-0.111979167,1,0,0,1.4622,text_option_1,,0,119,119,75,1
5f22e7ae938d2d018633624a,63f3cfca20052e4ae7554ebf,6453c927dfb8ae149e5db2ca,2023-05-04_17h03.51.974,ga_syllabified_check,2022.2.5,Win32,29.79205148,,,,,,,,,,,,,,./stim/p07_syllable_1_lakafiaisto_hit.wav,p07,lakafiaisto,hit,la-ka-fiais-to,la-ka-fiais-to,la-ka-fi-ais-to,la-ka-fia-is-to,-0.3828125,-0.111979167,1,0,0,1.4036,text_option_1,,0,120,120,146,1
5f22e7ae938d2d018633624a,63f3cfca20052e4ae7554ebf,6453c927dfb8ae149e5db2ca,2023-05-04_17h03.51.974,ga_syllabified_check,2022.2.5,Win32,29.79205148,,,,,,,,,,,,,,./stim/p04_syllable_1_lliape_hit.wav,p04,lliape,hit,lia-pe,llia-pe,lli-a-pe, ,-0.381510417,-0.111979167,1,0,0,0.7296,text_option_1,,0,121,121,54,1
5f22e7ae938d2d018633624a,63f3cfca20052e4ae7554ebf,6453c927dfb8ae149e5db2ca,2023-05-04_17h03.51.974,ga_syllabified_check,2022.2.5,Win32,29.79205148,,,,,,,,,,,,,,./stim/p03_syllable_1_lakabuaisto_hit.wav,p03,lakabuaisto,hit,la-ka-buais-to,la-ka-buais-to,la-ka-bu-ais-to,la-ka-bua-is-to,-0.381510417,-0.111979167,1,0,0,3.1539,text_option_1,,0,122,122,7,1
5f22e7ae938d2d018633624a,63f3cfca20052e4ae7554ebf,6453c927dfb8ae149e5db2ca,2023-05-04_17h03.51.974,ga_syllabified_check,2022.2.5,Win32,29.79205148,,,,,,,,,,,,,,./stim/p06_syllable_1_lakafuaisto_hit.wav,p06,lakafuaisto,hit,la-ka-fu-a-is,la-ka-fuais-to,la-ka-fu-ais-to,la-ka-fua-is-to,0.006510417,-0.28125,1,0,0,7.3039,text_option_other,la-ka-fu-a-is-to,0,123,123,113,1
5f22e7ae938d2d018633624a,63f3cfca20052e4ae7554ebf,6453c927dfb8ae149e5db2ca,2023-05-04_17h03.51.974,ga_syllabified_check,2022.2.5,Win32,29.79205148,,,,,,,,,,,,,,./stim/p08_syllable_1_mebochiana_hit.wav,p08,mebochiana,hit,me-bo-chi-a-na,me-bo-chia-na,me-bo-chi-a-na, ,0.420572917,-0.09765625,1,0,0,2.3966,text_option_2,,0,124,124,192,1
5f22e7ae938d2d018633624a,63f3cfca20052e4ae7554ebf,6453c927dfb8ae149e5db2ca,2023-05-04_17h03.51.974,ga_syllabified_check,2022.2.5,Win32,29.79205148,,,,,,,,,,,,,,./stim/p04_syllable_1_lakapiaisto_hit.wav,p04,lakapiaisto,hit,la-ka-piais-to,la-ka-piais-to,la-ka-pi-ais-to,la-ka-pia-is-to,-0.380208333,-0.1015625,1,0,0,4.578,text_option_1,,0,125,125,50,1
5f22e7ae938d2d018633624a,63f3cfca20052e4ae7554ebf,6453c927dfb8ae149e5db2ca,2023-05-04_17h03.51.974,ga_syllabified_check,2022.2.5,Win32,29.79205148,,,,,,,,,,,,,,./stim/p03_syllable_1_lakatiaisto_hit.wav,p03,lakatiaisto,hit,la-ka-tiais-to,la-ka-tiais-to,la-ka-ti-ais-to,la-ka-tia-is-to,-0.39453125,-0.11328125,1,0,0,1.7946,text_option_1,,0,126,126,18,1
5f22e7ae938d2d018633624a,63f3cfca20052e4ae7554ebf,6453c927dfb8ae149e5db2ca,2023-05-04_17h03.51.974,ga_syllabified_check,2022.2.5,Win32,29.79205148,,,,,,,,,,,,,,./stim/p07_syllable_1_costonhialo_hit.wav,p07,costoñialo,hit,cos-to-nhia-lo,cos-to-ñia-lo,cos-to-ñi-a-lo, ,-0.385416667,-0.104166667,1,0,0,2.0094,text_option_1,,0,127,127,137,1
5f22e7ae938d2d018633624a,63f3cfca20052e4ae7554ebf,6453c927dfb8ae149e5db2ca,2023-05-04_17h03.51.974,ga_syllabified_check,2022.2.5,Win32,29.79205148,,,,,,,,,,,,,,./stim/p06_syllable_1_lakaguaisto_hit.wav,p06,lakaguaisto,hit,la-ka-gu-a-is,la-ka-guais-to,la-ka-gu-ais-to,la-ka-gua-is-to,0.061197917,-0.119791667,1,0,0,5.5104,text_option_3,,0,128,128,115,1
5f22e7ae938d2d018633624a,63f3cfca20052e4ae7554ebf,6453c927dfb8ae149e5db2ca,2023-05-04_17h03.51.974,ga_syllabified_check,2022.2.5,Win32,29.79205148,,,,,,,,,,,,,,./stim/p08_syllable_1_chiaba_hit.wav,p08,chiaba,hit,chi-a-ba,chia-ba,chi-a-ba, ,-0.393229167,-0.108072917,1,0,0,1.2697,text_option_1,,0,129,129,170,1
5f22e7ae938d2d018633624a,63f3cfca20052e4ae7554ebf,6453c927dfb8ae149e5db2ca,2023-05-04_17h03.51.974,ga_syllabified_check,2022.2.5,Win32,29.79205148,,,,,,,,,,,,,,./stim/p03_syllable_1_lakafiaisto_hit.wav,p03,lakafiaisto,hit,la-ka-fiais-to,la-ka-fiais-to,la-ka-fi-ais-to,la-ka-fia-is-to,-0.44140625,-0.104166667,1,0,0,1.5308,text_option_1,,0,130,130,10,1
5f22e7ae938d2d018633624a,63f3cfca20052e4ae7554ebf,6453c927dfb8ae149e5db2ca,2023-05-04_17h03.51.974,ga_syllabified_check,2022.2.5,Win32,29.79205148,,,,,,,,,,,,,,./stim/p06_syllable_1_palufauro_hit.wav,p06,palufauro,hit,pa-lu-fau-ro,pa-lu-fau-ro,pa-lu-fa-u-ro, ,0.3125,-0.09765625,1,0,0,4.4028,text_option_2,,0,131,131,127,1
5f22e7ae938d2d018633624a,63f3cfca20052e4ae7554ebf,6453c927dfb8ae149e5db2ca,2023-05-04_17h03.51.974,ga_syllabified_check,2022.2.5,Win32,29.79205148,,,,,,,,,,,,,,./stim/p06_syllable_1_lliape_hit.wav,p06,lliape,hit,lli-lla-pe,llia-pe,lli-a-pe, ,0.427083333,-0.109375,1,0,0,1.1565,text_option_2,,0,132,132,122,1
5f22e7ae938d2d018633624a,63f3cfca20052e4ae7554ebf,6453c927dfb8ae149e5db2ca,2023-05-04_17h03.51.974,ga_syllabified_check,2022.2.5,Win32,29.79205148,,,,,,,,,,,,,,./stim/p07_syllable_1_lakakuaisto_hit.wav,p07,lakakuaisto,hit,la-ka-kuais-to,la-ka-kuais-to,la-ka-ku-ais-to,la-ka-kua-is-to,-0.39453125,-0.092447917,1,0,0,2.4428,text_option_1,,0,133,133,151,1
5f22e7ae938d2d018633624a,63f3cfca20052e4ae7554ebf,6453c927dfb8ae149e5db2ca,2023-05-04_17h03.51.974,ga_syllabified_check,2022.2.5,Win32,29.79205148,,,,,,,,,,,,,,./stim/p06_syllable_1_lakatiaisto_hit.wav,p06,lakatiaisto,hit,la-ka-pia-is-to,la-ka-tiais-to,la-ka-ti-ais-to,la-ka-tia-is-to,0.0546875,-0.110677083,1,0,0,3.4542,text_option_3,,0,134,134,120,1
5f22e7ae938d2d018633624a,63f3cfca20052e4ae7554ebf,6453c927dfb8ae149e5db2ca,2023-05-04_17h03.51.974,ga_syllabified_check,2022.2.5,Win32,29.79205148,,,,,,,,,,,,,,./stim/p06_syllable_1_mebochiana_hit.wav,p06,mebochiana,hit,me-bo-shi-a-na,me-bo-chia-na,me-bo-chi-a-na, ,0.3515625,-0.1171875,1,0,0,3.1136,text_option_2,,0,135,135,124,1
5f22e7ae938d2d018633624a,63f3cfca20052e4ae7554ebf,6453c927dfb8ae149e5db2ca,2023-05-04_17h03.51.974,ga_syllabified_check,2022.2.5,Win32,29.79205148,,,,,,,,,,,,,,./stim/p07_syllable_1_lakagiaisto_hit.wav,p07,lakagiaisto,hit,la-ka-gais-to,la-ka-giais-to,la-ka-gi-ais-to,la-ka-gia-is-to,-0.408854167,-0.111979167,1,0,0,3.8624,text_option_1,,0,136,136,148,1
5f22e7ae938d2d018633624a,63f3cfca20052e4ae7554ebf,6453c927dfb8ae149e5db2ca,2023-05-04_17h03.51.974,ga_syllabified_check,2022.2.5,Win32,29.79205148,,,,,,,,,,,,,,./stim/p07_syllable_1_palufauro_hit.wav,p07,palufauro,hit,pa-lu-fau-ro,pa-lu-fau-ro,pa-lu-fa-u-ro, ,-0.416666667,-0.09375,1,0,0,2.0523,text_option_1,,0,137,137,161,1
5f22e7ae938d2d018633624a,63f3cfca20052e4ae7554ebf,6453c927dfb8ae149e5db2ca,2023-05-04_17h03.51.974,ga_syllabified_check,2022.2.5,Win32,29.79205148,,,,,,,,,,,,,,./stim/p04_syllable_1_rausto_hit.wav,p04,rausto,hit,raus-to,raus-to,ra-us-to, ,-0.359375,-0.106770833,1,0,0,0.9426,text_option_1,,0,138,138,65,1
5f22e7ae938d2d018633624a,63f3cfca20052e4ae7554ebf,6453c927dfb8ae149e5db2ca,2023-05-04_17h03.51.974,ga_syllabified_check,2022.2.5,Win32,29.79205148,,,,,,,,,,,,,,./stim/p03_syllable_1_palutrauco_hit.wav,p03,palutrauco,hit,pa-lu-trau-co,pa-lu-trau-co,pa-lu-tra-u-co, ,-0.317708333,-0.111979167,1,0,0,1.0828,text_option_1,,0,139,139,29,1
5f22e7ae938d2d018633624a,63f3cfca20052e4ae7554ebf,6453c927dfb8ae149e5db2ca,2023-05-04_17h03.51.974,ga_syllabified_check,2022.2.5,Win32,29.79205148,,,,,,,,,,,,,,./stim/p03_syllable_1_lakafuaisto_hit.wav,p03,lakafuaisto,hit,la-ka-fuais-to,la-ka-fuais-to,la-ka-fu-ais-to,la-ka-fua-is-to,-0.33203125,-0.114583333,1,0,0,1.4232,text_option_1,,0,140,140,11,1
5f22e7ae938d2d018633624a,63f3cfca20052e4ae7554ebf,6453c927dfb8ae149e5db2ca,2023-05-04_17h03.51.974,ga_syllabified_check,2022.2.5,Win32,29.79205148,,,,,,,,,,,,,,./stim/p03_syllable_1_ruyiola_hit.wav,p03,ruyiola,hit,ru-yio-la,ru-yio-la,ru-yi-o-la, ,-0.35546875,-0.100260417,1,0,0,1.135,text_option_1,,0,141,141,32,1
5f22e7ae938d2d018633624a,63f3cfca20052e4ae7554ebf,6453c927dfb8ae149e5db2ca,2023-05-04_17h03.51.974,ga_syllabified_check,2022.2.5,Win32,29.79205148,,,,,,,,,,,,,,./stim/p06_syllable_1_nhiape_hit.wav,p06,ñiape,hit,nhi-a-pe,ñia-pe,ñi-a-pe, ,0.408854167,-0.104166667,1,0,0,1.4125,text_option_2,,0,142,142,125,1
5f22e7ae938d2d018633624a,63f3cfca20052e4ae7554ebf,6453c927dfb8ae149e5db2ca,2023-05-04_17h03.51.974,ga_syllabified_check,2022.2.5,Win32,29.79205148,,,,,,,,,,,,,,./stim/p04_syllable_1_lakadiaisto_hit.wav,p04,lakadiaisto,hit,la-ka-dias-to,la-ka-diais-to,la-ka-di-ais-to,la-ka-dia-is-to,-0.346354167,-0.095052083,1,0,0,1.61,text_option_1,,0,143,143,42,1
5f22e7ae938d2d018633624a,63f3cfca20052e4ae7554ebf,6453c927dfb8ae149e5db2ca,2023-05-04_17h03.51.974,ga_syllabified_check,2022.2.5,Win32,29.79205148,,,,,,,,,,,,,,./stim/p06_syllable_1_lakadiaisto_hit.wav,p06,lakadiaisto,hit,la-ka-dia-is-to,la-ka-diais-to,la-ka-di-ais-to,la-ka-dia-is-to,0.053385417,-0.10546875,1,0,0,2.9447,text_option_3,,0,144,144,110,1
5f22e7ae938d2d018633624a,63f3cfca20052e4ae7554ebf,6453c927dfb8ae149e5db2ca,2023-05-04_17h03.51.974,ga_syllabified_check,2022.2.5,Win32,29.79205148,,,,,,,,,,,,,,./stim/p05_syllable_1_palutrauco_hit.wav,p05,palutrauco,hit,pa-lu-trai-co,pa-lu-trau-co,pa-lu-tra-u-co, ,-0.3828125,-0.110677083,1,0,0,2.6279,text_option_1,,0,145,145,97,1
5f22e7ae938d2d018633624a,63f3cfca20052e4ae7554ebf,6453c927dfb8ae149e5db2ca,2023-05-04_17h03.51.974,ga_syllabified_check,2022.2.5,Win32,29.79205148,,,,,,,,,,,,,,./stim/p07_syllable_1_rausto_hit.wav,p07,rausto,hit,raus-to,raus-to,ra-us-to, ,-0.41796875,-0.11328125,1,0,0,1.1697,text_option_1,,0,146,146,167,1
5f22e7ae938d2d018633624a,63f3cfca20052e4ae7554ebf,6453c927dfb8ae149e5db2ca,2023-05-04_17h03.51.974,ga_syllabified_check,2022.2.5,Win32,29.79205148,,,,,,,,,,,,,,./stim/p05_syllable_1_lakaduaisto_hit.wav,p05,lakaduaisto,hit,la-ka-dais-to,la-ka-duais-to,la-ka-du-ais-to,la-ka-dua-is-to,-0.368489583,-0.110677083,1,0,0,4.5754,text_option_1,,0,147,147,77,1
5f22e7ae938d2d018633624a,63f3cfca20052e4ae7554ebf,6453c927dfb8ae149e5db2ca,2023-05-04_17h03.51.974,ga_syllabified_check,2022.2.5,Win32,29.79205148,,,,,,,,,,,,,,./stim/p05_syllable_1_chiaba_hit.wav,p05,chiaba,hit,chia-ba,chia-ba,chi-a-ba, ,0.427083333,-0.12109375,1,0,0,2.8684,text_option_2,,0,148,148,68,1
5f22e7ae938d2d018633624a,63f3cfca20052e4ae7554ebf,6453c927dfb8ae149e5db2ca,2023-05-04_17h03.51.974,ga_syllabified_check,2022.2.5,Win32,29.79205148,,,,,,,,,,,,,,./stim/p07_syllable_1_faluduako_hit.wav,p07,faluduako,hit,fa-lu-dua-ko,fa-lu-dua-ko,fa-lu-du-a-ko, ,-0.440104167,-0.10546875,1,0,0,2.154,text_option_1,,0,149,149,138,1
5f22e7ae938d2d018633624a,63f3cfca20052e4ae7554ebf,6453c927dfb8ae149e5db2ca,2023-05-04_17h03.51.974,ga_syllabified_check,2022.2.5,Win32,29.79205148,,,,,,,,,,,,,,./stim/p04_syllable_1_falutraigo_hit.wav,p04,falutraigo,hit,fa-lu-trai-go,fa-lu-trai-go,fa-lu-tra-i-go, ,-0.381510417,-0.10546875,1,0,0,6.0287,text_option_1,,0,150,150,38,1
5f22e7ae938d2d018633624a,63f3cfca20052e4ae7554ebf,6453c927dfb8ae149e5db2ca,2023-05-04_17h03.51.974,ga_syllabified_check,2022.2.5,Win32,29.79205148,,,,,,,,,,,,,,./stim/p07_syllable_1_palutrauco_hit.wav,p07,palutrauco,hit,pa-lu-trau-co,pa-lu-trau-co,pa-lu-tra-u-co, ,-0.329427083,-0.108072917,1,0,0,1.3504,text_option_1,,0,151,151,165,1
5f22e7ae938d2d018633624a,63f3cfca20052e4ae7554ebf,6453c927dfb8ae149e5db2ca,2023-05-04_17h03.51.974,ga_syllabified_check,2022.2.5,Win32,29.79205148,,,,,,,,,,,,,,./stim/p03_syllable_1_tuliafo_hit.wav,p03,tuliafo,hit,tu-lia-fo,tu-lia-fo,tu-li-a-fo, ,-0.375,-0.11328125,1,0,0,1.0208,text_option_1,,0,152,152,33,1
5f22e7ae938d2d018633624a,63f3cfca20052e4ae7554ebf,6453c927dfb8ae149e5db2ca,2023-05-04_17h03.51.974,ga_syllabified_check,2022.2.5,Win32,29.79205148,,,,,,,,,,,,,,./stim/p06_syllable_1_lakakiaisto_hit.wav,p06,lakakiaisto,hit,la-ka-kia-is-to,la-ka-kiais-to,la-ka-ki-ais-to,la-ka-kia-is-to,0.029947917,-0.114583333,1,0,0,4.1431,text_option_3,,0,153,153,116,1
5f22e7ae938d2d018633624a,63f3cfca20052e4ae7554ebf,6453c927dfb8ae149e5db2ca,2023-05-04_17h03.51.974,ga_syllabified_check,2022.2.5,Win32,29.79205148,,,,,,,,,,,,,,./stim/p06_syllable_1_palufauto_hit.wav,p06,palufauto,hit,pa-lu-fau-to,pa-lu-fau-to,pa-lu-fa-u-to, ,-0.360677083,-0.109375,1,0,0,2.9887,text_option_1,,0,154,154,128,1
5f22e7ae938d2d018633624a,63f3cfca20052e4ae7554ebf,6453c927dfb8ae149e5db2ca,2023-05-04_17h03.51.974,ga_syllabified_check,2022.2.5,Win32,29.79205148,,,,,,,,,,,,,,./stim/p08_syllable_1_costonhialo_hit.wav,p08,costoñialo,hit,cos-to-nhia-lo,cos-to-ñia-lo,cos-to-ñi-a-lo, ,-0.361979167,-0.10546875,1,0,0,3.0536,text_option_1,,0,155,155,171,1
5f22e7ae938d2d018633624a,63f3cfca20052e4ae7554ebf,6453c927dfb8ae149e5db2ca,2023-05-04_17h03.51.974,ga_syllabified_check,2022.2.5,Win32,29.79205148,,,,,,,,,,,,,,./stim/p08_syllable_1_lakaduaisto_hit.wav,p08,lakaduaisto,hit,la-ka-du-ais-to,la-ka-duais-to,la-ka-du-ais-to,la-ka-dua-is-to,0.436197917,-0.106770833,1,0,0,4.8353,text_option_2,,0,156,156,179,1
5f22e7ae938d2d018633624a,63f3cfca20052e4ae7554ebf,6453c927dfb8ae149e5db2ca,2023-05-04_17h03.51.974,ga_syllabified_check,2022.2.5,Win32,29.79205148,,,,,,,,,,,,,,./stim/p06_syllable_1_ruyiola_hit.wav,p06,ruyiola,hit,ru-yi-o-la,ru-yio-la,ru-yi-o-la, ,0.423177083,-0.114583333,1,0,0,1.6496,text_option_2,,0,157,157,134,1
5f22e7ae938d2d018633624a,63f3cfca20052e4ae7554ebf,6453c927dfb8ae149e5db2ca,2023-05-04_17h03.51.974,ga_syllabified_check,2022.2.5,Win32,29.79205148,,,,,,,,,,,,,,./stim/p03_syllable_1_lakapiaisto_hit.wav,p03,lakapiaisto,hit,la-ka-piais-to,la-ka-piais-to,la-ka-pi-ais-to,la-ka-pia-is-to,-0.375,-0.109375,1,0,0,3.3912,text_option_1,,0,158,158,16,1
5f22e7ae938d2d018633624a,63f3cfca20052e4ae7554ebf,6453c927dfb8ae149e5db2ca,2023-05-04_17h03.51.974,ga_syllabified_check,2022.2.5,Win32,29.79205148,,,,,,,,,,,,,,./stim/p08_syllable_1_manhiala_hit.wav,p08,mañiala,hit,ma-nhia-la,ma-ñia-la,ma-ñi-a-la, ,-0.33984375,-0.115885417,1,0,0,1.7473,text_option_1,,0,159,159,191,1
5f22e7ae938d2d018633624a,63f3cfca20052e4ae7554ebf,6453c927dfb8ae149e5db2ca,2023-05-04_17h03.51.974,ga_syllabified_check,2022.2.5,Win32,29.79205148,,,,,,,,,,,,,,./stim/p04_syllable_1_palufauro_hit.wav,p04,palufauro,hit,pa-lu-fau-ro,pa-lu-fau-ro,pa-lu-fa-u-ro, ,-0.388020833,-0.11328125,1,0,0,1.9167,text_option_1,,0,160,160,59,1
5f22e7ae938d2d018633624a,63f3cfca20052e4ae7554ebf,6453c927dfb8ae149e5db2ca,2023-05-04_17h03.51.974,ga_syllabified_check,2022.2.5,Win32,29.79205148,,,,,,,,,,,,,,./stim/p06_syllable_1_falufaisto_hit.wav,p06,falufaisto,hit,fa-lu-fa-is-to,fa-lu-fais-to,fa-lu-fa-is-to, ,0.372395833,-0.106770833,1,0,0,2.729,text_option_2,,0,161,161,105,1
5f22e7ae938d2d018633624a,63f3cfca20052e4ae7554ebf,6453c927dfb8ae149e5db2ca,2023-05-04_17h03.51.974,ga_syllabified_check,2022.2.5,Win32,29.79205148,,,,,,,,,,,,,,./stim/p05_syllable_1_falutraigo_hit.wav,p05,falutraigo,hit,fa-lu-trai-go,fa-lu-trai-go,fa-lu-tra-i-go, ,0.458333333,-0.110677083,1,0,0,4.0726,text_option_2,,0,162,162,72,1
5f22e7ae938d2d018633624a,63f3cfca20052e4ae7554ebf,6453c927dfb8ae149e5db2ca,2023-05-04_17h03.51.974,ga_syllabified_check,2022.2.5,Win32,29.79205148,,,,,,,,,,,,,,./stim/p08_syllable_1_lakabuaisto_hit.wav,p08,lakabuaisto,hit,la-ka-bu-ais-to,la-ka-buais-to,la-ka-bu-ais-to,la-ka-bua-is-to,-0.34375,-0.10546875,1,0,0,3.1445,text_option_1,,0,163,163,177,1
5f22e7ae938d2d018633624a,63f3cfca20052e4ae7554ebf,6453c927dfb8ae149e5db2ca,2023-05-04_17h03.51.974,ga_syllabified_check,2022.2.5,Win32,29.79205148,,,,,,,,,,,,,,./stim/p05_syllable_1_rausto_hit.wav,p05,rausto,hit,raus-to,raus-to,ra-us-to, ,-0.348958333,-0.106770833,1,0,0,0.6207,text_option_1,,0,164,164,99,1
5f22e7ae938d2d018633624a,63f3cfca20052e4ae7554ebf,6453c927dfb8ae149e5db2ca,2023-05-04_17h03.51.974,ga_syllabified_check,2022.2.5,Win32,29.79205148,,,,,,,,,,,,,,./stim/p04_syllable_1_palumaisto_hit.wav,p04,palumaisto,hit,pa-lu-mais-to,pa-lu-mais-to,pa-lu-ma-is-to, ,-0.3046875,-0.1015625,1,0,0,0.9511,text_option_1,,0,165,165,62,1
5f22e7ae938d2d018633624a,63f3cfca20052e4ae7554ebf,6453c927dfb8ae149e5db2ca,2023-05-04_17h03.51.974,ga_syllabified_check,2022.2.5,Win32,29.79205148,,,,,,,,,,,,,,./stim/p04_syllable_1_lakabiaisto_hit.wav,p04,lakabiaisto,hit,la-ka-biais-to,la-ka-biais-to,la-ka-bi-ais-to,la-ka-bia-is-to,-0.3046875,-0.114583333,1,0,0,1.0418,text_option_1,,0,166,166,40,1
5f22e7ae938d2d018633624a,63f3cfca20052e4ae7554ebf,6453c927dfb8ae149e5db2ca,2023-05-04_17h03.51.974,ga_syllabified_check,2022.2.5,Win32,29.79205148,,,,,,,,,,,,,,./stim/p08_syllable_1_ruyiola_hit.wav,p08,ruyiola,hit,ru-yio-la,ru-yio-la,ru-yi-o-la, ,-0.415364583,-0.110677083,1,0,0,2.9057,text_option_1,,0,167,167,202,1
5f22e7ae938d2d018633624a,63f3cfca20052e4ae7554ebf,6453c927dfb8ae149e5db2ca,2023-05-04_17h03.51.974,ga_syllabified_check,2022.2.5,Win32,29.79205148,,,,,,,,,,,,,,./stim/p05_syllable_1_palumaisto_hit.wav,p05,palumaisto,hit,pa-lu-mais-to,pa-lu-mais-to,pa-lu-ma-is-to, ,-0.408854167,-0.119791667,1,0,0,1.9156,text_option_1,,0,168,168,96,1
5f22e7ae938d2d018633624a,63f3cfca20052e4ae7554ebf,6453c927dfb8ae149e5db2ca,2023-05-04_17h03.51.974,ga_syllabified_check,2022.2.5,Win32,29.79205148,,,,,,,,,,,,,,./stim/p08_syllable_1_tuliafo_hit.wav,p08,tuliafo,hit,tu-li-a-fo,tu-lia-fo,tu-li-a-fo, ,0.416666667,-0.104166667,1,0,0,1.6986,text_option_2,,0,169,169,203,1
5f22e7ae938d2d018633624a,63f3cfca20052e4ae7554ebf,6453c927dfb8ae149e5db2ca,2023-05-04_17h03.51.974,ga_syllabified_check,2022.2.5,Win32,29.79205148,,,,,,,,,,,,,,./stim/p04_syllable_1_pachialo_hit.wav,p04,pachialo,hit,pa-chia-lo,pa-chia-lo,pa-chi-a-lo, ,-0.397135417,-0.108072917,1,0,0,1.8451,text_option_1,,0,170,170,58,1
5f22e7ae938d2d018633624a,63f3cfca20052e4ae7554ebf,6453c927dfb8ae149e5db2ca,2023-05-04_17h03.51.974,ga_syllabified_check,2022.2.5,Win32,29.79205148,,,,,,,,,,,,,,./stim/p05_syllable_1_ruyiola_hit.wav,p05,ruyiola,hit,ru-yio-la,ru-yio-la,ru-yi-o-la, ,-0.389322917,-0.100260417,1,0,0,1.7811,text_option_1,,0,171,171,100,1
5f22e7ae938d2d018633624a,63f3cfca20052e4ae7554ebf,6453c927dfb8ae149e5db2ca,2023-05-04_17h03.51.974,ga_syllabified_check,2022.2.5,Win32,29.79205148,,,,,,,,,,,,,,./stim/p03_syllable_1_lakatuaisto_hit.wav,p03,lakatuaisto,hit,la-ka-tuais-to,la-ka-tuais-to,la-ka-tu-ais-to,la-ka-tua-is-to,-0.4296875,-0.096354167,1,0,0,1.6351,text_option_1,,0,172,172,19,1
5f22e7ae938d2d018633624a,63f3cfca20052e4ae7554ebf,6453c927dfb8ae149e5db2ca,2023-05-04_17h03.51.974,ga_syllabified_check,2022.2.5,Win32,29.79205148,,,,,,,,,,,,,,./stim/p08_syllable_1_flauro_hit.wav,p08,flauro,hit,flau-ro,flau-ro,fla-u-ro, ,-0.381510417,-0.12109375,1,0,0,0.6374,text_option_1,,0,173,173,175,1
5f22e7ae938d2d018633624a,63f3cfca20052e4ae7554ebf,6453c927dfb8ae149e5db2ca,2023-05-04_17h03.51.974,ga_syllabified_check,2022.2.5,Win32,29.79205148,,,,,,,,,,,,,,./stim/p05_syllable_1_lakagiaisto_hit.wav,p05,lakagiaisto,hit,la-ka-ki-ais-to,la-ka-giais-to,la-ka-gi-ais-to,la-ka-gia-is-to,0.3984375,-0.102864583,1,0,0,4.5409,text_option_2,,0,174,174,80,1
5f22e7ae938d2d018633624a,63f3cfca20052e4ae7554ebf,6453c927dfb8ae149e5db2ca,2023-05-04_17h03.51.974,ga_syllabified_check,2022.2.5,Win32,29.79205148,,,,,,,,,,,,,,./stim/p04_syllable_1_lakagiaisto_hit.wav,p04,lakagiaisto,hit,la-ka-giais-to,la-ka-giais-to,la-ka-gi-ais-to,la-ka-gia-is-to,-0.401041667,-0.109375,1,0,0,4.1694,text_option_1,,0,175,175,46,1
5f22e7ae938d2d018633624a,63f3cfca20052e4ae7554ebf,6453c927dfb8ae149e5db2ca,2023-05-04_17h03.51.974,ga_syllabified_check,2022.2.5,Win32,29.79205148,,,,,,,,,,,,,,./stim/p03_syllable_1_chiaba_hit.wav,p03,chiaba,hit,chia-ba,chia-ba,chi-a-ba, ,-0.401041667,-0.109375,1,0,0,0.6188,text_option_1,,0,176,176,0,1
5f22e7ae938d2d018633624a,63f3cfca20052e4ae7554ebf,6453c927dfb8ae149e5db2ca,2023-05-04_17h03.51.974,ga_syllabified_check,2022.2.5,Win32,29.79205148,,,,,,,,,,,,,,./stim/p03_syllable_1_payielo_hit.wav,p03,payielo,hit,pa-yie-lo,pa-yie-lo,pa-yi-e-lo, ,-0.401041667,-0.109375,1,0,0,0.5535,text_option_1,,0,177,177,30,1
5f22e7ae938d2d018633624a,63f3cfca20052e4ae7554ebf,6453c927dfb8ae149e5db2ca,2023-05-04_17h03.51.974,ga_syllabified_check,2022.2.5,Win32,29.79205148,,,,,,,,,,,,,,./stim/p08_syllable_1_palumaisto_hit.wav,p08,palumaisto,hit,pa-lu-mais-to,pa-lu-mais-to,pa-lu-ma-is-to, ,-0.401041667,-0.109375,1,0,0,1.9447,text_option_1,,0,178,178,198,1
5f22e7ae938d2d018633624a,63f3cfca20052e4ae7554ebf,6453c927dfb8ae149e5db2ca,2023-05-04_17h03.51.974,ga_syllabified_check,2022.2.5,Win32,29.79205148,,,,,,,,,,,,,,./stim/p05_syllable_1_palufauto_hit.wav,p05,palufauto,hit,pa-lu-fau-to,pa-lu-fau-to,pa-lu-fa-u-to, ,-0.391927083,-0.108072917,1,0,0,2.992,text_option_1,,0,179,179,94,1
5f22e7ae938d2d018633624a,63f3cfca20052e4ae7554ebf,6453c927dfb8ae149e5db2ca,2023-05-04_17h03.51.974,ga_syllabified_check,2022.2.5,Win32,29.79205148,,,,,,,,,,,,,,./stim/p03_syllable_1_palufauro_hit.wav,p03,palufauro,hit,pa-lu-fau-ro,pa-lu-fau-ro,pa-lu-fa-u-ro, ,-0.391927083,-0.108072917,1,0,0,2.3379,text_option_1,,0,180,180,25,1
5f22e7ae938d2d018633624a,63f3cfca20052e4ae7554ebf,6453c927dfb8ae149e5db2ca,2023-05-04_17h03.51.974,ga_syllabified_check,2022.2.5,Win32,29.79205148,,,,,,,,,,,,,,./stim/p07_syllable_1_palufauto_hit.wav,p07,palufauto,hit,pa-lu-fau-to,pa-lu-fau-to,pa-lu-fa-u-to, ,-0.391927083,-0.108072917,1,0,0,1.5598,text_option_1,,0,181,181,162,1
5f22e7ae938d2d018633624a,63f3cfca20052e4ae7554ebf,6453c927dfb8ae149e5db2ca,2023-05-04_17h03.51.974,ga_syllabified_check,2022.2.5,Win32,29.79205148,,,,,,,,,,,,,,./stim/p03_syllable_1_pachialo_hit.wav,p03,pachialo,hit,pa-chia-lo,pa-chia-lo,pa-chi-a-lo, ,-0.391927083,-0.108072917,1,0,0,0.8111,text_option_1,,0,182,182,24,1
5f22e7ae938d2d018633624a,63f3cfca20052e4ae7554ebf,6453c927dfb8ae149e5db2ca,2023-05-04_17h03.51.974,ga_syllabified_check,2022.2.5,Win32,29.79205148,,,,,,,,,,,,,,./stim/p04_syllable_1_lakakuaisto_hit.wav,p04,lakakuaisto,hit,la-ka-kuais-to,la-ka-kuais-to,la-ka-ku-ais-to,la-ka-kua-is-to,-0.391927083,-0.108072917,1,0,0,1.0336,text_option_1,,0,183,183,49,1
5f22e7ae938d2d018633624a,63f3cfca20052e4ae7554ebf,6453c927dfb8ae149e5db2ca,2023-05-04_17h03.51.974,ga_syllabified_check,2022.2.5,Win32,29.79205148,,,,,,,,,,,,,,./stim/p06_syllable_1_pachialo_hit.wav,p06,pachialo,hit,pa-shi-a-lo,pa-chia-lo,pa-chi-a-lo, ,0.44140625,-0.114583333,1,0,0,1.4301,text_option_2,,0,184,184,126,1
5f22e7ae938d2d018633624a,63f3cfca20052e4ae7554ebf,6453c927dfb8ae149e5db2ca,2023-05-04_17h03.51.974,ga_syllabified_check,2022.2.5,Win32,29.79205148,,,,,,,,,,,,,,./stim/p04_syllable_1_lakaguaisto_hit.wav,p04,lakaguaisto,hit,la-ka-guais-to,la-ka-guais-to,la-ka-gu-ais-to,la-ka-gua-is-to,-0.372395833,-0.109375,1,0,0,1.4666,text_option_1,,0,185,185,47,1
5f22e7ae938d2d018633624a,63f3cfca20052e4ae7554ebf,6453c927dfb8ae149e5db2ca,2023-05-04_17h03.51.974,ga_syllabified_check,2022.2.5,Win32,29.79205148,,,,,,,,,,,,,,./stim/p08_syllable_1_palufauro_hit.wav,p08,palufauro,hit,pa-lu-fau-ro,pa-lu-fau-ro,pa-lu-fa-u-ro, ,0.43359375,-0.111979167,1,0,0,3.587,text_option_2,,0,186,186,195,1
5f22e7ae938d2d018633624a,63f3cfca20052e4ae7554ebf,6453c927dfb8ae149e5db2ca,2023-05-04_17h03.51.974,ga_syllabified_check,2022.2.5,Win32,29.79205148,,,,,,,,,,,,,,./stim/p05_syllable_1_faluduako_hit.wav,p05,faluduako,hit,fa-lu-ba-ko,fa-lu-dua-ko,fa-lu-du-a-ko, ,0.03515625,-0.290364583,1,0,0,4.7106,text_option_other,fa-lu-pa-ko,0,187,187,70,1
5f22e7ae938d2d018633624a,63f3cfca20052e4ae7554ebf,6453c927dfb8ae149e5db2ca,2023-05-04_17h03.51.974,ga_syllabified_check,2022.2.5,Win32,29.79205148,,,,,,,,,,,,,,./stim/p03_syllable_1_paluguato_hit.wav,p03,paluguato,hit,pa-lu-gua,pa-lu-gua-to,pa-lu-gu-a-to, ,-0.35546875,-0.079427083,1,0,0,1.1682,text_option_1,,0,188,188,27,1
5f22e7ae938d2d018633624a,63f3cfca20052e4ae7554ebf,6453c927dfb8ae149e5db2ca,2023-05-04_17h03.51.974,ga_syllabified_check,2022.2.5,Win32,29.79205148,,,,,,,,,,,,,,./stim/p03_syllable_1_lakakuaisto_hit.wav,p03,lakakuaisto,hit,la-ka-kuais-to,la-ka-kuais-to,la-ka-ku-ais-to,la-ka-kua-is-to,-0.346354167,-0.098958333,1,0,0,1.0505,text_option_1,,0,189,189,15,1
5f22e7ae938d2d018633624a,63f3cfca20052e4ae7554ebf,6453c927dfb8ae149e5db2ca,2023-05-04_17h03.51.974,ga_syllabified_check,2022.2.5,Win32,29.79205148,,,,,,,,,,,,,,./stim/p06_syllable_1_lakaduaisto_hit.wav,p06,lakaduaisto,hit,la-ka-du-a-is,la-ka-duais-to,la-ka-du-ais-to,la-ka-dua-is-to,-0.041666667,-0.3125,1,0,0,3.3187,text_option_other,la-ka-du-a-is-to,0,190,190,111,1
5f22e7ae938d2d018633624a,63f3cfca20052e4ae7554ebf,6453c927dfb8ae149e5db2ca,2023-05-04_17h03.51.974,ga_syllabified_check,2022.2.5,Win32,29.79205148,,,,,,,,,,,,,,./stim/p03_syllable_1_falutraigo_hit.wav,p03,falutraigo,hit,fa-lu-trai-go,fa-lu-trai-go,fa-lu-tra-i-go, ,-0.416666667,-0.114583333,1,0,0,1.4405,text_option_1,,0,191,191,4,1
5f22e7ae938d2d018633624a,63f3cfca20052e4ae7554ebf,6453c927dfb8ae149e5db2ca,2023-05-04_17h03.51.974,ga_syllabified_check,2022.2.5,Win32,29.79205148,,,,,,,,,,,,,,./stim/p07_syllable_1_tuliafo_hit.wav,p07,tuliafo,hit,tu-lia-fo,tu-lia-fo,tu-li-a-fo, ,-0.416666667,-0.114583333,1,0,0,0.2718,text_option_1,,0,192,192,169,1
5f22e7ae938d2d018633624a,63f3cfca20052e4ae7554ebf,6453c927dfb8ae149e5db2ca,2023-05-04_17h03.51.974,ga_syllabified_check,2022.2.5,Win32,29.79205148,,,,,,,,,,,,,,./stim/p08_syllable_1_lakabiaisto_hit.wav,p08,lakabiaisto,hit,la-ka-bi-as-to,la-ka-biais-to,la-ka-bi-ais-to,la-ka-bia-is-to,0.4375,-0.108072917,1,0,0,6.9444,text_option_2,,0,193,193,176,1
5f22e7ae938d2d018633624a,63f3cfca20052e4ae7554ebf,6453c927dfb8ae149e5db2ca,2023-05-04_17h03.51.974,ga_syllabified_check,2022.2.5,Win32,29.79205148,,,,,,,,,,,,,,./stim/p03_syllable_1_falufaisto_hit.wav,p03,falufaisto,hit,fa-lu-fais-to,fa-lu-fais-to,fa-lu-fa-is-to, ,-0.38671875,-0.095052083,1,0,0,1.6703,text_option_1,,0,194,194,3,1
5f22e7ae938d2d018633624a,63f3cfca20052e4ae7554ebf,6453c927dfb8ae149e5db2ca,2023-05-04_17h03.51.974,ga_syllabified_check,2022.2.5,Win32,29.79205148,,,,,,,,,,,,,,./stim/p06_syllable_1_flauro_hit.wav,p06,flauro,hit,fla-u-ro,flau-ro,fla-u-ro, ,0.401041667,-0.119791667,1,0,0,1.1817,text_option_2,,0,195,195,107,1
5f22e7ae938d2d018633624a,63f3cfca20052e4ae7554ebf,6453c927dfb8ae149e5db2ca,2023-05-04_17h03.51.974,ga_syllabified_check,2022.2.5,Win32,29.79205148,,,,,,,,,,,,,,./stim/p05_syllable_1_lliape_hit.wav,p05,lliape,hit,liai-pe,llia-pe,lli-a-pe, ,-0.4140625,-0.11328125,1,0,0,1.1682,text_option_1,,0,196,196,88,1
5f22e7ae938d2d018633624a,63f3cfca20052e4ae7554ebf,6453c927dfb8ae149e5db2ca,2023-05-04_17h03.51.974,ga_syllabified_check,2022.2.5,Win32,29.79205148,,,,,,,,,,,,,,./stim/p05_syllable_1_pachialo_hit.wav,p05,pachialo,hit,pan-chia-lo,pa-chia-lo,pa-chi-a-lo, ,0.404947917,-0.110677083,1,0,0,1.7623,text_option_2,,0,197,197,92,1
5f22e7ae938d2d018633624a,63f3cfca20052e4ae7554ebf,6453c927dfb8ae149e5db2ca,2023-05-04_17h03.51.974,ga_syllabified_check,2022.2.5,Win32,29.79205148,,,,,,,,,,,,,,./stim/p07_syllable_1_flauro_hit.wav,p07,flauro,hit,flau-ro,flau-ro,fla-u-ro, ,-0.434895833,-0.10546875,1,0,0,0.9735,text_option_1,,0,198,198,141,1
5f22e7ae938d2d018633624a,63f3cfca20052e4ae7554ebf,6453c927dfb8ae149e5db2ca,2023-05-04_17h03.51.974,ga_syllabified_check,2022.2.5,Win32,29.79205148,,,,,,,,,,,,,,./stim/p03_syllable_1_mebochiana_hit.wav,p03,mebochiana,hit,me-bo-chia-na,me-bo-chia-na,me-bo-chi-a-na, ,-0.356770833,-0.11328125,1,0,0,3.6091,text_option_1,,0,199,199,22,1
5f22e7ae938d2d018633624a,63f3cfca20052e4ae7554ebf,6453c927dfb8ae149e5db2ca,2023-05-04_17h03.51.974,ga_syllabified_check,2022.2.5,Win32,29.79205148,,,,,,,,,,,,,,./stim/p04_syllable_1_costonhialo_hit.wav,p04,costoñialo,hit,cos-to-nhia-lo,cos-to-ñia-lo,cos-to-ñi-a-lo, ,-0.356770833,-0.11328125,1,0,0,1.1718,text_option_1,,0,200,200,35,1
5f22e7ae938d2d018633624a,63f3cfca20052e4ae7554ebf,6453c927dfb8ae149e5db2ca,2023-05-04_17h03.51.974,ga_syllabified_check,2022.2.5,Win32,29.79205148,,,,,,,,,,,,,,./stim/p08_syllable_1_lakafiaisto_hit.wav,p08,lakafiaisto,hit,la-ka-fi-as-to,la-ka-fiais-to,la-ka-fi-ais-to,la-ka-fia-is-to,0.055989583,-0.11328125,1,0,0,3.1446,text_option_3,,0,201,201,180,1
5f22e7ae938d2d018633624a,63f3cfca20052e4ae7554ebf,6453c927dfb8ae149e5db2ca,2023-05-04_17h03.51.974,ga_syllabified_check,2022.2.5,Win32,29.79205148,,,,,,,,,,,,,,./stim/p06_syllable_1_faluduako_hit.wav,p06,faluduako,hit,fa-lu-dua-ko,fa-lu-dua-ko,fa-lu-du-a-ko, ,0.453125,-0.109375,1,0,0,2.9374,text_option_2,,0,202,202,104,1
5f22e7ae938d2d018633624a,63f3cfca20052e4ae7554ebf,6453c927dfb8ae149e5db2ca,2023-05-04_17h03.51.974,ga_syllabified_check,2022.2.5,Win32,29.79205148,,,,,,,,,,,,,,./stim/p05_syllable_1_falufaisto_hit.wav,p05,falufaisto,hit,fa-lu-fais-to,fa-lu-fais-to,fa-lu-fa-is-to, ,0.388020833,-0.111979167,1,0,0,3.8696,text_option_2,,0,203,203,71,1
5f22e7ae938d2d018633624a,63f3cfca20052e4ae7554ebf,6453c927dfb8ae149e5db2ca,2023-05-04_17h03.51.974,ga_syllabified_check,2022.2.5,Win32,29.79205148,,,,,,,,,,,,,,,,,,,,,,,,,,,,,,,,,,
