participant,study,session,date,expName,psychopyVersion,OS,frameRate,mouse_practice.x,mouse_practice.y,mouse_practice.leftButton,mouse_practice.midButton,mouse_practice.rightButton,mouse_practice.time,mouse_practice.clicked_name,textbox_followup_practice.text,trials_practice.thisRepN,trials_practice.thisTrialN,trials_practice.thisN,trials_practice.thisIndex,trials_practice.ran,file_path,id,item,status,response,op1,op2,op3,mouse.x,mouse.y,mouse.leftButton,mouse.midButton,mouse.rightButton,mouse.time,mouse.clicked_name,textbox_followup.text,trials.thisRepN,trials.thisTrialN,trials.thisN,trials.thisIndex,trials.ran
5f3c8a006375d854f90d73a7,63f3cfca20052e4ae7554ebf,6453c890a1f7a57a5c1b3dc7,2023-05-04_17h00.49.945,ga_syllabified_check,2022.2.5,Win32,58.82352941,,,,,,,,,,,,,,,,,,,,,,,,,,,,,,,,,,
5f3c8a006375d854f90d73a7,63f3cfca20052e4ae7554ebf,6453c890a1f7a57a5c1b3dc7,2023-05-04_17h00.49.945,ga_syllabified_check,2022.2.5,Win32,58.82352941,-0.418518526,-0.10555557,1,0,0,3.283,text_option_1_practice,,0,0,0,0,1,./stim/p03_syllable_1_liamo_hit.wav,p03,liamo,hit,lia-mo,lia-mo,li-a-mo, ,,,,,,,,,,,,,
5f3c8a006375d854f90d73a7,63f3cfca20052e4ae7554ebf,6453c890a1f7a57a5c1b3dc7,2023-05-04_17h00.49.945,ga_syllabified_check,2022.2.5,Win32,58.82352941,-0.359259252,-0.101851852,1,0,0,1.566,text_option_1_practice,,0,1,1,1,1,./stim/p05_syllable_1_matio_hit.wav,p05,matio,hit,ma-tio,ma-tio,ma-ti-o, ,,,,,,,,,,,,,
5f3c8a006375d854f90d73a7,63f3cfca20052e4ae7554ebf,6453c890a1f7a57a5c1b3dc7,2023-05-04_17h00.49.945,ga_syllabified_check,2022.2.5,Win32,58.82352941,0.015740783,-0.297222208,1,0,0,5.033,text_option_other_practice,yi-amo,0,2,2,2,1,./stim/p08_syllable_1_liamo_hit.wav,p08,liamo,hit,ja-mo,lia-mo,li-a-mo, ,,,,,,,,,,,,,
5f3c8a006375d854f90d73a7,63f3cfca20052e4ae7554ebf,6453c890a1f7a57a5c1b3dc7,2023-05-04_17h00.49.945,ga_syllabified_check,2022.2.5,Win32,58.82352941,,,,,,,,,,,,,,,,,,,,,,,,,,,,,,,,,,
5f3c8a006375d854f90d73a7,63f3cfca20052e4ae7554ebf,6453c890a1f7a57a5c1b3dc7,2023-05-04_17h00.49.945,ga_syllabified_check,2022.2.5,Win32,58.82352941,,,,,,,,,,,,,,./stim/p05_syllable_1_paluguato_hit.wav,p05,paluguato,hit,pa-lu-gau-to,pa-lu-gua-to,pa-lu-gu-a-to, ,-0.068518533,-0.308333362,1,0,0,4.934,text_option_other,pa-lu-cau-to,0,0,0,95,1
5f3c8a006375d854f90d73a7,63f3cfca20052e4ae7554ebf,6453c890a1f7a57a5c1b3dc7,2023-05-04_17h00.49.945,ga_syllabified_check,2022.2.5,Win32,58.82352941,,,,,,,,,,,,,,./stim/p03_syllable_1_paluguato_hit.wav,p03,paluguato,hit,pa-lu-gua,pa-lu-gua-to,pa-lu-gu-a-to, ,-0.380555541,-0.100000028,1,0,0,3.45,text_option_1,,0,1,1,27,1
5f3c8a006375d854f90d73a7,63f3cfca20052e4ae7554ebf,6453c890a1f7a57a5c1b3dc7,2023-05-04_17h00.49.945,ga_syllabified_check,2022.2.5,Win32,58.82352941,,,,,,,,,,,,,,./stim/p03_syllable_1_lakadiaisto_hit.wav,p03,lakadiaisto,hit,la-ka-diais-to,la-ka-diais-to,la-ka-di-ais-to,la-ka-dia-is-to,-0.392592571,-0.107407393,1,0,0,10.965,text_option_1,,0,2,2,8,1
5f3c8a006375d854f90d73a7,63f3cfca20052e4ae7554ebf,6453c890a1f7a57a5c1b3dc7,2023-05-04_17h00.49.945,ga_syllabified_check,2022.2.5,Win32,58.82352941,,,,,,,,,,,,,,./stim/p03_syllable_1_lakaduaisto_hit.wav,p03,lakaduaisto,hit,la-ka-duais-to,la-ka-duais-to,la-ka-du-ais-to,la-ka-dua-is-to,-0.369444423,-0.101851852,1,0,0,4.749,text_option_1,,0,3,3,9,1
5f3c8a006375d854f90d73a7,63f3cfca20052e4ae7554ebf,6453c890a1f7a57a5c1b3dc7,2023-05-04_17h00.49.945,ga_syllabified_check,2022.2.5,Win32,58.82352941,,,,,,,,,,,,,,./stim/p05_syllable_1_mebochiana_hit.wav,p05,mebochiana,hit,me-cho-chai-na,me-bo-chia-na,me-bo-chi-a-na, ,0.05277782,-0.308333362,1,0,0,1.483,text_option_other,me-cho-chai-na,0,4,4,90,1
5f3c8a006375d854f90d73a7,63f3cfca20052e4ae7554ebf,6453c890a1f7a57a5c1b3dc7,2023-05-04_17h00.49.945,ga_syllabified_check,2022.2.5,Win32,58.82352941,,,,,,,,,,,,,,./stim/p03_syllable_1_palumaisto_hit.wav,p03,palumaisto,hit,pa-lu-mais-to,pa-lu-mais-to,pa-lu-ma-is-to, ,-0.384259259,-0.104629658,1,0,0,2.482,text_option_1,,0,5,5,28,1
5f3c8a006375d854f90d73a7,63f3cfca20052e4ae7554ebf,6453c890a1f7a57a5c1b3dc7,2023-05-04_17h00.49.945,ga_syllabified_check,2022.2.5,Win32,58.82352941,,,,,,,,,,,,,,./stim/p07_syllable_1_manhiala_hit.wav,p07,mañiala,hit,ma-nhia-la,ma-ñia-la,ma-ñi-a-la, ,-0.357407393,-0.104629658,1,0,0,4.616,text_option_1,,0,6,6,157,1
5f3c8a006375d854f90d73a7,63f3cfca20052e4ae7554ebf,6453c890a1f7a57a5c1b3dc7,2023-05-04_17h00.49.945,ga_syllabified_check,2022.2.5,Win32,58.82352941,,,,,,,,,,,,,,./stim/p05_syllable_1_lakaguaisto_hit.wav,p05,lakaguaisto,hit,la-ka-gais,la-ka-guais-to,la-ka-gu-ais-to,la-ka-gua-is-to,-0.045370384,-0.300925926,1,0,0,6.65,text_option_other,la-ka-kais-to,0,7,7,81,1
5f3c8a006375d854f90d73a7,63f3cfca20052e4ae7554ebf,6453c890a1f7a57a5c1b3dc7,2023-05-04_17h00.49.945,ga_syllabified_check,2022.2.5,Win32,58.82352941,,,,,,,,,,,,,,./stim/p07_syllable_1_lakapuaisto_hit.wav,p07,lakapuaisto,hit,la-ka-puais-to,la-ka-puais-to,la-ka-pu-ais-to,la-ka-pua-is-to,-0.377777771,-0.102777764,1,0,0,6.335,text_option_1,,0,8,8,153,1
5f3c8a006375d854f90d73a7,63f3cfca20052e4ae7554ebf,6453c890a1f7a57a5c1b3dc7,2023-05-04_17h00.49.945,ga_syllabified_check,2022.2.5,Win32,58.82352941,,,,,,,,,,,,,,./stim/p03_syllable_1_palufauro_hit.wav,p03,palufauro,hit,pa-lu-fau-ro,pa-lu-fau-ro,pa-lu-fa-u-ro, ,-0.377777771,-0.102777764,1,0,0,7.116,text_option_1,,0,9,9,25,1
5f3c8a006375d854f90d73a7,63f3cfca20052e4ae7554ebf,6453c890a1f7a57a5c1b3dc7,2023-05-04_17h00.49.945,ga_syllabified_check,2022.2.5,Win32,58.82352941,,,,,,,,,,,,,,./stim/p05_syllable_1_palufauro_hit.wav,p05,palufauro,hit,pa-lu-fau-ro,pa-lu-fau-ro,pa-lu-fa-u-ro, ,-0.3675926,-0.104629658,1,0,0,52.45,text_option_1,,0,10,10,93,1
5f3c8a006375d854f90d73a7,63f3cfca20052e4ae7554ebf,6453c890a1f7a57a5c1b3dc7,2023-05-04_17h00.49.945,ga_syllabified_check,2022.2.5,Win32,58.82352941,,,,,,,,,,,,,,./stim/p05_syllable_1_payielo_hit.wav,p05,payielo,hit,pai-yu-we-lo,pa-yie-lo,pa-yi-e-lo, ,0.075925968,-0.304629644,1,0,0,2.2,text_option_other,pa-yue-lo,0,11,11,98,1
5f3c8a006375d854f90d73a7,63f3cfca20052e4ae7554ebf,6453c890a1f7a57a5c1b3dc7,2023-05-04_17h00.49.945,ga_syllabified_check,2022.2.5,Win32,58.82352941,,,,,,,,,,,,,,./stim/p06_syllable_1_lakapuaisto_hit.wav,p06,lakapuaisto,hit,la-ka-pu-a-is,la-ka-puais-to,la-ka-pu-ais-to,la-ka-pua-is-to,0.346296381,-0.106481481,1,0,0,10.734,text_option_2,,0,12,12,119,1
5f3c8a006375d854f90d73a7,63f3cfca20052e4ae7554ebf,6453c890a1f7a57a5c1b3dc7,2023-05-04_17h00.49.945,ga_syllabified_check,2022.2.5,Win32,58.82352941,,,,,,,,,,,,,,./stim/p08_syllable_1_ruyiola_hit.wav,p08,ruyiola,hit,ru-yio-la,ru-yio-la,ru-yi-o-la, ,-0.347222222,-0.10555557,1,0,0,2.4,text_option_1,,0,13,13,202,1
5f3c8a006375d854f90d73a7,63f3cfca20052e4ae7554ebf,6453c890a1f7a57a5c1b3dc7,2023-05-04_17h00.49.945,ga_syllabified_check,2022.2.5,Win32,58.82352941,,,,,,,,,,,,,,./stim/p05_syllable_1_faluduako_hit.wav,p05,faluduako,hit,fa-lu-ba-ko,fa-lu-dua-ko,fa-lu-du-a-ko, ,-0.361111111,-0.111111111,1,0,0,4.884,text_option_1,,0,14,14,70,1
5f3c8a006375d854f90d73a7,63f3cfca20052e4ae7554ebf,6453c890a1f7a57a5c1b3dc7,2023-05-04_17h00.49.945,ga_syllabified_check,2022.2.5,Win32,58.82352941,,,,,,,,,,,,,,./stim/p04_syllable_1_lakapiaisto_hit.wav,p04,lakapiaisto,hit,la-ka-piais-to,la-ka-piais-to,la-ka-pi-ais-to,la-ka-pia-is-to,-0.366666653,-0.099074116,1,0,0,90.874,text_option_1,,0,15,15,50,1
5f3c8a006375d854f90d73a7,63f3cfca20052e4ae7554ebf,6453c890a1f7a57a5c1b3dc7,2023-05-04_17h00.49.945,ga_syllabified_check,2022.2.5,Win32,58.82352941,,,,,,,,,,,,,,./stim/p06_syllable_1_ruyiola_hit.wav,p06,ruyiola,hit,ru-yi-o-la,ru-yio-la,ru-yi-o-la, ,0.416666667,-0.107407393,1,0,0,2.015,text_option_2,,0,16,16,134,1
5f3c8a006375d854f90d73a7,63f3cfca20052e4ae7554ebf,6453c890a1f7a57a5c1b3dc7,2023-05-04_17h00.49.945,ga_syllabified_check,2022.2.5,Win32,58.82352941,,,,,,,,,,,,,,./stim/p03_syllable_1_mebochiana_hit.wav,p03,mebochiana,hit,me-bo-chia-na,me-bo-chia-na,me-bo-chi-a-na, ,-0.380555541,-0.112963005,1,0,0,2.021,text_option_1,,0,17,17,22,1
5f3c8a006375d854f90d73a7,63f3cfca20052e4ae7554ebf,6453c890a1f7a57a5c1b3dc7,2023-05-04_17h00.49.945,ga_syllabified_check,2022.2.5,Win32,58.82352941,,,,,,,,,,,,,,./stim/p08_syllable_1_lakaduaisto_hit.wav,p08,lakaduaisto,hit,la-ka-du-ais-to,la-ka-duais-to,la-ka-du-ais-to,la-ka-dua-is-to,0.416666667,-0.098148134,1,0,0,3.65,text_option_2,,0,18,18,179,1
5f3c8a006375d854f90d73a7,63f3cfca20052e4ae7554ebf,6453c890a1f7a57a5c1b3dc7,2023-05-04_17h00.49.945,ga_syllabified_check,2022.2.5,Win32,58.82352941,,,,,,,,,,,,,,./stim/p08_syllable_1_rausto_hit.wav,p08,rausto,hit,raus-to,raus-to,ra-us-to, ,-0.37037037,-0.109259288,1,0,0,0.933,text_option_1,,0,19,19,201,1
5f3c8a006375d854f90d73a7,63f3cfca20052e4ae7554ebf,6453c890a1f7a57a5c1b3dc7,2023-05-04_17h00.49.945,ga_syllabified_check,2022.2.5,Win32,58.82352941,,,,,,,,,,,,,,./stim/p06_syllable_1_palutrauco_hit.wav,p06,palutrauco,hit,pa-lu-tra-u-co,pa-lu-trau-co,pa-lu-tra-u-co, ,0.350926011,-0.103703746,1,0,0,2.883,text_option_2,,0,20,20,131,1
5f3c8a006375d854f90d73a7,63f3cfca20052e4ae7554ebf,6453c890a1f7a57a5c1b3dc7,2023-05-04_17h00.49.945,ga_syllabified_check,2022.2.5,Win32,58.82352941,,,,,,,,,,,,,,./stim/p04_syllable_1_palufauto_hit.wav,p04,palufauto,hit,pa-lu-fau-to,pa-lu-fau-to,pa-lu-fa-u-to, ,-0.472222222,-0.086111104,1,0,0,1.199,text_option_1,,0,21,21,60,1
5f3c8a006375d854f90d73a7,63f3cfca20052e4ae7554ebf,6453c890a1f7a57a5c1b3dc7,2023-05-04_17h00.49.945,ga_syllabified_check,2022.2.5,Win32,58.82352941,,,,,,,,,,,,,,./stim/p08_syllable_1_lakabuaisto_hit.wav,p08,lakabuaisto,hit,la-ka-bu-ais-to,la-ka-buais-to,la-ka-bu-ais-to,la-ka-bua-is-to,0.475000028,-0.103703746,1,0,0,2.883,text_option_2,,0,22,22,177,1
5f3c8a006375d854f90d73a7,63f3cfca20052e4ae7554ebf,6453c890a1f7a57a5c1b3dc7,2023-05-04_17h00.49.945,ga_syllabified_check,2022.2.5,Win32,58.82352941,,,,,,,,,,,,,,./stim/p04_syllable_1_ruyiola_hit.wav,p04,ruyiola,hit,ru-yio-la,ru-yio-la,ru-yi-o-la, ,-0.443518497,-0.091666681,1,0,0,0.852,text_option_1,,0,23,23,66,1
5f3c8a006375d854f90d73a7,63f3cfca20052e4ae7554ebf,6453c890a1f7a57a5c1b3dc7,2023-05-04_17h00.49.945,ga_syllabified_check,2022.2.5,Win32,58.82352941,,,,,,,,,,,,,,./stim/p04_syllable_1_lakatiaisto_hit.wav,p04,lakatiaisto,hit,la-ka-kiais-to,la-ka-tiais-to,la-ka-ti-ais-to,la-ka-tia-is-to,0.008333347,-0.110185199,1,0,0,41.911,text_option_3,,0,24,24,52,1
5f3c8a006375d854f90d73a7,63f3cfca20052e4ae7554ebf,6453c890a1f7a57a5c1b3dc7,2023-05-04_17h00.49.945,ga_syllabified_check,2022.2.5,Win32,58.82352941,,,,,,,,,,,,,,./stim/p07_syllable_1_palutrauco_hit.wav,p07,palutrauco,hit,pa-lu-trau-co,pa-lu-trau-co,pa-lu-tra-u-co, ,-0.035185143,-0.300000014,1,0,0,3.35,text_option_other,pa-lu-trau,0,25,25,165,1
5f3c8a006375d854f90d73a7,63f3cfca20052e4ae7554ebf,6453c890a1f7a57a5c1b3dc7,2023-05-04_17h00.49.945,ga_syllabified_check,2022.2.5,Win32,58.82352941,,,,,,,,,,,,,,./stim/p08_syllable_1_lakafuaisto_hit.wav,p08,lakafuaisto,hit,la-ka-fju-ais-to,la-ka-fuais-to,la-ka-fu-ais-to,la-ka-fua-is-to,-0.430555556,-0.108333376,1,0,0,9.365,text_option_1,,0,26,26,181,1
5f3c8a006375d854f90d73a7,63f3cfca20052e4ae7554ebf,6453c890a1f7a57a5c1b3dc7,2023-05-04_17h00.49.945,ga_syllabified_check,2022.2.5,Win32,58.82352941,,,,,,,,,,,,,,./stim/p03_syllable_1_payielo_hit.wav,p03,payielo,hit,pa-yie-lo,pa-yie-lo,pa-yi-e-lo, ,0.369444529,-0.107407393,1,0,0,12.415,text_option_2,,0,27,27,30,1
5f3c8a006375d854f90d73a7,63f3cfca20052e4ae7554ebf,6453c890a1f7a57a5c1b3dc7,2023-05-04_17h00.49.945,ga_syllabified_check,2022.2.5,Win32,58.82352941,,,,,,,,,,,,,,./stim/p06_syllable_1_falufaisto_hit.wav,p06,falufaisto,hit,fa-lu-fa-is-to,fa-lu-fais-to,fa-lu-fa-is-to, ,0.450925898,-0.115740741,1,0,0,2.384,text_option_2,,0,28,28,105,1
5f3c8a006375d854f90d73a7,63f3cfca20052e4ae7554ebf,6453c890a1f7a57a5c1b3dc7,2023-05-04_17h00.49.945,ga_syllabified_check,2022.2.5,Win32,58.82352941,,,,,,,,,,,,,,./stim/p08_syllable_1_paluguato_hit.wav,p08,paluguato,hit,pa-lu-gua-to,pa-lu-gua-to,pa-lu-gu-a-to, ,-0.425925926,-0.10555557,1,0,0,1.701,text_option_1,,0,29,29,197,1
5f3c8a006375d854f90d73a7,63f3cfca20052e4ae7554ebf,6453c890a1f7a57a5c1b3dc7,2023-05-04_17h00.49.945,ga_syllabified_check,2022.2.5,Win32,58.82352941,,,,,,,,,,,,,,./stim/p07_syllable_1_lakapiaisto_hit.wav,p07,lakapiaisto,hit,la-ka-pia-sto,la-ka-piais-to,la-ka-pi-ais-to,la-ka-pia-is-to,0.017592607,-0.109259288,1,0,0,9.432,text_option_3,,0,30,30,152,1
5f3c8a006375d854f90d73a7,63f3cfca20052e4ae7554ebf,6453c890a1f7a57a5c1b3dc7,2023-05-04_17h00.49.945,ga_syllabified_check,2022.2.5,Win32,58.82352941,,,,,,,,,,,,,,./stim/p04_syllable_1_pachialo_hit.wav,p04,pachialo,hit,pa-chia-lo,pa-chia-lo,pa-chi-a-lo, ,-0.361111111,-0.102777764,1,0,0,1.216,text_option_1,,0,31,31,58,1
5f3c8a006375d854f90d73a7,63f3cfca20052e4ae7554ebf,6453c890a1f7a57a5c1b3dc7,2023-05-04_17h00.49.945,ga_syllabified_check,2022.2.5,Win32,58.82352941,,,,,,,,,,,,,,./stim/p07_syllable_1_palufauto_hit.wav,p07,palufauto,hit,pa-lu-fau-to,pa-lu-fau-to,pa-lu-fa-u-to, ,-0.404629637,-0.113888917,1,0,0,1.766,text_option_1,,0,32,32,162,1
5f3c8a006375d854f90d73a7,63f3cfca20052e4ae7554ebf,6453c890a1f7a57a5c1b3dc7,2023-05-04_17h00.49.945,ga_syllabified_check,2022.2.5,Win32,58.82352941,,,,,,,,,,,,,,./stim/p05_syllable_1_pachialo_hit.wav,p05,pachialo,hit,pan-chia-lo,pa-chia-lo,pa-chi-a-lo, ,0.386111083,-0.10092594,1,0,0,3.182,text_option_2,,0,33,33,92,1
5f3c8a006375d854f90d73a7,63f3cfca20052e4ae7554ebf,6453c890a1f7a57a5c1b3dc7,2023-05-04_17h00.49.945,ga_syllabified_check,2022.2.5,Win32,58.82352941,,,,,,,,,,,,,,./stim/p05_syllable_1_rausto_hit.wav,p05,rausto,hit,raus-to,raus-to,ra-us-to, ,-0.390740748,-0.110185199,1,0,0,0.85,text_option_1,,0,34,34,99,1
5f3c8a006375d854f90d73a7,63f3cfca20052e4ae7554ebf,6453c890a1f7a57a5c1b3dc7,2023-05-04_17h00.49.945,ga_syllabified_check,2022.2.5,Win32,58.82352941,,,,,,,,,,,,,,./stim/p05_syllable_1_lliape_hit.wav,p05,lliape,hit,liai-pe,llia-pe,lli-a-pe, ,-0.3824074,-0.107407393,1,0,0,1.949,text_option_1,,0,35,35,88,1
5f3c8a006375d854f90d73a7,63f3cfca20052e4ae7554ebf,6453c890a1f7a57a5c1b3dc7,2023-05-04_17h00.49.945,ga_syllabified_check,2022.2.5,Win32,58.82352941,,,,,,,,,,,,,,./stim/p05_syllable_1_lakabuaisto_hit.wav,p05,lakabuaisto,hit,la-ka-buais-to,la-ka-buais-to,la-ka-bu-ais-to,la-ka-bua-is-to,-0.333333333,-0.107407393,1,0,0,2.766,text_option_1,,0,36,36,75,1
5f3c8a006375d854f90d73a7,63f3cfca20052e4ae7554ebf,6453c890a1f7a57a5c1b3dc7,2023-05-04_17h00.49.945,ga_syllabified_check,2022.2.5,Win32,58.82352941,,,,,,,,,,,,,,./stim/p08_syllable_1_payielo_hit.wav,p08,payielo,hit,pa-yie-lo,pa-yie-lo,pa-yi-e-lo, ,-0.365740741,-0.098148134,1,0,0,2.883,text_option_1,,0,37,37,200,1
5f3c8a006375d854f90d73a7,63f3cfca20052e4ae7554ebf,6453c890a1f7a57a5c1b3dc7,2023-05-04_17h00.49.945,ga_syllabified_check,2022.2.5,Win32,58.82352941,,,,,,,,,,,,,,./stim/p04_syllable_1_falufaisto_hit.wav,p04,falufaisto,hit,fa-lu-fais-to,fa-lu-fais-to,fa-lu-fa-is-to, ,-0.365740741,-0.098148134,1,0,0,1.567,text_option_1,,0,38,38,37,1
5f3c8a006375d854f90d73a7,63f3cfca20052e4ae7554ebf,6453c890a1f7a57a5c1b3dc7,2023-05-04_17h00.49.945,ga_syllabified_check,2022.2.5,Win32,58.82352941,,,,,,,,,,,,,,./stim/p07_syllable_1_lakafiaisto_hit.wav,p07,lakafiaisto,hit,la-ka-fiais-to,la-ka-fiais-to,la-ka-fi-ais-to,la-ka-fia-is-to,-0.365740741,-0.098148134,1,0,0,1.283,text_option_1,,0,39,39,146,1
5f3c8a006375d854f90d73a7,63f3cfca20052e4ae7554ebf,6453c890a1f7a57a5c1b3dc7,2023-05-04_17h00.49.945,ga_syllabified_check,2022.2.5,Win32,58.82352941,,,,,,,,,,,,,,./stim/p06_syllable_1_chiaba_hit.wav,p06,chiaba,hit,chi-a-ba,chia-ba,chi-a-ba, ,0.42314812,-0.109259288,1,0,0,4.5,text_option_2,,0,40,40,102,1
5f3c8a006375d854f90d73a7,63f3cfca20052e4ae7554ebf,6453c890a1f7a57a5c1b3dc7,2023-05-04_17h00.49.945,ga_syllabified_check,2022.2.5,Win32,58.82352941,,,,,,,,,,,,,,./stim/p06_syllable_1_lakatuaisto_hit.wav,p06,lakatuaisto,hit,la-ka-tu-a-is,la-ka-tuais-to,la-ka-tu-ais-to,la-ka-tua-is-to,0.344444416,-0.112037023,1,0,0,6.649,text_option_2,,0,41,41,121,1
5f3c8a006375d854f90d73a7,63f3cfca20052e4ae7554ebf,6453c890a1f7a57a5c1b3dc7,2023-05-04_17h00.49.945,ga_syllabified_check,2022.2.5,Win32,58.82352941,,,,,,,,,,,,,,./stim/p04_syllable_1_lakaguaisto_hit.wav,p04,lakaguaisto,hit,la-ka-guais-to,la-ka-guais-to,la-ka-gu-ais-to,la-ka-gua-is-to,-0.3675926,-0.101851852,1,0,0,1.7,text_option_1,,0,42,42,47,1
5f3c8a006375d854f90d73a7,63f3cfca20052e4ae7554ebf,6453c890a1f7a57a5c1b3dc7,2023-05-04_17h00.49.945,ga_syllabified_check,2022.2.5,Win32,58.82352941,,,,,,,,,,,,,,./stim/p04_syllable_1_nhiape_hit.wav,p04,ñiape,hit,nhia-pe,ñia-pe,ñi-a-pe, ,-0.390740748,-0.100000028,1,0,0,0.633,text_option_1,,0,43,43,57,1
5f3c8a006375d854f90d73a7,63f3cfca20052e4ae7554ebf,6453c890a1f7a57a5c1b3dc7,2023-05-04_17h00.49.945,ga_syllabified_check,2022.2.5,Win32,58.82352941,,,,,,,,,,,,,,./stim/p03_syllable_1_nhiape_hit.wav,p03,ñiape,hit,nhia-pe,ñia-pe,ñi-a-pe, ,-0.388888889,-0.100000028,1,0,0,0.733,text_option_1,,0,44,44,23,1
5f3c8a006375d854f90d73a7,63f3cfca20052e4ae7554ebf,6453c890a1f7a57a5c1b3dc7,2023-05-04_17h00.49.945,ga_syllabified_check,2022.2.5,Win32,58.82352941,,,,,,,,,,,,,,./stim/p05_syllable_1_lakafiaisto_hit.wav,p05,lakafiaisto,hit,la-ka-fi-ais-to,la-ka-fiais-to,la-ka-fi-ais-to,la-ka-fia-is-to,0.3648149,-0.116666653,1,0,0,2.333,text_option_2,,0,45,45,78,1
5f3c8a006375d854f90d73a7,63f3cfca20052e4ae7554ebf,6453c890a1f7a57a5c1b3dc7,2023-05-04_17h00.49.945,ga_syllabified_check,2022.2.5,Win32,58.82352941,,,,,,,,,,,,,,./stim/p08_syllable_1_palutrauco_hit.wav,p08,palutrauco,hit,pa-lu-trau-ko,pa-lu-trau-co,pa-lu-tra-u-co, ,-0.337962963,-0.097222222,1,0,0,2.165,text_option_1,,0,46,46,199,1
5f3c8a006375d854f90d73a7,63f3cfca20052e4ae7554ebf,6453c890a1f7a57a5c1b3dc7,2023-05-04_17h00.49.945,ga_syllabified_check,2022.2.5,Win32,58.82352941,,,,,,,,,,,,,,./stim/p05_syllable_1_costonhialo_hit.wav,p05,costoñialo,hit,cos-to-nhia-lo,cos-to-ñia-lo,cos-to-ñi-a-lo, ,-0.335185192,-0.103703746,1,0,0,1.032,text_option_1,,0,47,47,69,1
5f3c8a006375d854f90d73a7,63f3cfca20052e4ae7554ebf,6453c890a1f7a57a5c1b3dc7,2023-05-04_17h00.49.945,ga_syllabified_check,2022.2.5,Win32,58.82352941,,,,,,,,,,,,,,./stim/p03_syllable_1_flauro_hit.wav,p03,flauro,hit,flau-ro,flau-ro,fla-u-ro, ,-0.37037037,-0.113888917,1,0,0,0.467,text_option_1,,0,48,48,5,1
5f3c8a006375d854f90d73a7,63f3cfca20052e4ae7554ebf,6453c890a1f7a57a5c1b3dc7,2023-05-04_17h00.49.945,ga_syllabified_check,2022.2.5,Win32,58.82352941,,,,,,,,,,,,,,./stim/p07_syllable_1_costonhialo_hit.wav,p07,costoñialo,hit,cos-to-nhia-lo,cos-to-ñia-lo,cos-to-ñi-a-lo, ,-0.369444423,-0.113888917,1,0,0,1.949,text_option_1,,0,49,49,137,1
5f3c8a006375d854f90d73a7,63f3cfca20052e4ae7554ebf,6453c890a1f7a57a5c1b3dc7,2023-05-04_17h00.49.945,ga_syllabified_check,2022.2.5,Win32,58.82352941,,,,,,,,,,,,,,./stim/p04_syllable_1_lliape_hit.wav,p04,lliape,hit,lia-pe,llia-pe,lli-a-pe, ,-0.378703683,-0.108333376,1,0,0,0.35,text_option_1,,0,50,50,54,1
5f3c8a006375d854f90d73a7,63f3cfca20052e4ae7554ebf,6453c890a1f7a57a5c1b3dc7,2023-05-04_17h00.49.945,ga_syllabified_check,2022.2.5,Win32,58.82352941,,,,,,,,,,,,,,./stim/p08_syllable_1_lakatiaisto_hit.wav,p08,lakatiaisto,hit,la-ka-ti-as-to,la-ka-tiais-to,la-ka-ti-ais-to,la-ka-tia-is-to,0.002777806,-0.107407393,1,0,0,12.599,text_option_3,,0,51,51,188,1
5f3c8a006375d854f90d73a7,63f3cfca20052e4ae7554ebf,6453c890a1f7a57a5c1b3dc7,2023-05-04_17h00.49.945,ga_syllabified_check,2022.2.5,Win32,58.82352941,,,,,,,,,,,,,,./stim/p06_syllable_1_lakaduaisto_hit.wav,p06,lakaduaisto,hit,la-ka-du-a-is,la-ka-duais-to,la-ka-du-ais-to,la-ka-dua-is-to,0.343518575,-0.09629631,1,0,0,11.132,text_option_2,,0,52,52,111,1
5f3c8a006375d854f90d73a7,63f3cfca20052e4ae7554ebf,6453c890a1f7a57a5c1b3dc7,2023-05-04_17h00.49.945,ga_syllabified_check,2022.2.5,Win32,58.82352941,,,,,,,,,,,,,,./stim/p03_syllable_1_lakafiaisto_hit.wav,p03,lakafiaisto,hit,la-ka-fiais-to,la-ka-fiais-to,la-ka-fi-ais-to,la-ka-fia-is-to,-0.386111118,-0.104629658,1,0,0,4.865,text_option_1,,0,53,53,10,1
5f3c8a006375d854f90d73a7,63f3cfca20052e4ae7554ebf,6453c890a1f7a57a5c1b3dc7,2023-05-04_17h00.49.945,ga_syllabified_check,2022.2.5,Win32,58.82352941,,,,,,,,,,,,,,./stim/p03_syllable_1_lakaguaisto_hit.wav,p03,lakaguaisto,hit,la-ka-guais-to,la-ka-guais-to,la-ka-gu-ais-to,la-ka-gua-is-to,-0.386111118,-0.104629658,1,0,0,1.483,text_option_1,,0,54,54,13,1
5f3c8a006375d854f90d73a7,63f3cfca20052e4ae7554ebf,6453c890a1f7a57a5c1b3dc7,2023-05-04_17h00.49.945,ga_syllabified_check,2022.2.5,Win32,58.82352941,,,,,,,,,,,,,,./stim/p05_syllable_1_lakapuaisto_hit.wav,p05,lakapuaisto,hit,la-ka-pais-to,la-ka-puais-to,la-ka-pu-ais-to,la-ka-pua-is-to,-0.383333312,-0.102777764,1,0,0,3.684,text_option_1,,0,55,55,85,1
5f3c8a006375d854f90d73a7,63f3cfca20052e4ae7554ebf,6453c890a1f7a57a5c1b3dc7,2023-05-04_17h00.49.945,ga_syllabified_check,2022.2.5,Win32,58.82352941,,,,,,,,,,,,,,./stim/p07_syllable_1_lakabuaisto_hit.wav,p07,lakabuaisto,hit,la-ka-buais-to,la-ka-buais-to,la-ka-bu-ais-to,la-ka-bua-is-to,-0.3824074,-0.101851852,1,0,0,1.949,text_option_1,,0,56,56,143,1
5f3c8a006375d854f90d73a7,63f3cfca20052e4ae7554ebf,6453c890a1f7a57a5c1b3dc7,2023-05-04_17h00.49.945,ga_syllabified_check,2022.2.5,Win32,58.82352941,,,,,,,,,,,,,,./stim/p08_syllable_1_chiaba_hit.wav,p08,chiaba,hit,chi-a-ba,chia-ba,chi-a-ba, ,0.384259259,-0.117592635,1,0,0,1.233,text_option_2,,0,57,57,170,1
5f3c8a006375d854f90d73a7,63f3cfca20052e4ae7554ebf,6453c890a1f7a57a5c1b3dc7,2023-05-04_17h00.49.945,ga_syllabified_check,2022.2.5,Win32,58.82352941,,,,,,,,,,,,,,./stim/p04_syllable_1_manhiala_hit.wav,p04,mañiala,hit,ma-nhia-la,ma-ñia-la,ma-ñi-a-la, ,-0.37962963,-0.112963005,1,0,0,0.816,text_option_1,,0,58,58,55,1
5f3c8a006375d854f90d73a7,63f3cfca20052e4ae7554ebf,6453c890a1f7a57a5c1b3dc7,2023-05-04_17h00.49.945,ga_syllabified_check,2022.2.5,Win32,58.82352941,,,,,,,,,,,,,,./stim/p04_syllable_1_chiaba_hit.wav,p04,chiaba,hit,chia-ba,chia-ba,chi-a-ba, ,-0.389814801,-0.10092594,1,0,0,0.317,text_option_1,,0,59,59,34,1
5f3c8a006375d854f90d73a7,63f3cfca20052e4ae7554ebf,6453c890a1f7a57a5c1b3dc7,2023-05-04_17h00.49.945,ga_syllabified_check,2022.2.5,Win32,58.82352941,,,,,,,,,,,,,,./stim/p06_syllable_1_payielo_hit.wav,p06,payielo,hit,pa-yi-e-lo,pa-yie-lo,pa-yi-e-lo, ,0.405555584,-0.107407393,1,0,0,2.166,text_option_2,,0,60,60,132,1
5f3c8a006375d854f90d73a7,63f3cfca20052e4ae7554ebf,6453c890a1f7a57a5c1b3dc7,2023-05-04_17h00.49.945,ga_syllabified_check,2022.2.5,Win32,58.82352941,,,,,,,,,,,,,,./stim/p07_syllable_1_tuliafo_hit.wav,p07,tuliafo,hit,tu-lia-fo,tu-lia-fo,tu-li-a-fo, ,-0.412037037,-0.094444487,1,0,0,0.716,text_option_1,,0,61,61,169,1
5f3c8a006375d854f90d73a7,63f3cfca20052e4ae7554ebf,6453c890a1f7a57a5c1b3dc7,2023-05-04_17h00.49.945,ga_syllabified_check,2022.2.5,Win32,58.82352941,,,,,,,,,,,,,,./stim/p07_syllable_1_lakatiaisto_hit.wav,p07,lakatiaisto,hit,la-ka-tiai-sto,la-ka-tiais-to,la-ka-ti-ais-to,la-ka-tia-is-to,0.012962977,-0.112037023,1,0,0,5.599,text_option_3,,0,62,62,154,1
5f3c8a006375d854f90d73a7,63f3cfca20052e4ae7554ebf,6453c890a1f7a57a5c1b3dc7,2023-05-04_17h00.49.945,ga_syllabified_check,2022.2.5,Win32,58.82352941,,,,,,,,,,,,,,./stim/p08_syllable_1_pachialo_hit.wav,p08,pachialo,hit,pa-chi-ja-lo,pa-chia-lo,pa-chi-a-lo, ,0.365740741,-0.103703746,1,0,0,1.516,text_option_2,,0,63,63,194,1
5f3c8a006375d854f90d73a7,63f3cfca20052e4ae7554ebf,6453c890a1f7a57a5c1b3dc7,2023-05-04_17h00.49.945,ga_syllabified_check,2022.2.5,Win32,58.82352941,,,,,,,,,,,,,,./stim/p04_syllable_1_tuliafo_hit.wav,p04,tuliafo,hit,tu-lia-fo,tu-lia-fo,tu-li-a-fo, ,-0.400925919,-0.112037023,1,0,0,0.566,text_option_1,,0,64,64,67,1
5f3c8a006375d854f90d73a7,63f3cfca20052e4ae7554ebf,6453c890a1f7a57a5c1b3dc7,2023-05-04_17h00.49.945,ga_syllabified_check,2022.2.5,Win32,58.82352941,,,,,,,,,,,,,,./stim/p03_syllable_1_lakabiaisto_hit.wav,p03,lakabiaisto,hit,la-ka-biais-to,la-ka-biais-to,la-ka-bi-ais-to,la-ka-bia-is-to,-0.432407414,-0.112963005,1,0,0,1.883,text_option_1,,0,65,65,6,1
5f3c8a006375d854f90d73a7,63f3cfca20052e4ae7554ebf,6453c890a1f7a57a5c1b3dc7,2023-05-04_17h00.49.945,ga_syllabified_check,2022.2.5,Win32,58.82352941,,,,,,,,,,,,,,./stim/p06_syllable_1_lakakiaisto_hit.wav,p06,lakakiaisto,hit,la-ka-kia-is-to,la-ka-kiais-to,la-ka-ki-ais-to,la-ka-kia-is-to,0.08148151,-0.10555557,1,0,0,5.467,text_option_3,,0,66,66,116,1
5f3c8a006375d854f90d73a7,63f3cfca20052e4ae7554ebf,6453c890a1f7a57a5c1b3dc7,2023-05-04_17h00.49.945,ga_syllabified_check,2022.2.5,Win32,58.82352941,,,,,,,,,,,,,,./stim/p07_syllable_1_palufauro_hit.wav,p07,palufauro,hit,pa-lu-fau-ro,pa-lu-fau-ro,pa-lu-fa-u-ro, ,-0.337962963,-0.110185199,1,0,0,1.45,text_option_1,,0,67,67,161,1
5f3c8a006375d854f90d73a7,63f3cfca20052e4ae7554ebf,6453c890a1f7a57a5c1b3dc7,2023-05-04_17h00.49.945,ga_syllabified_check,2022.2.5,Win32,58.82352941,,,,,,,,,,,,,,./stim/p07_syllable_1_chiaba_hit.wav,p07,chiaba,hit,chia-ba,chia-ba,chi-a-ba, ,-0.354629623,-0.094444487,1,0,0,0.484,text_option_1,,0,68,68,136,1
5f3c8a006375d854f90d73a7,63f3cfca20052e4ae7554ebf,6453c890a1f7a57a5c1b3dc7,2023-05-04_17h00.49.945,ga_syllabified_check,2022.2.5,Win32,58.82352941,,,,,,,,,,,,,,./stim/p07_syllable_1_lakaguaisto_hit.wav,p07,lakaguaisto,hit,la-ka-guais-to,la-ka-guais-to,la-ka-gu-ais-to,la-ka-gua-is-to,-0.322222215,-0.10092594,1,0,0,2.033,text_option_1,,0,69,69,149,1
5f3c8a006375d854f90d73a7,63f3cfca20052e4ae7554ebf,6453c890a1f7a57a5c1b3dc7,2023-05-04_17h00.49.945,ga_syllabified_check,2022.2.5,Win32,58.82352941,,,,,,,,,,,,,,./stim/p08_syllable_1_palufauro_hit.wav,p08,palufauro,hit,pa-lu-fau-ro,pa-lu-fau-ro,pa-lu-fa-u-ro, ,-0.322222215,-0.10092594,0,0,1,0.467,text_option_1,,0,70,70,195,1
5f3c8a006375d854f90d73a7,63f3cfca20052e4ae7554ebf,6453c890a1f7a57a5c1b3dc7,2023-05-04_17h00.49.945,ga_syllabified_check,2022.2.5,Win32,58.82352941,,,,,,,,,,,,,,./stim/p08_syllable_1_mebochiana_hit.wav,p08,mebochiana,hit,me-bo-chi-a-na,me-bo-chia-na,me-bo-chi-a-na, ,0.390740712,-0.102777764,1,0,0,3.4,text_option_2,,0,71,71,192,1
5f3c8a006375d854f90d73a7,63f3cfca20052e4ae7554ebf,6453c890a1f7a57a5c1b3dc7,2023-05-04_17h00.49.945,ga_syllabified_check,2022.2.5,Win32,58.82352941,,,,,,,,,,,,,,./stim/p07_syllable_1_lakatuaisto_hit.wav,p07,lakatuaisto,hit,la-ka-tuais-to,la-ka-tuais-to,la-ka-tu-ais-to,la-ka-tua-is-to,-0.305555556,-0.106481481,1,0,0,1.799,text_option_1,,0,72,72,155,1
5f3c8a006375d854f90d73a7,63f3cfca20052e4ae7554ebf,6453c890a1f7a57a5c1b3dc7,2023-05-04_17h00.49.945,ga_syllabified_check,2022.2.5,Win32,58.82352941,,,,,,,,,,,,,,./stim/p05_syllable_1_palumaisto_hit.wav,p05,palumaisto,hit,pa-lu-mais-to,pa-lu-mais-to,pa-lu-ma-is-to, ,-0.304629608,-0.108333376,1,0,0,1.113,text_option_1,,0,73,73,96,1
5f3c8a006375d854f90d73a7,63f3cfca20052e4ae7554ebf,6453c890a1f7a57a5c1b3dc7,2023-05-04_17h00.49.945,ga_syllabified_check,2022.2.5,Win32,58.82352941,,,,,,,,,,,,,,./stim/p08_syllable_1_falutraigo_hit.wav,p08,falutraigo,hit,fa-lu-trai-go,fa-lu-trai-go,fa-lu-tra-i-go, ,-0.338888875,-0.112037023,1,0,0,1.617,text_option_1,,0,74,74,174,1
5f3c8a006375d854f90d73a7,63f3cfca20052e4ae7554ebf,6453c890a1f7a57a5c1b3dc7,2023-05-04_17h00.49.945,ga_syllabified_check,2022.2.5,Win32,58.82352941,,,,,,,,,,,,,,./stim/p05_syllable_1_lakakuaisto_hit.wav,p05,lakakuaisto,hit,la-ka-kais-to,la-ka-kuais-to,la-ka-ku-ais-to,la-ka-kua-is-to,-0.335185192,-0.112963005,1,0,0,4.379,text_option_1,,0,75,75,83,1
5f3c8a006375d854f90d73a7,63f3cfca20052e4ae7554ebf,6453c890a1f7a57a5c1b3dc7,2023-05-04_17h00.49.945,ga_syllabified_check,2022.2.5,Win32,58.82352941,,,,,,,,,,,,,,./stim/p03_syllable_1_tuliafo_hit.wav,p03,tuliafo,hit,tu-lia-fo,tu-lia-fo,tu-li-a-fo, ,-0.375925912,-0.112963005,1,0,0,0.516,text_option_1,,0,76,76,33,1
5f3c8a006375d854f90d73a7,63f3cfca20052e4ae7554ebf,6453c890a1f7a57a5c1b3dc7,2023-05-04_17h00.49.945,ga_syllabified_check,2022.2.5,Win32,58.82352941,,,,,,,,,,,,,,./stim/p04_syllable_1_lakapuaisto_hit.wav,p04,lakapuaisto,hit,la-ka-puais-to,la-ka-puais-to,la-ka-pu-ais-to,la-ka-pua-is-to,-0.375925912,-0.112963005,1,0,0,1.386,text_option_1,,0,77,77,51,1
5f3c8a006375d854f90d73a7,63f3cfca20052e4ae7554ebf,6453c890a1f7a57a5c1b3dc7,2023-05-04_17h00.49.945,ga_syllabified_check,2022.2.5,Win32,58.82352941,,,,,,,,,,,,,,./stim/p03_syllable_1_palutrauco_hit.wav,p03,palutrauco,hit,pa-lu-trau-co,pa-lu-trau-co,pa-lu-tra-u-co, ,-0.357407393,-0.109259288,1,0,0,1.138,text_option_1,,0,78,78,29,1
5f3c8a006375d854f90d73a7,63f3cfca20052e4ae7554ebf,6453c890a1f7a57a5c1b3dc7,2023-05-04_17h00.49.945,ga_syllabified_check,2022.2.5,Win32,58.82352941,,,,,,,,,,,,,,./stim/p05_syllable_1_lakakiaisto_hit.wav,p05,lakakiaisto,hit,la-ka-ki-ais-to,la-ka-kiais-to,la-ka-ki-ais-to,la-ka-kia-is-to,-0.357407393,-0.109259288,1,0,0,1.135,text_option_1,,0,79,79,82,1
5f3c8a006375d854f90d73a7,63f3cfca20052e4ae7554ebf,6453c890a1f7a57a5c1b3dc7,2023-05-04_17h00.49.945,ga_syllabified_check,2022.2.5,Win32,58.82352941,,,,,,,,,,,,,,./stim/p03_syllable_1_lliape_hit.wav,p03,lliape,hit,llia,llia-pe,lli-a-pe, ,-0.357407393,-0.109259288,1,0,0,0.633,text_option_1,,0,80,80,20,1
5f3c8a006375d854f90d73a7,63f3cfca20052e4ae7554ebf,6453c890a1f7a57a5c1b3dc7,2023-05-04_17h00.49.945,ga_syllabified_check,2022.2.5,Win32,58.82352941,,,,,,,,,,,,,,./stim/p07_syllable_1_lakafuaisto_hit.wav,p07,lakafuaisto,hit,la-ka-fuais-to,la-ka-fuais-to,la-ka-fu-ais-to,la-ka-fua-is-to,-0.357407393,-0.109259288,0,0,1,0.284,text_option_1,,0,81,81,147,1
5f3c8a006375d854f90d73a7,63f3cfca20052e4ae7554ebf,6453c890a1f7a57a5c1b3dc7,2023-05-04_17h00.49.945,ga_syllabified_check,2022.2.5,Win32,58.82352941,,,,,,,,,,,,,,./stim/p04_syllable_1_lakakiaisto_hit.wav,p04,lakakiaisto,hit,la-ka-kiais-to,la-ka-kiais-to,la-ka-ki-ais-to,la-ka-kia-is-to,-0.369444423,-0.109259288,1,0,0,1.5,text_option_1,,0,82,82,48,1
5f3c8a006375d854f90d73a7,63f3cfca20052e4ae7554ebf,6453c890a1f7a57a5c1b3dc7,2023-05-04_17h00.49.945,ga_syllabified_check,2022.2.5,Win32,58.82352941,,,,,,,,,,,,,,./stim/p07_syllable_1_faluduako_hit.wav,p07,faluduako,hit,fa-lu-dua-ko,fa-lu-dua-ko,fa-lu-du-a-ko, ,-0.39907406,-0.092592593,1,0,0,1.367,text_option_1,,0,83,83,138,1
5f3c8a006375d854f90d73a7,63f3cfca20052e4ae7554ebf,6453c890a1f7a57a5c1b3dc7,2023-05-04_17h00.49.945,ga_syllabified_check,2022.2.5,Win32,58.82352941,,,,,,,,,,,,,,./stim/p03_syllable_1_faluduako_hit.wav,p03,faluduako,hit,fa-lu-dua-ko,fa-lu-dua-ko,fa-lu-du-a-ko, ,-0.40648146,-0.100000028,1,0,0,1.464,text_option_1,,0,84,84,2,1
5f3c8a006375d854f90d73a7,63f3cfca20052e4ae7554ebf,6453c890a1f7a57a5c1b3dc7,2023-05-04_17h00.49.945,ga_syllabified_check,2022.2.5,Win32,58.82352941,,,,,,,,,,,,,,./stim/p07_syllable_1_lakadiaisto_hit.wav,p07,lakadiaisto,hit,la-ka-dia-is-to,la-ka-diais-to,la-ka-di-ais-to,la-ka-dia-is-to,0.087037051,-0.107407393,1,0,0,3.498,text_option_3,,0,85,85,144,1
5f3c8a006375d854f90d73a7,63f3cfca20052e4ae7554ebf,6453c890a1f7a57a5c1b3dc7,2023-05-04_17h00.49.945,ga_syllabified_check,2022.2.5,Win32,58.82352941,,,,,,,,,,,,,,./stim/p08_syllable_1_nhiape_hit.wav,p08,ñiape,hit,ni-a-pe,ñia-pe,ñi-a-pe, ,0.386111083,-0.095370399,1,0,0,1.085,text_option_2,,0,86,86,193,1
5f3c8a006375d854f90d73a7,63f3cfca20052e4ae7554ebf,6453c890a1f7a57a5c1b3dc7,2023-05-04_17h00.49.945,ga_syllabified_check,2022.2.5,Win32,58.82352941,,,,,,,,,,,,,,./stim/p03_syllable_1_palufauto_hit.wav,p03,palufauto,hit,pa-lu-fau,pa-lu-fau-to,pa-lu-fa-u-to, ,-0.353703711,-0.102777764,1,0,0,1.084,text_option_1,,0,87,87,26,1
5f3c8a006375d854f90d73a7,63f3cfca20052e4ae7554ebf,6453c890a1f7a57a5c1b3dc7,2023-05-04_17h00.49.945,ga_syllabified_check,2022.2.5,Win32,58.82352941,,,,,,,,,,,,,,./stim/p06_syllable_1_lakabuaisto_hit.wav,p06,lakabuaisto,hit,la-ka-bu-a-is,la-ka-buais-to,la-ka-bu-ais-to,la-ka-bua-is-to,0.343518575,-0.110185199,1,0,0,5.132,text_option_2,,0,88,88,109,1
5f3c8a006375d854f90d73a7,63f3cfca20052e4ae7554ebf,6453c890a1f7a57a5c1b3dc7,2023-05-04_17h00.49.945,ga_syllabified_check,2022.2.5,Win32,58.82352941,,,,,,,,,,,,,,./stim/p06_syllable_1_lakaguaisto_hit.wav,p06,lakaguaisto,hit,la-ka-gu-a-is,la-ka-guais-to,la-ka-gu-ais-to,la-ka-gua-is-to,0.333333333,-0.103703746,1,0,0,5.5,text_option_2,,0,89,89,115,1
5f3c8a006375d854f90d73a7,63f3cfca20052e4ae7554ebf,6453c890a1f7a57a5c1b3dc7,2023-05-04_17h00.49.945,ga_syllabified_check,2022.2.5,Win32,58.82352941,,,,,,,,,,,,,,./stim/p03_syllable_1_lakakuaisto_hit.wav,p03,lakakuaisto,hit,la-ka-kuais-to,la-ka-kuais-to,la-ka-ku-ais-to,la-ka-kua-is-to,-0.326851845,-0.106481481,1,0,0,1.831,text_option_1,,0,90,90,15,1
5f3c8a006375d854f90d73a7,63f3cfca20052e4ae7554ebf,6453c890a1f7a57a5c1b3dc7,2023-05-04_17h00.49.945,ga_syllabified_check,2022.2.5,Win32,58.82352941,,,,,,,,,,,,,,./stim/p06_syllable_1_rausto_hit.wav,p06,rausto,hit,ra-us-to,raus-to,ra-us-to, ,0.40833339,-0.114814829,1,0,0,1.783,text_option_2,,0,91,91,133,1
5f3c8a006375d854f90d73a7,63f3cfca20052e4ae7554ebf,6453c890a1f7a57a5c1b3dc7,2023-05-04_17h00.49.945,ga_syllabified_check,2022.2.5,Win32,58.82352941,,,,,,,,,,,,,,./stim/p07_syllable_1_mebochiana_hit.wav,p07,mebochiana,hit,me-bo-chia-na,me-bo-chia-na,me-bo-chi-a-na, ,-0.337037016,-0.108333376,1,0,0,2.335,text_option_1,,0,92,92,158,1
5f3c8a006375d854f90d73a7,63f3cfca20052e4ae7554ebf,6453c890a1f7a57a5c1b3dc7,2023-05-04_17h00.49.945,ga_syllabified_check,2022.2.5,Win32,58.82352941,,,,,,,,,,,,,,./stim/p04_syllable_1_falutraigo_hit.wav,p04,falutraigo,hit,fa-lu-trai-go,fa-lu-trai-go,fa-lu-tra-i-go, ,-0.337962963,-0.108333376,1,0,0,0.876,text_option_1,,0,93,93,38,1
5f3c8a006375d854f90d73a7,63f3cfca20052e4ae7554ebf,6453c890a1f7a57a5c1b3dc7,2023-05-04_17h00.49.945,ga_syllabified_check,2022.2.5,Win32,58.82352941,,,,,,,,,,,,,,./stim/p06_syllable_1_lakabiaisto_hit.wav,p06,lakabiaisto,hit,la-ka-bia-is-to,la-ka-biais-to,la-ka-bi-ais-to,la-ka-bia-is-to,0.037962949,-0.101851852,1,0,0,5.046,text_option_3,,0,94,94,108,1
5f3c8a006375d854f90d73a7,63f3cfca20052e4ae7554ebf,6453c890a1f7a57a5c1b3dc7,2023-05-04_17h00.49.945,ga_syllabified_check,2022.2.5,Win32,58.82352941,,,,,,,,,,,,,,./stim/p05_syllable_1_flauro_hit.wav,p05,flauro,hit,fa-lu-ro,flau-ro,fla-u-ro, ,-0.041666667,-0.297222208,1,0,0,1.469,text_option_other,fa-lu-ro,0,95,95,73,1
5f3c8a006375d854f90d73a7,63f3cfca20052e4ae7554ebf,6453c890a1f7a57a5c1b3dc7,2023-05-04_17h00.49.945,ga_syllabified_check,2022.2.5,Win32,58.82352941,,,,,,,,,,,,,,./stim/p08_syllable_1_tuliafo_hit.wav,p08,tuliafo,hit,tu-li-a-fo,tu-lia-fo,tu-li-a-fo, ,0.3648149,-0.073148162,1,0,0,1.687,text_option_2,,0,96,96,203,1
5f3c8a006375d854f90d73a7,63f3cfca20052e4ae7554ebf,6453c890a1f7a57a5c1b3dc7,2023-05-04_17h00.49.945,ga_syllabified_check,2022.2.5,Win32,58.82352941,,,,,,,,,,,,,,./stim/p04_syllable_1_lakakuaisto_hit.wav,p04,lakakuaisto,hit,la-ka-kuais-to,la-ka-kuais-to,la-ka-ku-ais-to,la-ka-kua-is-to,-0.349999993,-0.109259288,1,0,0,2.138,text_option_1,,0,97,97,49,1
5f3c8a006375d854f90d73a7,63f3cfca20052e4ae7554ebf,6453c890a1f7a57a5c1b3dc7,2023-05-04_17h00.49.945,ga_syllabified_check,2022.2.5,Win32,58.82352941,,,,,,,,,,,,,,./stim/p08_syllable_1_lakafiaisto_hit.wav,p08,lakafiaisto,hit,la-ka-fi-as-to,la-ka-fiais-to,la-ka-fi-ais-to,la-ka-fia-is-to,0.067592621,-0.288888931,1,0,0,6.479,text_option_other,la-ka-fias-to,0,98,98,180,1
5f3c8a006375d854f90d73a7,63f3cfca20052e4ae7554ebf,6453c890a1f7a57a5c1b3dc7,2023-05-04_17h00.49.945,ga_syllabified_check,2022.2.5,Win32,58.82352941,,,,,,,,,,,,,,./stim/p04_syllable_1_costonhialo_hit.wav,p04,costoñialo,hit,cos-to-nhia-lo,cos-to-ñia-lo,cos-to-ñi-a-lo, ,-0.350925905,-0.089814822,1,0,0,3.114,text_option_1,,0,99,99,35,1
5f3c8a006375d854f90d73a7,63f3cfca20052e4ae7554ebf,6453c890a1f7a57a5c1b3dc7,2023-05-04_17h00.49.945,ga_syllabified_check,2022.2.5,Win32,58.82352941,,,,,,,,,,,,,,./stim/p03_syllable_1_manhiala_hit.wav,p03,mañiala,hit,ma-nhia-la,ma-ñia-la,ma-ñi-a-la, ,-0.374074053,-0.09629631,1,0,0,0.896,text_option_1,,0,100,100,21,1
5f3c8a006375d854f90d73a7,63f3cfca20052e4ae7554ebf,6453c890a1f7a57a5c1b3dc7,2023-05-04_17h00.49.945,ga_syllabified_check,2022.2.5,Win32,58.82352941,,,,,,,,,,,,,,./stim/p06_syllable_1_lakadiaisto_hit.wav,p06,lakadiaisto,hit,la-ka-dia-is-to,la-ka-diais-to,la-ka-di-ais-to,la-ka-dia-is-to,0.373148176,-0.108333376,1,0,0,2.701,text_option_2,,0,101,101,110,1
5f3c8a006375d854f90d73a7,63f3cfca20052e4ae7554ebf,6453c890a1f7a57a5c1b3dc7,2023-05-04_17h00.49.945,ga_syllabified_check,2022.2.5,Win32,58.82352941,,,,,,,,,,,,,,./stim/p07_syllable_1_falufaisto_hit.wav,p07,falufaisto,hit,fa-lu-fais-to,fa-lu-fais-to,fa-lu-fa-is-to, ,-0.378703683,-0.098148134,1,0,0,1.913,text_option_1,,0,102,102,139,1
5f3c8a006375d854f90d73a7,63f3cfca20052e4ae7554ebf,6453c890a1f7a57a5c1b3dc7,2023-05-04_17h00.49.945,ga_syllabified_check,2022.2.5,Win32,58.82352941,,,,,,,,,,,,,,./stim/p08_syllable_1_falufaisto_hit.wav,p08,falufaisto,hit,fa-lu-fais-to,fa-lu-fais-to,fa-lu-fa-is-to, ,-0.387962942,-0.090740734,1,0,0,1.716,text_option_1,,0,103,103,173,1
5f3c8a006375d854f90d73a7,63f3cfca20052e4ae7554ebf,6453c890a1f7a57a5c1b3dc7,2023-05-04_17h00.49.945,ga_syllabified_check,2022.2.5,Win32,58.82352941,,,,,,,,,,,,,,./stim/p05_syllable_1_nhiape_hit.wav,p05,ñiape,hit,nhia-pe,ñia-pe,ñi-a-pe, ,-0.420370349,-0.104629658,1,0,0,0.551,text_option_1,,0,104,104,91,1
5f3c8a006375d854f90d73a7,63f3cfca20052e4ae7554ebf,6453c890a1f7a57a5c1b3dc7,2023-05-04_17h00.49.945,ga_syllabified_check,2022.2.5,Win32,58.82352941,,,,,,,,,,,,,,./stim/p04_syllable_1_palutrauco_hit.wav,p04,palutrauco,hit,pa-lu-trau-co,pa-lu-trau-co,pa-lu-tra-u-co, ,-0.419444437,-0.098148134,1,0,0,1.65,text_option_1,,0,105,105,63,1
5f3c8a006375d854f90d73a7,63f3cfca20052e4ae7554ebf,6453c890a1f7a57a5c1b3dc7,2023-05-04_17h00.49.945,ga_syllabified_check,2022.2.5,Win32,58.82352941,,,,,,,,,,,,,,./stim/p07_syllable_1_nhiape_hit.wav,p07,ñiape,hit,nhia-pe,ñia-pe,ñi-a-pe, ,-0.419444437,-0.106481481,1,0,0,0.632,text_option_1,,0,106,106,159,1
5f3c8a006375d854f90d73a7,63f3cfca20052e4ae7554ebf,6453c890a1f7a57a5c1b3dc7,2023-05-04_17h00.49.945,ga_syllabified_check,2022.2.5,Win32,58.82352941,,,,,,,,,,,,,,./stim/p04_syllable_1_palumaisto_hit.wav,p04,palumaisto,hit,pa-lu-mais-to,pa-lu-mais-to,pa-lu-ma-is-to, ,-0.416666667,-0.108333376,1,0,0,0.686,text_option_1,,0,107,107,62,1
5f3c8a006375d854f90d73a7,63f3cfca20052e4ae7554ebf,6453c890a1f7a57a5c1b3dc7,2023-05-04_17h00.49.945,ga_syllabified_check,2022.2.5,Win32,58.82352941,,,,,,,,,,,,,,./stim/p05_syllable_1_lakaduaisto_hit.wav,p05,lakaduaisto,hit,la-ka-dais-to,la-ka-duais-to,la-ka-du-ais-to,la-ka-dua-is-to,-0.021296254,-0.30740745,1,0,0,1.662,text_option_other,la-ka-dais-to,0,108,108,77,1
5f3c8a006375d854f90d73a7,63f3cfca20052e4ae7554ebf,6453c890a1f7a57a5c1b3dc7,2023-05-04_17h00.49.945,ga_syllabified_check,2022.2.5,Win32,58.82352941,,,,,,,,,,,,,,./stim/p07_syllable_1_lliape_hit.wav,p07,lliape,hit,lliai-pe,llia-pe,lli-a-pe, ,0.005555541,-0.306481467,1,0,0,3.25,text_option_other,lliai-pe,0,109,109,156,1
5f3c8a006375d854f90d73a7,63f3cfca20052e4ae7554ebf,6453c890a1f7a57a5c1b3dc7,2023-05-04_17h00.49.945,ga_syllabified_check,2022.2.5,Win32,58.82352941,,,,,,,,,,,,,,./stim/p07_syllable_1_payielo_hit.wav,p07,payielo,hit,pa-yie-lo,pa-yie-lo,pa-yi-e-lo, ,-0.364814794,-0.109259288,1,0,0,1.217,text_option_1,,0,110,110,166,1
5f3c8a006375d854f90d73a7,63f3cfca20052e4ae7554ebf,6453c890a1f7a57a5c1b3dc7,2023-05-04_17h00.49.945,ga_syllabified_check,2022.2.5,Win32,58.82352941,,,,,,,,,,,,,,./stim/p06_syllable_1_manhiala_hit.wav,p06,mañiala,hit,ma-nhi-a-la,ma-ñia-la,ma-ñi-a-la, ,0.414814843,-0.108333376,1,0,0,2,text_option_2,,0,111,111,123,1
5f3c8a006375d854f90d73a7,63f3cfca20052e4ae7554ebf,6453c890a1f7a57a5c1b3dc7,2023-05-04_17h00.49.945,ga_syllabified_check,2022.2.5,Win32,58.82352941,,,,,,,,,,,,,,./stim/p06_syllable_1_tuliafo_hit.wav,p06,tuliafo,hit,tu-li-a-fo,tu-lia-fo,tu-li-a-fo, ,0.387037065,-0.09629631,1,0,0,1.199,text_option_2,,0,112,112,135,1
5f3c8a006375d854f90d73a7,63f3cfca20052e4ae7554ebf,6453c890a1f7a57a5c1b3dc7,2023-05-04_17h00.49.945,ga_syllabified_check,2022.2.5,Win32,58.82352941,,,,,,,,,,,,,,./stim/p06_syllable_1_lakatiaisto_hit.wav,p06,lakatiaisto,hit,la-ka-pia-is-to,la-ka-tiais-to,la-ka-ti-ais-to,la-ka-tia-is-to,0.025925954,-0.098148134,1,0,0,3.899,text_option_3,,0,113,113,120,1
5f3c8a006375d854f90d73a7,63f3cfca20052e4ae7554ebf,6453c890a1f7a57a5c1b3dc7,2023-05-04_17h00.49.945,ga_syllabified_check,2022.2.5,Win32,58.82352941,,,,,,,,,,,,,,./stim/p08_syllable_1_lakatuaisto_hit.wav,p08,lakatuaisto,hit,la-ka-tu-i-jis,la-ka-tuais-to,la-ka-tu-ais-to,la-ka-tua-is-to,-0.007407365,-0.303703732,1,0,0,5.366,text_option_other,la-ka-tui-is-to,0,114,114,189,1
5f3c8a006375d854f90d73a7,63f3cfca20052e4ae7554ebf,6453c890a1f7a57a5c1b3dc7,2023-05-04_17h00.49.945,ga_syllabified_check,2022.2.5,Win32,58.82352941,,,,,,,,,,,,,,./stim/p05_syllable_1_lakagiaisto_hit.wav,p05,lakagiaisto,hit,la-ka-ki-ais-to,la-ka-giais-to,la-ka-gi-ais-to,la-ka-gia-is-to,-0.412037037,-0.097222222,1,0,0,1.9,text_option_1,,0,115,115,80,1
5f3c8a006375d854f90d73a7,63f3cfca20052e4ae7554ebf,6453c890a1f7a57a5c1b3dc7,2023-05-04_17h00.49.945,ga_syllabified_check,2022.2.5,Win32,58.82352941,,,,,,,,,,,,,,./stim/p06_syllable_1_lakafiaisto_hit.wav,p06,lakafiaisto,hit,la-ka-fia-is-to,la-ka-fiais-to,la-ka-fi-ais-to,la-ka-fia-is-to,0.037962949,-0.103703746,1,0,0,3.084,text_option_3,,0,116,116,112,1
5f3c8a006375d854f90d73a7,63f3cfca20052e4ae7554ebf,6453c890a1f7a57a5c1b3dc7,2023-05-04_17h00.49.945,ga_syllabified_check,2022.2.5,Win32,58.82352941,,,,,,,,,,,,,,./stim/p06_syllable_1_mebochiana_hit.wav,p06,mebochiana,hit,me-bo-shi-a-na,me-bo-chia-na,me-bo-chi-a-na, ,0.448148233,-0.107407393,1,0,0,2.65,text_option_2,,0,117,117,124,1
5f3c8a006375d854f90d73a7,63f3cfca20052e4ae7554ebf,6453c890a1f7a57a5c1b3dc7,2023-05-04_17h00.49.945,ga_syllabified_check,2022.2.5,Win32,58.82352941,,,,,,,,,,,,,,./stim/p03_syllable_1_lakafuaisto_hit.wav,p03,lakafuaisto,hit,la-ka-fuais-to,la-ka-fuais-to,la-ka-fu-ais-to,la-ka-fua-is-to,-0.363888882,-0.114814829,1,0,0,1.801,text_option_1,,0,118,118,11,1
5f3c8a006375d854f90d73a7,63f3cfca20052e4ae7554ebf,6453c890a1f7a57a5c1b3dc7,2023-05-04_17h00.49.945,ga_syllabified_check,2022.2.5,Win32,58.82352941,,,,,,,,,,,,,,./stim/p06_syllable_1_palufauro_hit.wav,p06,palufauro,hit,pa-lu-fau-ro,pa-lu-fau-ro,pa-lu-fa-u-ro, ,0.375,-0.103703746,1,0,0,4.584,text_option_2,,0,119,119,127,1
5f3c8a006375d854f90d73a7,63f3cfca20052e4ae7554ebf,6453c890a1f7a57a5c1b3dc7,2023-05-04_17h00.49.945,ga_syllabified_check,2022.2.5,Win32,58.82352941,,,,,,,,,,,,,,./stim/p05_syllable_1_ruyiola_hit.wav,p05,ruyiola,hit,ru-yio-la,ru-yio-la,ru-yi-o-la, ,0.439814815,-0.104629658,1,0,0,4.617,text_option_2,,0,120,120,100,1
5f3c8a006375d854f90d73a7,63f3cfca20052e4ae7554ebf,6453c890a1f7a57a5c1b3dc7,2023-05-04_17h00.49.945,ga_syllabified_check,2022.2.5,Win32,58.82352941,,,,,,,,,,,,,,./stim/p05_syllable_1_palufauto_hit.wav,p05,palufauto,hit,pa-lu-fau-to,pa-lu-fau-to,pa-lu-fa-u-to, ,-0.330555563,-0.098148134,1,0,0,1.2,text_option_1,,0,121,121,94,1
5f3c8a006375d854f90d73a7,63f3cfca20052e4ae7554ebf,6453c890a1f7a57a5c1b3dc7,2023-05-04_17h00.49.945,ga_syllabified_check,2022.2.5,Win32,58.82352941,,,,,,,,,,,,,,./stim/p03_syllable_1_lakatiaisto_hit.wav,p03,lakatiaisto,hit,la-ka-tiais-to,la-ka-tiais-to,la-ka-ti-ais-to,la-ka-tia-is-to,-0.435185185,-0.092592593,1,0,0,2.133,text_option_1,,0,122,122,18,1
5f3c8a006375d854f90d73a7,63f3cfca20052e4ae7554ebf,6453c890a1f7a57a5c1b3dc7,2023-05-04_17h00.49.945,ga_syllabified_check,2022.2.5,Win32,58.82352941,,,,,,,,,,,,,,./stim/p07_syllable_1_paluguato_hit.wav,p07,paluguato,hit,pa-lu-gua-to,pa-lu-gua-to,pa-lu-gu-a-to, ,-0.365740741,-0.111111111,1,0,0,1.434,text_option_1,,0,123,123,163,1
5f3c8a006375d854f90d73a7,63f3cfca20052e4ae7554ebf,6453c890a1f7a57a5c1b3dc7,2023-05-04_17h00.49.945,ga_syllabified_check,2022.2.5,Win32,58.82352941,,,,,,,,,,,,,,./stim/p04_syllable_1_lakagiaisto_hit.wav,p04,lakagiaisto,hit,la-ka-giais-to,la-ka-giais-to,la-ka-gi-ais-to,la-ka-gia-is-to,-0.375925912,-0.112963005,1,0,0,1.816,text_option_1,,0,124,124,46,1
5f3c8a006375d854f90d73a7,63f3cfca20052e4ae7554ebf,6453c890a1f7a57a5c1b3dc7,2023-05-04_17h00.49.945,ga_syllabified_check,2022.2.5,Win32,58.82352941,,,,,,,,,,,,,,./stim/p08_syllable_1_lliape_hit.wav,p08,lliape,hit,li-a-pe,llia-pe,lli-a-pe, ,0.350926011,-0.112037023,1,0,0,0.934,text_option_2,,0,125,125,190,1
5f3c8a006375d854f90d73a7,63f3cfca20052e4ae7554ebf,6453c890a1f7a57a5c1b3dc7,2023-05-04_17h00.49.945,ga_syllabified_check,2022.2.5,Win32,58.82352941,,,,,,,,,,,,,,./stim/p08_syllable_1_costonhialo_hit.wav,p08,costoñialo,hit,cos-to-nhia-lo,cos-to-ñia-lo,cos-to-ñi-a-lo, ,-0.334259245,-0.101851852,1,0,0,1.6,text_option_1,,0,126,126,171,1
5f3c8a006375d854f90d73a7,63f3cfca20052e4ae7554ebf,6453c890a1f7a57a5c1b3dc7,2023-05-04_17h00.49.945,ga_syllabified_check,2022.2.5,Win32,58.82352941,,,,,,,,,,,,,,./stim/p03_syllable_1_costonhialo_hit.wav,p03,costoñialo,hit,cos-to-nhia-lo,cos-to-ñia-lo,cos-to-ñi-a-lo, ,-0.359259252,-0.106481481,1,0,0,1.299,text_option_1,,0,127,127,1,1
5f3c8a006375d854f90d73a7,63f3cfca20052e4ae7554ebf,6453c890a1f7a57a5c1b3dc7,2023-05-04_17h00.49.945,ga_syllabified_check,2022.2.5,Win32,58.82352941,,,,,,,,,,,,,,./stim/p06_syllable_1_lakafuaisto_hit.wav,p06,lakafuaisto,hit,la-ka-fu-a-is,la-ka-fuais-to,la-ka-fu-ais-to,la-ka-fua-is-to,0.008333347,-0.108333376,1,0,0,4.919,text_option_3,,0,128,128,113,1
5f3c8a006375d854f90d73a7,63f3cfca20052e4ae7554ebf,6453c890a1f7a57a5c1b3dc7,2023-05-04_17h00.49.945,ga_syllabified_check,2022.2.5,Win32,58.82352941,,,,,,,,,,,,,,./stim/p08_syllable_1_manhiala_hit.wav,p08,mañiala,hit,ma-nhia-la,ma-ñia-la,ma-ñi-a-la, ,-0.385185171,-0.097222222,1,0,0,1.267,text_option_1,,0,129,129,191,1
5f3c8a006375d854f90d73a7,63f3cfca20052e4ae7554ebf,6453c890a1f7a57a5c1b3dc7,2023-05-04_17h00.49.945,ga_syllabified_check,2022.2.5,Win32,58.82352941,,,,,,,,,,,,,,./stim/p05_syllable_1_lakadiaisto_hit.wav,p05,lakadiaisto,hit,la-ka-di-ais-to,la-ka-diais-to,la-ka-di-ais-to,la-ka-dia-is-to,0.425925926,-0.112963005,1,0,0,3.55,text_option_2,,0,130,130,76,1
5f3c8a006375d854f90d73a7,63f3cfca20052e4ae7554ebf,6453c890a1f7a57a5c1b3dc7,2023-05-04_17h00.49.945,ga_syllabified_check,2022.2.5,Win32,58.82352941,,,,,,,,,,,,,,./stim/p06_syllable_1_faluduako_hit.wav,p06,faluduako,hit,fa-lu-dua-ko,fa-lu-dua-ko,fa-lu-du-a-ko, ,-0.341666645,-0.097222222,1,0,0,3.15,text_option_1,,0,131,131,104,1
5f3c8a006375d854f90d73a7,63f3cfca20052e4ae7554ebf,6453c890a1f7a57a5c1b3dc7,2023-05-04_17h00.49.945,ga_syllabified_check,2022.2.5,Win32,58.82352941,,,,,,,,,,,,,,./stim/p03_syllable_1_lakabuaisto_hit.wav,p03,lakabuaisto,hit,la-ka-buais-to,la-ka-buais-to,la-ka-bu-ais-to,la-ka-bua-is-to,-0.35833334,-0.099074116,1,0,0,1.45,text_option_1,,0,132,132,7,1
5f3c8a006375d854f90d73a7,63f3cfca20052e4ae7554ebf,6453c890a1f7a57a5c1b3dc7,2023-05-04_17h00.49.945,ga_syllabified_check,2022.2.5,Win32,58.82352941,,,,,,,,,,,,,,./stim/p06_syllable_1_nhiape_hit.wav,p06,ñiape,hit,nhi-a-pe,ñia-pe,ñi-a-pe, ,0.425925926,-0.101851852,1,0,0,1.216,text_option_2,,0,133,133,125,1
5f3c8a006375d854f90d73a7,63f3cfca20052e4ae7554ebf,6453c890a1f7a57a5c1b3dc7,2023-05-04_17h00.49.945,ga_syllabified_check,2022.2.5,Win32,58.82352941,,,,,,,,,,,,,,./stim/p05_syllable_1_lakapiaisto_hit.wav,p05,lakapiaisto,hit,la-ka-pais-to,la-ka-piais-to,la-ka-pi-ais-to,la-ka-pia-is-to,-0.374074053,-0.112963005,1,0,0,3.715,text_option_1,,0,134,134,84,1
5f3c8a006375d854f90d73a7,63f3cfca20052e4ae7554ebf,6453c890a1f7a57a5c1b3dc7,2023-05-04_17h00.49.945,ga_syllabified_check,2022.2.5,Win32,58.82352941,,,,,,,,,,,,,,./stim/p07_syllable_1_ruyiola_hit.wav,p07,ruyiola,hit,ru-yio-la,ru-yio-la,ru-yi-o-la, ,-0.369444423,-0.110185199,1,0,0,0.866,text_option_1,,0,135,135,168,1
5f3c8a006375d854f90d73a7,63f3cfca20052e4ae7554ebf,6453c890a1f7a57a5c1b3dc7,2023-05-04_17h00.49.945,ga_syllabified_check,2022.2.5,Win32,58.82352941,,,,,,,,,,,,,,./stim/p06_syllable_1_flauro_hit.wav,p06,flauro,hit,fla-u-ro,flau-ro,fla-u-ro, ,0.398148148,-0.091666681,1,0,0,1.033,text_option_2,,0,136,136,107,1
5f3c8a006375d854f90d73a7,63f3cfca20052e4ae7554ebf,6453c890a1f7a57a5c1b3dc7,2023-05-04_17h00.49.945,ga_syllabified_check,2022.2.5,Win32,58.82352941,,,,,,,,,,,,,,./stim/p04_syllable_1_lakabiaisto_hit.wav,p04,lakabiaisto,hit,la-ka-biais-to,la-ka-biais-to,la-ka-bi-ais-to,la-ka-bia-is-to,-0.302777785,-0.09629631,1,0,0,0.95,text_option_1,,0,137,137,40,1
5f3c8a006375d854f90d73a7,63f3cfca20052e4ae7554ebf,6453c890a1f7a57a5c1b3dc7,2023-05-04_17h00.49.945,ga_syllabified_check,2022.2.5,Win32,58.82352941,,,,,,,,,,,,,,./stim/p04_syllable_1_faluduako_hit.wav,p04,faluduako,hit,fa-lu-dua-ko,fa-lu-dua-ko,fa-lu-du-a-ko, ,-0.329629616,-0.075000021,0,0,1,2.384,text_option_1,,0,138,138,36,1
5f3c8a006375d854f90d73a7,63f3cfca20052e4ae7554ebf,6453c890a1f7a57a5c1b3dc7,2023-05-04_17h00.49.945,ga_syllabified_check,2022.2.5,Win32,58.82352941,,,,,,,,,,,,,,./stim/p03_syllable_1_chiaba_hit.wav,p03,chiaba,hit,chia-ba,chia-ba,chi-a-ba, ,-0.421296296,-0.087037051,1,0,0,55.296,text_option_1,,0,139,139,0,1
5f3c8a006375d854f90d73a7,63f3cfca20052e4ae7554ebf,6453c890a1f7a57a5c1b3dc7,2023-05-04_17h00.49.945,ga_syllabified_check,2022.2.5,Win32,58.82352941,,,,,,,,,,,,,,./stim/p06_syllable_1_lakagiaisto_hit.wav,p06,lakagiaisto,hit,la-ka-gia-is-to,la-ka-giais-to,la-ka-gi-ais-to,la-ka-gia-is-to,-0.012962977,-0.104629658,1,0,0,5.732,text_option_3,,0,140,140,114,1
5f3c8a006375d854f90d73a7,63f3cfca20052e4ae7554ebf,6453c890a1f7a57a5c1b3dc7,2023-05-04_17h00.49.945,ga_syllabified_check,2022.2.5,Win32,58.82352941,,,,,,,,,,,,,,./stim/p04_syllable_1_lakaduaisto_hit.wav,p04,lakaduaisto,hit,la-ka-duais-to,la-ka-duais-to,la-ka-du-ais-to,la-ka-dua-is-to,-0.479629623,-0.101851852,1,0,0,2.083,text_option_1,,0,141,141,43,1
5f3c8a006375d854f90d73a7,63f3cfca20052e4ae7554ebf,6453c890a1f7a57a5c1b3dc7,2023-05-04_17h00.49.945,ga_syllabified_check,2022.2.5,Win32,58.82352941,,,,,,,,,,,,,,./stim/p08_syllable_1_faluduako_hit.wav,p08,faluduako,hit,fa-lu-duai-ko,fa-lu-dua-ko,fa-lu-du-a-ko, ,-0.39166666,-0.09629631,1,0,0,4.017,text_option_1,,0,142,142,172,1
5f3c8a006375d854f90d73a7,63f3cfca20052e4ae7554ebf,6453c890a1f7a57a5c1b3dc7,2023-05-04_17h00.49.945,ga_syllabified_check,2022.2.5,Win32,58.82352941,,,,,,,,,,,,,,./stim/p03_syllable_1_lakapuaisto_hit.wav,p03,lakapuaisto,hit,la-ka-puais-to,la-ka-puais-to,la-ka-pu-ais-to,la-ka-pua-is-to,-0.39166666,-0.09629631,1,0,0,1.917,text_option_1,,0,143,143,17,1
5f3c8a006375d854f90d73a7,63f3cfca20052e4ae7554ebf,6453c890a1f7a57a5c1b3dc7,2023-05-04_17h00.49.945,ga_syllabified_check,2022.2.5,Win32,58.82352941,,,,,,,,,,,,,,./stim/p07_syllable_1_lakakiaisto_hit.wav,p07,lakakiaisto,hit,la-ka-kais-to,la-ka-kiais-to,la-ka-ki-ais-to,la-ka-kia-is-to,0.00462963,-0.298148191,1,0,0,4.501,text_option_other,la-ka-kais-to,0,144,144,150,1
5f3c8a006375d854f90d73a7,63f3cfca20052e4ae7554ebf,6453c890a1f7a57a5c1b3dc7,2023-05-04_17h00.49.945,ga_syllabified_check,2022.2.5,Win32,58.82352941,,,,,,,,,,,,,,./stim/p04_syllable_1_lakafuaisto_hit.wav,p04,lakafuaisto,hit,la-ka-fuais-to,la-ka-fuais-to,la-ka-fu-ais-to,la-ka-fua-is-to,-0.340740734,-0.111111111,1,0,0,1.574,text_option_1,,0,145,145,45,1
5f3c8a006375d854f90d73a7,63f3cfca20052e4ae7554ebf,6453c890a1f7a57a5c1b3dc7,2023-05-04_17h00.49.945,ga_syllabified_check,2022.2.5,Win32,58.82352941,,,,,,,,,,,,,,./stim/p04_syllable_1_lakatuaisto_hit.wav,p04,lakatuaisto,hit,la-ka-kuais-to,la-ka-tuais-to,la-ka-tu-ais-to,la-ka-tua-is-to,-0.344444452,-0.114814829,1,0,0,1.25,text_option_1,,0,146,146,53,1
5f3c8a006375d854f90d73a7,63f3cfca20052e4ae7554ebf,6453c890a1f7a57a5c1b3dc7,2023-05-04_17h00.49.945,ga_syllabified_check,2022.2.5,Win32,58.82352941,,,,,,,,,,,,,,./stim/p06_syllable_1_lakapiaisto_hit.wav,p06,lakapiaisto,hit,la-ka-pia-is-to,la-ka-piais-to,la-ka-pi-ais-to,la-ka-pia-is-to,-0.018518519,-0.10555557,1,0,0,4.382,text_option_3,,0,147,147,118,1
5f3c8a006375d854f90d73a7,63f3cfca20052e4ae7554ebf,6453c890a1f7a57a5c1b3dc7,2023-05-04_17h00.49.945,ga_syllabified_check,2022.2.5,Win32,58.82352941,,,,,,,,,,,,,,./stim/p08_syllable_1_lakapiaisto_hit.wav,p08,lakapiaisto,hit,la-ka-pi-as-to,la-ka-piais-to,la-ka-pi-ais-to,la-ka-pia-is-to,-0.064814815,-0.313888903,1,0,0,3.715,text_option_other,la-ka-pia-is-to,0,148,148,186,1
5f3c8a006375d854f90d73a7,63f3cfca20052e4ae7554ebf,6453c890a1f7a57a5c1b3dc7,2023-05-04_17h00.49.945,ga_syllabified_check,2022.2.5,Win32,58.82352941,,,,,,,,,,,,,,./stim/p07_syllable_1_lakabiaisto_hit.wav,p07,lakabiaisto,hit,la-ka-bais-to,la-ka-biais-to,la-ka-bi-ais-to,la-ka-bia-is-to,0.046296296,-0.115740741,1,0,0,45.011,text_option_3,,0,149,149,142,1
5f3c8a006375d854f90d73a7,63f3cfca20052e4ae7554ebf,6453c890a1f7a57a5c1b3dc7,2023-05-04_17h00.49.945,ga_syllabified_check,2022.2.5,Win32,58.82352941,,,,,,,,,,,,,,./stim/p04_syllable_1_lakafiaisto_hit.wav,p04,lakafiaisto,hit,la-ka-fiais-to,la-ka-fiais-to,la-ka-fi-ais-to,la-ka-fia-is-to,-0.376851859,-0.091666681,1,0,0,1.666,text_option_1,,0,150,150,44,1
5f3c8a006375d854f90d73a7,63f3cfca20052e4ae7554ebf,6453c890a1f7a57a5c1b3dc7,2023-05-04_17h00.49.945,ga_syllabified_check,2022.2.5,Win32,58.82352941,,,,,,,,,,,,,,./stim/p04_syllable_1_flauro_hit.wav,p04,flauro,hit,flau-ro,flau-ro,fla-u-ro, ,-0.380555541,-0.100000028,1,0,0,0.266,text_option_1,,0,151,151,39,1
5f3c8a006375d854f90d73a7,63f3cfca20052e4ae7554ebf,6453c890a1f7a57a5c1b3dc7,2023-05-04_17h00.49.945,ga_syllabified_check,2022.2.5,Win32,58.82352941,,,,,,,,,,,,,,./stim/p03_syllable_1_ruyiola_hit.wav,p03,ruyiola,hit,ru-yio-la,ru-yio-la,ru-yi-o-la, ,-0.3675926,-0.08425928,1,0,0,0.568,text_option_1,,0,152,152,32,1
5f3c8a006375d854f90d73a7,63f3cfca20052e4ae7554ebf,6453c890a1f7a57a5c1b3dc7,2023-05-04_17h00.49.945,ga_syllabified_check,2022.2.5,Win32,58.82352941,,,,,,,,,,,,,,./stim/p06_syllable_1_pachialo_hit.wav,p06,pachialo,hit,pa-shi-a-lo,pa-chia-lo,pa-chi-a-lo, ,0.416666667,-0.110185199,1,0,0,0.984,text_option_2,,0,153,153,126,1
5f3c8a006375d854f90d73a7,63f3cfca20052e4ae7554ebf,6453c890a1f7a57a5c1b3dc7,2023-05-04_17h00.49.945,ga_syllabified_check,2022.2.5,Win32,58.82352941,,,,,,,,,,,,,,./stim/p06_syllable_1_palumaisto_hit.wav,p06,palumaisto,hit,pa-lu-ma-is-to,pa-lu-mais-to,pa-lu-ma-is-to, ,0.410185213,-0.111111111,1,0,0,2.433,text_option_2,,0,154,154,130,1
5f3c8a006375d854f90d73a7,63f3cfca20052e4ae7554ebf,6453c890a1f7a57a5c1b3dc7,2023-05-04_17h00.49.945,ga_syllabified_check,2022.2.5,Win32,58.82352941,,,,,,,,,,,,,,./stim/p04_syllable_1_mebochiana_hit.wav,p04,mebochiana,hit,me-bo-chia-na,me-bo-chia-na,me-bo-chi-a-na, ,-0.427777785,-0.111111111,1,0,0,0.834,text_option_1,,0,155,155,56,1
5f3c8a006375d854f90d73a7,63f3cfca20052e4ae7554ebf,6453c890a1f7a57a5c1b3dc7,2023-05-04_17h00.49.945,ga_syllabified_check,2022.2.5,Win32,58.82352941,,,,,,,,,,,,,,./stim/p04_syllable_1_paluguato_hit.wav,p04,paluguato,hit,pa-lu-gua,pa-lu-gua-to,pa-lu-gu-a-to, ,-0.007407365,-0.282407407,1,0,0,1.9,text_option_other,pa-lu-gua,0,156,156,61,1
5f3c8a006375d854f90d73a7,63f3cfca20052e4ae7554ebf,6453c890a1f7a57a5c1b3dc7,2023-05-04_17h00.49.945,ga_syllabified_check,2022.2.5,Win32,58.82352941,,,,,,,,,,,,,,./stim/p03_syllable_1_lakakiaisto_hit.wav,p03,lakakiaisto,hit,la-ka-kiais-to,la-ka-kiais-to,la-ka-ki-ais-to,la-ka-kia-is-to,-0.378703683,-0.109259288,1,0,0,2.3,text_option_1,,0,157,157,14,1
5f3c8a006375d854f90d73a7,63f3cfca20052e4ae7554ebf,6453c890a1f7a57a5c1b3dc7,2023-05-04_17h00.49.945,ga_syllabified_check,2022.2.5,Win32,58.82352941,,,,,,,,,,,,,,./stim/p08_syllable_1_lakagiaisto_hit.wav,p08,lakagiaisto,hit,la-ka-gi-jas-to,la-ka-giais-to,la-ka-gi-ais-to,la-ka-gia-is-to,0.086111139,-0.09629631,1,0,0,4.716,text_option_3,,0,158,158,182,1
5f3c8a006375d854f90d73a7,63f3cfca20052e4ae7554ebf,6453c890a1f7a57a5c1b3dc7,2023-05-04_17h00.49.945,ga_syllabified_check,2022.2.5,Win32,58.82352941,,,,,,,,,,,,,,./stim/p08_syllable_1_lakakiaisto_hit.wav,p08,lakakiaisto,hit,la-ka-ki-jas-to,la-ka-kiais-to,la-ka-ki-ais-to,la-ka-kia-is-to,0.395370342,-0.109259288,1,0,0,6.216,text_option_2,,0,159,159,184,1
5f3c8a006375d854f90d73a7,63f3cfca20052e4ae7554ebf,6453c890a1f7a57a5c1b3dc7,2023-05-04_17h00.49.945,ga_syllabified_check,2022.2.5,Win32,58.82352941,,,,,,,,,,,,,,./stim/p06_syllable_1_falutraigo_hit.wav,p06,falutraigo,hit,fa-lu-tra-i-go,fa-lu-trai-go,fa-lu-tra-i-go, ,0.399074131,-0.112037023,1,0,0,3.267,text_option_2,,0,160,160,106,1
5f3c8a006375d854f90d73a7,63f3cfca20052e4ae7554ebf,6453c890a1f7a57a5c1b3dc7,2023-05-04_17h00.49.945,ga_syllabified_check,2022.2.5,Win32,58.82352941,,,,,,,,,,,,,,./stim/p05_syllable_1_tuliafo_hit.wav,p05,tuliafo,hit,tu-lai-fo,tu-lia-fo,tu-li-a-fo, ,-0.368518511,-0.095370399,1,0,0,0.984,text_option_1,,0,161,161,101,1
5f3c8a006375d854f90d73a7,63f3cfca20052e4ae7554ebf,6453c890a1f7a57a5c1b3dc7,2023-05-04_17h00.49.945,ga_syllabified_check,2022.2.5,Win32,58.82352941,,,,,,,,,,,,,,./stim/p04_syllable_1_palufauro_hit.wav,p04,palufauro,hit,pa-lu-fau-ro,pa-lu-fau-ro,pa-lu-fa-u-ro, ,-0.457407386,-0.098148134,1,0,0,1.1,text_option_1,,0,162,162,59,1
5f3c8a006375d854f90d73a7,63f3cfca20052e4ae7554ebf,6453c890a1f7a57a5c1b3dc7,2023-05-04_17h00.49.945,ga_syllabified_check,2022.2.5,Win32,58.82352941,,,,,,,,,,,,,,./stim/p03_syllable_1_lakatuaisto_hit.wav,p03,lakatuaisto,hit,la-ka-tuais-to,la-ka-tuais-to,la-ka-tu-ais-to,la-ka-tua-is-to,-0.41574072,-0.087962963,1,0,0,1.482,text_option_1,,0,163,163,19,1
5f3c8a006375d854f90d73a7,63f3cfca20052e4ae7554ebf,6453c890a1f7a57a5c1b3dc7,2023-05-04_17h00.49.945,ga_syllabified_check,2022.2.5,Win32,58.82352941,,,,,,,,,,,,,,./stim/p03_syllable_1_rausto_hit.wav,p03,rausto,hit,raus-to,raus-to,ra-us-to, ,-0.384259259,-0.108333376,1,0,0,0.583,text_option_1,,0,164,164,31,1
5f3c8a006375d854f90d73a7,63f3cfca20052e4ae7554ebf,6453c890a1f7a57a5c1b3dc7,2023-05-04_17h00.49.945,ga_syllabified_check,2022.2.5,Win32,58.82352941,,,,,,,,,,,,,,./stim/p04_syllable_1_lakabuaisto_hit.wav,p04,lakabuaisto,hit,la-ka-buais-to,la-ka-buais-to,la-ka-bu-ais-to,la-ka-bua-is-to,-0.374074053,-0.109259288,1,0,0,1.285,text_option_1,,0,165,165,41,1
5f3c8a006375d854f90d73a7,63f3cfca20052e4ae7554ebf,6453c890a1f7a57a5c1b3dc7,2023-05-04_17h00.49.945,ga_syllabified_check,2022.2.5,Win32,58.82352941,,,,,,,,,,,,,,./stim/p06_syllable_1_costonhialo_hit.wav,p06,costoñialo,hit,cos-to-nhia-lo,cos-to-ñia-lo,cos-to-ñi-a-lo, ,-0.389814801,-0.086111104,1,0,0,2.367,text_option_1,,0,166,166,103,1
5f3c8a006375d854f90d73a7,63f3cfca20052e4ae7554ebf,6453c890a1f7a57a5c1b3dc7,2023-05-04_17h00.49.945,ga_syllabified_check,2022.2.5,Win32,58.82352941,,,,,,,,,,,,,,./stim/p04_syllable_1_payielo_hit.wav,p04,payielo,hit,pa-yie-lo,pa-yie-lo,pa-yi-e-lo, ,-0.397222201,-0.09629631,1,0,0,0.483,text_option_1,,0,167,167,64,1
5f3c8a006375d854f90d73a7,63f3cfca20052e4ae7554ebf,6453c890a1f7a57a5c1b3dc7,2023-05-04_17h00.49.945,ga_syllabified_check,2022.2.5,Win32,58.82352941,,,,,,,,,,,,,,./stim/p05_syllable_1_lakatuaisto_hit.wav,p05,lakatuaisto,hit,la-ka-tais-to,la-ka-tuais-to,la-ka-tu-ais-to,la-ka-tua-is-to,-0.359259252,-0.104629658,1,0,0,2.716,text_option_1,,0,168,168,87,1
5f3c8a006375d854f90d73a7,63f3cfca20052e4ae7554ebf,6453c890a1f7a57a5c1b3dc7,2023-05-04_17h00.49.945,ga_syllabified_check,2022.2.5,Win32,58.82352941,,,,,,,,,,,,,,./stim/p07_syllable_1_flauro_hit.wav,p07,flauro,hit,flau-ro,flau-ro,fla-u-ro, ,-0.359259252,-0.104629658,1,0,0,0.167,text_option_1,,0,169,169,141,1
5f3c8a006375d854f90d73a7,63f3cfca20052e4ae7554ebf,6453c890a1f7a57a5c1b3dc7,2023-05-04_17h00.49.945,ga_syllabified_check,2022.2.5,Win32,58.82352941,,,,,,,,,,,,,,./stim/p04_syllable_1_lakadiaisto_hit.wav,p04,lakadiaisto,hit,la-ka-dias-to,la-ka-diais-to,la-ka-di-ais-to,la-ka-dia-is-to,-0.359259252,-0.104629658,1,0,0,0.949,text_option_1,,0,170,170,42,1
5f3c8a006375d854f90d73a7,63f3cfca20052e4ae7554ebf,6453c890a1f7a57a5c1b3dc7,2023-05-04_17h00.49.945,ga_syllabified_check,2022.2.5,Win32,58.82352941,,,,,,,,,,,,,,./stim/p05_syllable_1_chiaba_hit.wav,p05,chiaba,hit,chia-ba,chia-ba,chi-a-ba, ,-0.359259252,-0.104629658,1,0,0,0.667,text_option_1,,0,171,171,68,1
5f3c8a006375d854f90d73a7,63f3cfca20052e4ae7554ebf,6453c890a1f7a57a5c1b3dc7,2023-05-04_17h00.49.945,ga_syllabified_check,2022.2.5,Win32,58.82352941,,,,,,,,,,,,,,./stim/p05_syllable_1_falutraigo_hit.wav,p05,falutraigo,hit,fa-lu-trai-go,fa-lu-trai-go,fa-lu-tra-i-go, ,-0.359259252,-0.104629658,1,0,0,0.75,text_option_1,,0,172,172,72,1
5f3c8a006375d854f90d73a7,63f3cfca20052e4ae7554ebf,6453c890a1f7a57a5c1b3dc7,2023-05-04_17h00.49.945,ga_syllabified_check,2022.2.5,Win32,58.82352941,,,,,,,,,,,,,,./stim/p08_syllable_1_lakakuaisto_hit.wav,p08,lakakuaisto,hit,la-ka-ku-ais-to,la-ka-kuais-to,la-ka-ku-ais-to,la-ka-kua-is-to,0.40370376,-0.102777764,1,0,0,2.65,text_option_2,,0,173,173,185,1
5f3c8a006375d854f90d73a7,63f3cfca20052e4ae7554ebf,6453c890a1f7a57a5c1b3dc7,2023-05-04_17h00.49.945,ga_syllabified_check,2022.2.5,Win32,58.82352941,,,,,,,,,,,,,,./stim/p03_syllable_1_falutraigo_hit.wav,p03,falutraigo,hit,fa-lu-trai-go,fa-lu-trai-go,fa-lu-tra-i-go, ,-0.336111104,-0.112963005,1,0,0,1.267,text_option_1,,0,174,174,4,1
5f3c8a006375d854f90d73a7,63f3cfca20052e4ae7554ebf,6453c890a1f7a57a5c1b3dc7,2023-05-04_17h00.49.945,ga_syllabified_check,2022.2.5,Win32,58.82352941,,,,,,,,,,,,,,./stim/p07_syllable_1_pachialo_hit.wav,p07,pachialo,hit,pa-cha-lo,pa-chia-lo,pa-chi-a-lo, ,-0.330555563,-0.108333376,1,0,0,1.467,text_option_1,,0,175,175,160,1
5f3c8a006375d854f90d73a7,63f3cfca20052e4ae7554ebf,6453c890a1f7a57a5c1b3dc7,2023-05-04_17h00.49.945,ga_syllabified_check,2022.2.5,Win32,58.82352941,,,,,,,,,,,,,,./stim/p04_syllable_1_rausto_hit.wav,p04,rausto,hit,raus-to,raus-to,ra-us-to, ,-0.372222229,-0.10092594,1,0,0,1.7,text_option_1,,0,176,176,65,1
5f3c8a006375d854f90d73a7,63f3cfca20052e4ae7554ebf,6453c890a1f7a57a5c1b3dc7,2023-05-04_17h00.49.945,ga_syllabified_check,2022.2.5,Win32,58.82352941,,,,,,,,,,,,,,./stim/p05_syllable_1_lakabiaisto_hit.wav,p05,lakabiaisto,hit,la-ka-bi-ais-to,la-ka-biais-to,la-ka-bi-ais-to,la-ka-bia-is-to,-0.381481489,-0.10092594,1,0,0,1.532,text_option_1,,0,177,177,74,1
5f3c8a006375d854f90d73a7,63f3cfca20052e4ae7554ebf,6453c890a1f7a57a5c1b3dc7,2023-05-04_17h00.49.945,ga_syllabified_check,2022.2.5,Win32,58.82352941,,,,,,,,,,,,,,./stim/p03_syllable_1_falufaisto_hit.wav,p03,falufaisto,hit,fa-lu-fais-to,fa-lu-fais-to,fa-lu-fa-is-to, ,-0.375925912,-0.097222222,1,0,0,2.816,text_option_1,,0,178,178,3,1
5f3c8a006375d854f90d73a7,63f3cfca20052e4ae7554ebf,6453c890a1f7a57a5c1b3dc7,2023-05-04_17h00.49.945,ga_syllabified_check,2022.2.5,Win32,58.82352941,,,,,,,,,,,,,,./stim/p08_syllable_1_palufauto_hit.wav,p08,palufauto,hit,pa-lu-fau-to,pa-lu-fau-to,pa-lu-fa-u-to, ,-0.400000007,-0.103703746,1,0,0,2.599,text_option_1,,0,179,179,196,1
5f3c8a006375d854f90d73a7,63f3cfca20052e4ae7554ebf,6453c890a1f7a57a5c1b3dc7,2023-05-04_17h00.49.945,ga_syllabified_check,2022.2.5,Win32,58.82352941,,,,,,,,,,,,,,./stim/p06_syllable_1_paluguato_hit.wav,p06,paluguato,hit,pa-lu-gua-to,pa-lu-gua-to,pa-lu-gu-a-to, ,-0.400000007,-0.103703746,1,0,0,2.333,text_option_1,,0,180,180,129,1
5f3c8a006375d854f90d73a7,63f3cfca20052e4ae7554ebf,6453c890a1f7a57a5c1b3dc7,2023-05-04_17h00.49.945,ga_syllabified_check,2022.2.5,Win32,58.82352941,,,,,,,,,,,,,,./stim/p08_syllable_1_palumaisto_hit.wav,p08,palumaisto,hit,pa-lu-mais-to,pa-lu-mais-to,pa-lu-ma-is-to, ,-0.400000007,-0.103703746,1,0,0,1.533,text_option_1,,0,181,181,198,1
5f3c8a006375d854f90d73a7,63f3cfca20052e4ae7554ebf,6453c890a1f7a57a5c1b3dc7,2023-05-04_17h00.49.945,ga_syllabified_check,2022.2.5,Win32,58.82352941,,,,,,,,,,,,,,./stim/p06_syllable_1_palufauto_hit.wav,p06,palufauto,hit,pa-lu-fau-to,pa-lu-fau-to,pa-lu-fa-u-to, ,-0.400000007,-0.103703746,1,0,0,2.933,text_option_1,,0,182,182,128,1
5f3c8a006375d854f90d73a7,63f3cfca20052e4ae7554ebf,6453c890a1f7a57a5c1b3dc7,2023-05-04_17h00.49.945,ga_syllabified_check,2022.2.5,Win32,58.82352941,,,,,,,,,,,,,,./stim/p08_syllable_1_lakabiaisto_hit.wav,p08,lakabiaisto,hit,la-ka-bi-as-to,la-ka-biais-to,la-ka-bi-ais-to,la-ka-bia-is-to,0.470370399,-0.112037023,1,0,0,2.983,text_option_2,,0,183,183,176,1
5f3c8a006375d854f90d73a7,63f3cfca20052e4ae7554ebf,6453c890a1f7a57a5c1b3dc7,2023-05-04_17h00.49.945,ga_syllabified_check,2022.2.5,Win32,58.82352941,,,,,,,,,,,,,,./stim/p03_syllable_1_lakagiaisto_hit.wav,p03,lakagiaisto,hit,la-ka-giais-to,la-ka-giais-to,la-ka-gi-ais-to,la-ka-gia-is-to,-0.39166666,-0.115740741,1,0,0,1.466,text_option_1,,0,184,184,12,1
5f3c8a006375d854f90d73a7,63f3cfca20052e4ae7554ebf,6453c890a1f7a57a5c1b3dc7,2023-05-04_17h00.49.945,ga_syllabified_check,2022.2.5,Win32,58.82352941,,,,,,,,,,,,,,./stim/p05_syllable_1_palutrauco_hit.wav,p05,palutrauco,hit,pa-lu-trai-co,pa-lu-trau-co,pa-lu-tra-u-co, ,-0.431481467,-0.107407393,1,0,0,1.465,text_option_1,,0,185,185,97,1
5f3c8a006375d854f90d73a7,63f3cfca20052e4ae7554ebf,6453c890a1f7a57a5c1b3dc7,2023-05-04_17h00.49.945,ga_syllabified_check,2022.2.5,Win32,58.82352941,,,,,,,,,,,,,,./stim/p08_syllable_1_lakaguaisto_hit.wav,p08,lakaguaisto,hit,la-ka-gu-ais-to,la-ka-guais-to,la-ka-gu-ais-to,la-ka-gua-is-to,0.395370342,-0.108333376,1,0,0,3.899,text_option_2,,0,186,186,183,1
5f3c8a006375d854f90d73a7,63f3cfca20052e4ae7554ebf,6453c890a1f7a57a5c1b3dc7,2023-05-04_17h00.49.945,ga_syllabified_check,2022.2.5,Win32,58.82352941,,,,,,,,,,,,,,./stim/p07_syllable_1_rausto_hit.wav,p07,rausto,hit,raus-to,raus-to,ra-us-to, ,-0.375925912,-0.098148134,1,0,0,0.599,text_option_1,,0,187,187,167,1
5f3c8a006375d854f90d73a7,63f3cfca20052e4ae7554ebf,6453c890a1f7a57a5c1b3dc7,2023-05-04_17h00.49.945,ga_syllabified_check,2022.2.5,Win32,58.82352941,,,,,,,,,,,,,,./stim/p07_syllable_1_lakaduaisto_hit.wav,p07,lakaduaisto,hit,la-ka-duais-to,la-ka-duais-to,la-ka-du-ais-to,la-ka-dua-is-to,-0.38703703,-0.106481481,1,0,0,2.167,text_option_1,,0,188,188,145,1
5f3c8a006375d854f90d73a7,63f3cfca20052e4ae7554ebf,6453c890a1f7a57a5c1b3dc7,2023-05-04_17h00.49.945,ga_syllabified_check,2022.2.5,Win32,58.82352941,,,,,,,,,,,,,,./stim/p07_syllable_1_lakakuaisto_hit.wav,p07,lakakuaisto,hit,la-ka-kuais-to,la-ka-kuais-to,la-ka-ku-ais-to,la-ka-kua-is-to,-0.37962963,-0.097222222,1,0,0,2.265,text_option_1,,0,189,189,151,1
5f3c8a006375d854f90d73a7,63f3cfca20052e4ae7554ebf,6453c890a1f7a57a5c1b3dc7,2023-05-04_17h00.49.945,ga_syllabified_check,2022.2.5,Win32,58.82352941,,,,,,,,,,,,,,./stim/p08_syllable_1_lakapuaisto_hit.wav,p08,lakapuaisto,hit,la-ka-pu-as-to,la-ka-puais-to,la-ka-pu-ais-to,la-ka-pua-is-to,-0.336111104,-0.111111111,1,0,0,3.015,text_option_1,,0,190,190,187,1
5f3c8a006375d854f90d73a7,63f3cfca20052e4ae7554ebf,6453c890a1f7a57a5c1b3dc7,2023-05-04_17h00.49.945,ga_syllabified_check,2022.2.5,Win32,58.82352941,,,,,,,,,,,,,,./stim/p03_syllable_1_pachialo_hit.wav,p03,pachialo,hit,pa-chia-lo,pa-chia-lo,pa-chi-a-lo, ,-0.366666653,-0.109259288,1,0,0,1,text_option_1,,0,191,191,24,1
5f3c8a006375d854f90d73a7,63f3cfca20052e4ae7554ebf,6453c890a1f7a57a5c1b3dc7,2023-05-04_17h00.49.945,ga_syllabified_check,2022.2.5,Win32,58.82352941,,,,,,,,,,,,,,./stim/p07_syllable_1_lakagiaisto_hit.wav,p07,lakagiaisto,hit,la-ka-gais-to,la-ka-giais-to,la-ka-gi-ais-to,la-ka-gia-is-to,-0.376851859,-0.116666653,1,0,0,2.633,text_option_1,,0,192,192,148,1
5f3c8a006375d854f90d73a7,63f3cfca20052e4ae7554ebf,6453c890a1f7a57a5c1b3dc7,2023-05-04_17h00.49.945,ga_syllabified_check,2022.2.5,Win32,58.82352941,,,,,,,,,,,,,,./stim/p03_syllable_1_lakapiaisto_hit.wav,p03,lakapiaisto,hit,la-ka-piais-to,la-ka-piais-to,la-ka-pi-ais-to,la-ka-pia-is-to,-0.385185171,-0.118518547,1,0,0,1.316,text_option_1,,0,193,193,16,1
5f3c8a006375d854f90d73a7,63f3cfca20052e4ae7554ebf,6453c890a1f7a57a5c1b3dc7,2023-05-04_17h00.49.945,ga_syllabified_check,2022.2.5,Win32,58.82352941,,,,,,,,,,,,,,./stim/p05_syllable_1_falufaisto_hit.wav,p05,falufaisto,hit,fa-lu-fais-to,fa-lu-fais-to,fa-lu-fa-is-to, ,-0.376851859,-0.111111111,1,0,0,0.8,text_option_1,,0,194,194,71,1
5f3c8a006375d854f90d73a7,63f3cfca20052e4ae7554ebf,6453c890a1f7a57a5c1b3dc7,2023-05-04_17h00.49.945,ga_syllabified_check,2022.2.5,Win32,58.82352941,,,,,,,,,,,,,,./stim/p08_syllable_1_flauro_hit.wav,p08,flauro,hit,flau-ro,flau-ro,fla-u-ro, ,-0.376851859,-0.111111111,1,0,0,0.582,text_option_1,,0,195,195,175,1
5f3c8a006375d854f90d73a7,63f3cfca20052e4ae7554ebf,6453c890a1f7a57a5c1b3dc7,2023-05-04_17h00.49.945,ga_syllabified_check,2022.2.5,Win32,58.82352941,,,,,,,,,,,,,,./stim/p08_syllable_1_lakadiaisto_hit.wav,p08,lakadiaisto,hit,la-ka-di-jas-to,la-ka-diais-to,la-ka-di-ais-to,la-ka-dia-is-to,0.315740797,-0.111111111,1,0,0,6.532,text_option_2,,0,196,196,178,1
5f3c8a006375d854f90d73a7,63f3cfca20052e4ae7554ebf,6453c890a1f7a57a5c1b3dc7,2023-05-04_17h00.49.945,ga_syllabified_check,2022.2.5,Win32,58.82352941,,,,,,,,,,,,,,./stim/p07_syllable_1_falutraigo_hit.wav,p07,falutraigo,hit,fa-lu-trai-go,fa-lu-trai-go,fa-lu-tra-i-go, ,-0.361111111,-0.102777764,1,0,0,2.65,text_option_1,,0,197,197,140,1
5f3c8a006375d854f90d73a7,63f3cfca20052e4ae7554ebf,6453c890a1f7a57a5c1b3dc7,2023-05-04_17h00.49.945,ga_syllabified_check,2022.2.5,Win32,58.82352941,,,,,,,,,,,,,,./stim/p06_syllable_1_lakakuaisto_hit.wav,p06,lakakuaisto,hit,la-ka-ku-a-is,la-ka-kuais-to,la-ka-ku-ais-to,la-ka-kua-is-to,0.000925912,-0.291666667,1,0,0,3.333,text_option_other,la-ka-ku-a-is-to,0,198,198,117,1
5f3c8a006375d854f90d73a7,63f3cfca20052e4ae7554ebf,6453c890a1f7a57a5c1b3dc7,2023-05-04_17h00.49.945,ga_syllabified_check,2022.2.5,Win32,58.82352941,,,,,,,,,,,,,,./stim/p06_syllable_1_lliape_hit.wav,p06,lliape,hit,lli-lla-pe,llia-pe,lli-a-pe, ,0.377777806,-0.115740741,1,0,0,1.051,text_option_2,,0,199,199,122,1
5f3c8a006375d854f90d73a7,63f3cfca20052e4ae7554ebf,6453c890a1f7a57a5c1b3dc7,2023-05-04_17h00.49.945,ga_syllabified_check,2022.2.5,Win32,58.82352941,,,,,,,,,,,,,,./stim/p07_syllable_1_palumaisto_hit.wav,p07,palumaisto,hit,pa-lu-mais-to,pa-lu-mais-to,pa-lu-ma-is-to, ,-0.373148141,-0.099074116,1,0,0,2.766,text_option_1,,0,200,200,164,1
5f3c8a006375d854f90d73a7,63f3cfca20052e4ae7554ebf,6453c890a1f7a57a5c1b3dc7,2023-05-04_17h00.49.945,ga_syllabified_check,2022.2.5,Win32,58.82352941,,,,,,,,,,,,,,./stim/p05_syllable_1_lakatiaisto_hit.wav,p05,lakatiaisto,hit,la-ka-ti-ais-to,la-ka-tiais-to,la-ka-ti-ais-to,la-ka-tia-is-to,-0.317592586,-0.10555557,1,0,0,1.501,text_option_1,,0,201,201,86,1
5f3c8a006375d854f90d73a7,63f3cfca20052e4ae7554ebf,6453c890a1f7a57a5c1b3dc7,2023-05-04_17h00.49.945,ga_syllabified_check,2022.2.5,Win32,58.82352941,,,,,,,,,,,,,,./stim/p05_syllable_1_lakafuaisto_hit.wav,p05,lakafuaisto,hit,la-ka-fais-to,la-ka-fuais-to,la-ka-fu-ais-to,la-ka-fua-is-to,-0.316666674,-0.10555557,1,0,0,1.065,text_option_1,,0,202,202,79,1
5f3c8a006375d854f90d73a7,63f3cfca20052e4ae7554ebf,6453c890a1f7a57a5c1b3dc7,2023-05-04_17h00.49.945,ga_syllabified_check,2022.2.5,Win32,58.82352941,,,,,,,,,,,,,,./stim/p05_syllable_1_manhiala_hit.wav,p05,mañiala,hit,ma-nhia-la,ma-ñia-la,ma-ñi-a-la, ,-0.36296297,-0.118518547,1,0,0,0.616,text_option_1,,0,203,203,89,1
5f3c8a006375d854f90d73a7,63f3cfca20052e4ae7554ebf,6453c890a1f7a57a5c1b3dc7,2023-05-04_17h00.49.945,ga_syllabified_check,2022.2.5,Win32,58.82352941,,,,,,,,,,,,,,,,,,,,,,,,,,,,,,,,,,
