participant,study,session,date,expName,psychopyVersion,OS,frameRate,mouse_practice.x,mouse_practice.y,mouse_practice.leftButton,mouse_practice.midButton,mouse_practice.rightButton,mouse_practice.time,mouse_practice.clicked_name,textbox_followup_practice.text,trials_practice.thisRepN,trials_practice.thisTrialN,trials_practice.thisN,trials_practice.thisIndex,trials_practice.ran,file_path,id,item,status,response,op1,op2,op3,mouse.x,mouse.y,mouse.leftButton,mouse.midButton,mouse.rightButton,mouse.time,mouse.clicked_name,textbox_followup.text,trials.thisRepN,trials.thisTrialN,trials.thisN,trials.thisIndex,trials.ran
5f5aa7a073b8271a0ab0947c,63f3cfca20052e4ae7554ebf,6453cc0a001b050e56deb016,2023-05-04_17h16.15.873,ga_syllabified_check,2022.2.5,Win32,144.0714594,,,,,,,,,,,,,,,,,,,,,,,,,,,,,,,,,,
5f5aa7a073b8271a0ab0947c,63f3cfca20052e4ae7554ebf,6453cc0a001b050e56deb016,2023-05-04_17h16.15.873,ga_syllabified_check,2022.2.5,Win32,144.0714594,-0.398078975,-0.105122732,1,0,0,1.6734,text_option_1_practice,,0,0,0,0,1,./stim/p03_syllable_1_liamo_hit.wav,p03,liamo,hit,lia-mo,lia-mo,li-a-mo, ,,,,,,,,,,,,,
5f5aa7a073b8271a0ab0947c,63f3cfca20052e4ae7554ebf,6453cc0a001b050e56deb016,2023-05-04_17h16.15.873,ga_syllabified_check,2022.2.5,Win32,144.0714594,-0.376734258,-0.105122732,1,0,0,1.1198,text_option_1_practice,,0,1,1,1,1,./stim/p05_syllable_1_matio_hit.wav,p05,matio,hit,ma-tio,ma-tio,ma-ti-o, ,,,,,,,,,,,,,
5f5aa7a073b8271a0ab0947c,63f3cfca20052e4ae7554ebf,6453cc0a001b050e56deb016,2023-05-04_17h16.15.873,ga_syllabified_check,2022.2.5,Win32,144.0714594,-0.383137673,-0.104055496,1,0,0,1.9375,text_option_1_practice,,0,2,2,2,1,./stim/p08_syllable_1_liamo_hit.wav,p08,liamo,hit,ja-mo,lia-mo,li-a-mo, ,,,,,,,,,,,,,
5f5aa7a073b8271a0ab0947c,63f3cfca20052e4ae7554ebf,6453cc0a001b050e56deb016,2023-05-04_17h16.15.873,ga_syllabified_check,2022.2.5,Win32,144.0714594,,,,,,,,,,,,,,,,,,,,,,,,,,,,,,,,,,
5f5aa7a073b8271a0ab0947c,63f3cfca20052e4ae7554ebf,6453cc0a001b050e56deb016,2023-05-04_17h16.15.873,ga_syllabified_check,2022.2.5,Win32,144.0714594,,,,,,,,,,,,,,./stim/p03_syllable_1_palufauto_hit.wav,p03,palufauto,hit,pa-lu-fau,pa-lu-fau-to,pa-lu-fa-u-to, ,-0.308431163,-0.110458911,1,0,0,1.8433,text_option_1,,0,0,0,26,1
5f5aa7a073b8271a0ab0947c,63f3cfca20052e4ae7554ebf,6453cc0a001b050e56deb016,2023-05-04_17h16.15.873,ga_syllabified_check,2022.2.5,Win32,144.0714594,,,,,,,,,,,,,,./stim/p07_syllable_1_lliape_hit.wav,p07,lliape,hit,lliai-pe,llia-pe,lli-a-pe, ,-0.369263607,-0.112593383,1,0,0,1.3889,text_option_1,,0,1,1,156,1
5f5aa7a073b8271a0ab0947c,63f3cfca20052e4ae7554ebf,6453cc0a001b050e56deb016,2023-05-04_17h16.15.873,ga_syllabified_check,2022.2.5,Win32,144.0714594,,,,,,,,,,,,,,./stim/p07_syllable_1_lakapiaisto_hit.wav,p07,lakapiaisto,hit,la-ka-pia-sto,la-ka-piais-to,la-ka-pi-ais-to,la-ka-pia-is-to,-0.384204909,-0.088046958,1,0,0,5.2058,text_option_1,,0,2,2,152,1
5f5aa7a073b8271a0ab0947c,63f3cfca20052e4ae7554ebf,6453cc0a001b050e56deb016,2023-05-04_17h16.15.873,ga_syllabified_check,2022.2.5,Win32,144.0714594,,,,,,,,,,,,,,./stim/p06_syllable_1_tuliafo_hit.wav,p06,tuliafo,hit,tu-li-a-fo,tu-lia-fo,tu-li-a-fo, ,0.352187834,-0.096584845,1,0,0,2.7081,text_option_2,,0,3,3,135,1
5f5aa7a073b8271a0ab0947c,63f3cfca20052e4ae7554ebf,6453cc0a001b050e56deb016,2023-05-04_17h16.15.873,ga_syllabified_check,2022.2.5,Win32,144.0714594,,,,,,,,,,,,,,./stim/p03_syllable_1_faluduako_hit.wav,p03,faluduako,hit,fa-lu-dua-ko,fa-lu-dua-ko,fa-lu-du-a-ko, ,-0.32977588,-0.089114194,1,0,0,1.9277,text_option_1,,0,4,4,2,1
5f5aa7a073b8271a0ab0947c,63f3cfca20052e4ae7554ebf,6453cc0a001b050e56deb016,2023-05-04_17h16.15.873,ga_syllabified_check,2022.2.5,Win32,144.0714594,,,,,,,,,,,,,,./stim/p08_syllable_1_lakafiaisto_hit.wav,p08,lakafiaisto,hit,la-ka-fi-as-to,la-ka-fiais-to,la-ka-fi-ais-to,la-ka-fia-is-to,-0.017075774,-0.117929562,1,0,0,8.5347,text_option_3,,0,5,5,180,1
5f5aa7a073b8271a0ab0947c,63f3cfca20052e4ae7554ebf,6453cc0a001b050e56deb016,2023-05-04_17h16.15.873,ga_syllabified_check,2022.2.5,Win32,144.0714594,,,,,,,,,,,,,,./stim/p03_syllable_1_lliape_hit.wav,p03,lliape,hit,llia,llia-pe,lli-a-pe, ,-0.369263607,-0.09018143,1,0,0,1.5137,text_option_1,,0,6,6,20,1
5f5aa7a073b8271a0ab0947c,63f3cfca20052e4ae7554ebf,6453cc0a001b050e56deb016,2023-05-04_17h16.15.873,ga_syllabified_check,2022.2.5,Win32,144.0714594,,,,,,,,,,,,,,./stim/p06_syllable_1_pachialo_hit.wav,p06,pachialo,hit,pa-shi-a-lo,pa-chia-lo,pa-chi-a-lo, ,0.361792956,-0.120064034,1,0,0,1.3727,text_option_2,,0,7,7,126,1
5f5aa7a073b8271a0ab0947c,63f3cfca20052e4ae7554ebf,6453cc0a001b050e56deb016,2023-05-04_17h16.15.873,ga_syllabified_check,2022.2.5,Win32,144.0714594,,,,,,,,,,,,,,./stim/p08_syllable_1_palufauro_hit.wav,p08,palufauro,hit,pa-lu-fau-ro,pa-lu-fau-ro,pa-lu-fa-u-ro, ,-0.421558164,-0.112593383,1,0,0,2.9441,text_option_1,,0,8,8,195,1
5f5aa7a073b8271a0ab0947c,63f3cfca20052e4ae7554ebf,6453cc0a001b050e56deb016,2023-05-04_17h16.15.873,ga_syllabified_check,2022.2.5,Win32,144.0714594,,,,,,,,,,,,,,./stim/p08_syllable_1_lakaduaisto_hit.wav,p08,lakaduaisto,hit,la-ka-du-ais-to,la-ka-duais-to,la-ka-du-ais-to,la-ka-dua-is-to,0.078975454,-0.10298826,1,0,0,2.7292,text_option_3,,0,9,9,179,1
5f5aa7a073b8271a0ab0947c,63f3cfca20052e4ae7554ebf,6453cc0a001b050e56deb016,2023-05-04_17h16.15.873,ga_syllabified_check,2022.2.5,Win32,144.0714594,,,,,,,,,,,,,,./stim/p04_syllable_1_lakatiaisto_hit.wav,p04,lakatiaisto,hit,la-ka-kiais-to,la-ka-tiais-to,la-ka-ti-ais-to,la-ka-tia-is-to,-0.39701174,-0.094450374,1,0,0,2.8958,text_option_1,,0,10,10,52,1
5f5aa7a073b8271a0ab0947c,63f3cfca20052e4ae7554ebf,6453cc0a001b050e56deb016,2023-05-04_17h16.15.873,ga_syllabified_check,2022.2.5,Win32,144.0714594,,,,,,,,,,,,,,./stim/p06_syllable_1_lakafuaisto_hit.wav,p06,lakafuaisto,hit,la-ka-fu-a-is,la-ka-fuais-to,la-ka-fu-ais-to,la-ka-fua-is-to,0.034151547,-0.304695838,1,0,0,6.0971,text_option_other,lau-kau-fi-as-to,0,11,11,113,1
5f5aa7a073b8271a0ab0947c,63f3cfca20052e4ae7554ebf,6453cc0a001b050e56deb016,2023-05-04_17h16.15.873,ga_syllabified_check,2022.2.5,Win32,144.0714594,,,,,,,,,,,,,,./stim/p05_syllable_1_lakakiaisto_hit.wav,p05,lakakiaisto,hit,la-ka-ki-ais-to,la-ka-kiais-to,la-ka-ki-ais-to,la-ka-kia-is-to,-0.3660619,-0.107257204,1,0,0,4.1457,text_option_1,,0,12,12,82,1
5f5aa7a073b8271a0ab0947c,63f3cfca20052e4ae7554ebf,6453cc0a001b050e56deb016,2023-05-04_17h16.15.873,ga_syllabified_check,2022.2.5,Win32,144.0714594,,,,,,,,,,,,,,./stim/p08_syllable_1_payielo_hit.wav,p08,payielo,hit,pa-yie-lo,pa-yie-lo,pa-yi-e-lo, ,0.048025614,-0.300426894,1,0,0,5.4028,text_option_other,pai-yie-lo,0,13,13,200,1
5f5aa7a073b8271a0ab0947c,63f3cfca20052e4ae7554ebf,6453cc0a001b050e56deb016,2023-05-04_17h16.15.873,ga_syllabified_check,2022.2.5,Win32,144.0714594,,,,,,,,,,,,,,./stim/p07_syllable_1_faluduako_hit.wav,p07,faluduako,hit,fa-lu-dua-ko,fa-lu-dua-ko,fa-lu-du-a-ko, ,-0.362860192,-0.110458911,1,0,0,2.2916,text_option_1,,0,14,14,138,1
5f5aa7a073b8271a0ab0947c,63f3cfca20052e4ae7554ebf,6453cc0a001b050e56deb016,2023-05-04_17h16.15.873,ga_syllabified_check,2022.2.5,Win32,144.0714594,,,,,,,,,,,,,,./stim/p04_syllable_1_palumaisto_hit.wav,p04,palumaisto,hit,pa-lu-mais-to,pa-lu-mais-to,pa-lu-ma-is-to, ,-0.39701174,-0.092315902,1,0,0,1.5348,text_option_1,,0,15,15,62,1
5f5aa7a073b8271a0ab0947c,63f3cfca20052e4ae7554ebf,6453cc0a001b050e56deb016,2023-05-04_17h16.15.873,ga_syllabified_check,2022.2.5,Win32,144.0714594,,,,,,,,,,,,,,./stim/p08_syllable_1_falutraigo_hit.wav,p08,falutraigo,hit,fa-lu-trai-go,fa-lu-trai-go,fa-lu-tra-i-go, ,-0.395944504,-0.111526147,1,0,0,2.2131,text_option_1,,0,16,16,174,1
5f5aa7a073b8271a0ab0947c,63f3cfca20052e4ae7554ebf,6453cc0a001b050e56deb016,2023-05-04_17h16.15.873,ga_syllabified_check,2022.2.5,Win32,144.0714594,,,,,,,,,,,,,,./stim/p08_syllable_1_lakaguaisto_hit.wav,p08,lakaguaisto,hit,la-ka-gu-ais-to,la-ka-guais-to,la-ka-gu-ais-to,la-ka-gua-is-to,0.04909285,-0.105122732,1,0,0,2.6181,text_option_3,,0,17,17,183,1
5f5aa7a073b8271a0ab0947c,63f3cfca20052e4ae7554ebf,6453cc0a001b050e56deb016,2023-05-04_17h16.15.873,ga_syllabified_check,2022.2.5,Win32,144.0714594,,,,,,,,,,,,,,./stim/p04_syllable_1_tuliafo_hit.wav,p04,tuliafo,hit,tu-lia-fo,tu-lia-fo,tu-li-a-fo, ,-0.417289221,-0.101921025,1,0,0,2.1751,text_option_1,,0,18,18,67,1
5f5aa7a073b8271a0ab0947c,63f3cfca20052e4ae7554ebf,6453cc0a001b050e56deb016,2023-05-04_17h16.15.873,ga_syllabified_check,2022.2.5,Win32,144.0714594,,,,,,,,,,,,,,./stim/p05_syllable_1_pachialo_hit.wav,p05,pachialo,hit,pan-chia-lo,pa-chia-lo,pa-chi-a-lo, ,-0.40981857,-0.115795091,1,0,0,1.7343,text_option_1,,0,19,19,92,1
5f5aa7a073b8271a0ab0947c,63f3cfca20052e4ae7554ebf,6453cc0a001b050e56deb016,2023-05-04_17h16.15.873,ga_syllabified_check,2022.2.5,Win32,144.0714594,,,,,,,,,,,,,,./stim/p06_syllable_1_lakakiaisto_hit.wav,p06,lakakiaisto,hit,la-ka-kia-is-to,la-ka-kiais-to,la-ka-ki-ais-to,la-ka-kia-is-to,0.027748132,-0.101921025,1,0,0,4.4929,text_option_3,,0,20,20,116,1
5f5aa7a073b8271a0ab0947c,63f3cfca20052e4ae7554ebf,6453cc0a001b050e56deb016,2023-05-04_17h16.15.873,ga_syllabified_check,2022.2.5,Win32,144.0714594,,,,,,,,,,,,,,./stim/p06_syllable_1_palumaisto_hit.wav,p06,palumaisto,hit,pa-lu-ma-is-to,pa-lu-mais-to,pa-lu-ma-is-to, ,0.496264674,-0.09018143,1,0,0,5.75,text_option_2,,0,21,21,130,1
5f5aa7a073b8271a0ab0947c,63f3cfca20052e4ae7554ebf,6453cc0a001b050e56deb016,2023-05-04_17h16.15.873,ga_syllabified_check,2022.2.5,Win32,144.0714594,,,,,,,,,,,,,,./stim/p05_syllable_1_rausto_hit.wav,p05,rausto,hit,raus-to,raus-to,ra-us-to, ,-0.418356457,-0.101921025,1,0,0,1.2013,text_option_1,,0,22,22,99,1
5f5aa7a073b8271a0ab0947c,63f3cfca20052e4ae7554ebf,6453cc0a001b050e56deb016,2023-05-04_17h16.15.873,ga_syllabified_check,2022.2.5,Win32,144.0714594,,,,,,,,,,,,,,./stim/p05_syllable_1_lakaguaisto_hit.wav,p05,lakaguaisto,hit,la-ka-gais,la-ka-guais-to,la-ka-gu-ais-to,la-ka-gua-is-to,0.009605123,-0.088046958,1,0,0,4.9582,text_option_3,,0,23,23,81,1
5f5aa7a073b8271a0ab0947c,63f3cfca20052e4ae7554ebf,6453cc0a001b050e56deb016,2023-05-04_17h16.15.873,ga_syllabified_check,2022.2.5,Win32,144.0714594,,,,,,,,,,,,,,./stim/p03_syllable_1_chiaba_hit.wav,p03,chiaba,hit,chia-ba,chia-ba,chi-a-ba, ,-0.410885806,-0.10298826,1,0,0,1.5971,text_option_1,,0,24,24,0,1
5f5aa7a073b8271a0ab0947c,63f3cfca20052e4ae7554ebf,6453cc0a001b050e56deb016,2023-05-04_17h16.15.873,ga_syllabified_check,2022.2.5,Win32,144.0714594,,,,,,,,,,,,,,./stim/p07_syllable_1_pachialo_hit.wav,p07,pachialo,hit,pa-cha-lo,pa-chia-lo,pa-chi-a-lo, ,-0.403415155,-0.104055496,1,0,0,1.4165,text_option_1,,0,25,25,160,1
5f5aa7a073b8271a0ab0947c,63f3cfca20052e4ae7554ebf,6453cc0a001b050e56deb016,2023-05-04_17h16.15.873,ga_syllabified_check,2022.2.5,Win32,144.0714594,,,,,,,,,,,,,,./stim/p07_syllable_1_rausto_hit.wav,p07,rausto,hit,raus-to,raus-to,ra-us-to, ,-0.372465315,-0.10832444,1,0,0,1.5764,text_option_1,,0,26,26,167,1
5f5aa7a073b8271a0ab0947c,63f3cfca20052e4ae7554ebf,6453cc0a001b050e56deb016,2023-05-04_17h16.15.873,ga_syllabified_check,2022.2.5,Win32,144.0714594,,,,,,,,,,,,,,./stim/p03_syllable_1_payielo_hit.wav,p03,payielo,hit,pa-yie-lo,pa-yie-lo,pa-yi-e-lo, ,-0.434364995,-0.097652081,1,0,0,2.3363,text_option_1,,0,27,27,30,1
5f5aa7a073b8271a0ab0947c,63f3cfca20052e4ae7554ebf,6453cc0a001b050e56deb016,2023-05-04_17h16.15.873,ga_syllabified_check,2022.2.5,Win32,144.0714594,,,,,,,,,,,,,,./stim/p05_syllable_1_lakapuaisto_hit.wav,p05,lakapuaisto,hit,la-ka-pais-to,la-ka-puais-to,la-ka-pu-ais-to,la-ka-pua-is-to,-0.39167556,-0.097652081,1,0,0,4.8473,text_option_1,,0,28,28,85,1
5f5aa7a073b8271a0ab0947c,63f3cfca20052e4ae7554ebf,6453cc0a001b050e56deb016,2023-05-04_17h16.15.873,ga_syllabified_check,2022.2.5,Win32,144.0714594,,,,,,,,,,,,,,./stim/p07_syllable_1_payielo_hit.wav,p07,payielo,hit,pa-yie-lo,pa-yie-lo,pa-yi-e-lo, ,-0.354322305,-0.088046958,1,0,0,1.2274,text_option_1,,0,29,29,166,1
5f5aa7a073b8271a0ab0947c,63f3cfca20052e4ae7554ebf,6453cc0a001b050e56deb016,2023-05-04_17h16.15.873,ga_syllabified_check,2022.2.5,Win32,144.0714594,,,,,,,,,,,,,,./stim/p08_syllable_1_rausto_hit.wav,p08,rausto,hit,raus-to,raus-to,ra-us-to, ,-0.432230523,-0.107257204,1,0,0,2.4346,text_option_1,,0,30,30,201,1
5f5aa7a073b8271a0ab0947c,63f3cfca20052e4ae7554ebf,6453cc0a001b050e56deb016,2023-05-04_17h16.15.873,ga_syllabified_check,2022.2.5,Win32,144.0714594,,,,,,,,,,,,,,./stim/p04_syllable_1_manhiala_hit.wav,p04,mañiala,hit,ma-nhia-la,ma-ñia-la,ma-ñi-a-la, ,-0.368196371,-0.098719317,1,0,0,0.7292,text_option_1,,0,31,31,55,1
5f5aa7a073b8271a0ab0947c,63f3cfca20052e4ae7554ebf,6453cc0a001b050e56deb016,2023-05-04_17h16.15.873,ga_syllabified_check,2022.2.5,Win32,144.0714594,,,,,,,,,,,,,,./stim/p03_syllable_1_lakatiaisto_hit.wav,p03,lakatiaisto,hit,la-ka-tiais-to,la-ka-tiais-to,la-ka-ti-ais-to,la-ka-tia-is-to,-0.394877268,-0.098719317,1,0,0,13.8676,text_option_1,,0,32,32,18,1
5f5aa7a073b8271a0ab0947c,63f3cfca20052e4ae7554ebf,6453cc0a001b050e56deb016,2023-05-04_17h16.15.873,ga_syllabified_check,2022.2.5,Win32,144.0714594,,,,,,,,,,,,,,./stim/p05_syllable_1_lakabiaisto_hit.wav,p05,lakabiaisto,hit,la-ka-bi-ais-to,la-ka-biais-to,la-ka-bi-ais-to,la-ka-bia-is-to,-0.373532551,-0.104055496,1,0,0,2.8333,text_option_1,,0,33,33,74,1
5f5aa7a073b8271a0ab0947c,63f3cfca20052e4ae7554ebf,6453cc0a001b050e56deb016,2023-05-04_17h16.15.873,ga_syllabified_check,2022.2.5,Win32,144.0714594,,,,,,,,,,,,,,./stim/p07_syllable_1_mebochiana_hit.wav,p07,mebochiana,hit,me-bo-chia-na,me-bo-chia-na,me-bo-chi-a-na, ,-0.336179296,-0.098719317,1,0,0,5.1251,text_option_1,,0,34,34,158,1
5f5aa7a073b8271a0ab0947c,63f3cfca20052e4ae7554ebf,6453cc0a001b050e56deb016,2023-05-04_17h16.15.873,ga_syllabified_check,2022.2.5,Win32,144.0714594,,,,,,,,,,,,,,./stim/p03_syllable_1_lakabiaisto_hit.wav,p03,lakabiaisto,hit,la-ka-biais-to,la-ka-biais-to,la-ka-bi-ais-to,la-ka-bia-is-to,-0.363927428,-0.106189968,1,0,0,2.2013,text_option_1,,0,35,35,6,1
5f5aa7a073b8271a0ab0947c,63f3cfca20052e4ae7554ebf,6453cc0a001b050e56deb016,2023-05-04_17h16.15.873,ga_syllabified_check,2022.2.5,Win32,144.0714594,,,,,,,,,,,,,,./stim/p06_syllable_1_lakapiaisto_hit.wav,p06,lakapiaisto,hit,la-ka-pia-is-to,la-ka-piais-to,la-ka-pi-ais-to,la-ka-pia-is-to,0.090715048,-0.104055496,1,0,0,4.6944,text_option_3,,0,36,36,118,1
5f5aa7a073b8271a0ab0947c,63f3cfca20052e4ae7554ebf,6453cc0a001b050e56deb016,2023-05-04_17h16.15.873,ga_syllabified_check,2022.2.5,Win32,144.0714594,,,,,,,,,,,,,,./stim/p05_syllable_1_lakafiaisto_hit.wav,p05,lakafiaisto,hit,la-ka-fi-ais-to,la-ka-fiais-to,la-ka-fi-ais-to,la-ka-fia-is-to,-0.388473853,-0.105122732,1,0,0,3.2749,text_option_1,,0,37,37,78,1
5f5aa7a073b8271a0ab0947c,63f3cfca20052e4ae7554ebf,6453cc0a001b050e56deb016,2023-05-04_17h16.15.873,ga_syllabified_check,2022.2.5,Win32,144.0714594,,,,,,,,,,,,,,./stim/p04_syllable_1_lakafiaisto_hit.wav,p04,lakafiaisto,hit,la-ka-fiais-to,la-ka-fiais-to,la-ka-fi-ais-to,la-ka-fia-is-to,-0.354322305,-0.097652081,1,0,0,1.3404,text_option_1,,0,38,38,44,1
5f5aa7a073b8271a0ab0947c,63f3cfca20052e4ae7554ebf,6453cc0a001b050e56deb016,2023-05-04_17h16.15.873,ga_syllabified_check,2022.2.5,Win32,144.0714594,,,,,,,,,,,,,,./stim/p07_syllable_1_falufaisto_hit.wav,p07,falufaisto,hit,fa-lu-fais-to,fa-lu-fais-to,fa-lu-fa-is-to, ,-0.363927428,-0.093383138,1,0,0,2.3958,text_option_1,,0,39,39,139,1
5f5aa7a073b8271a0ab0947c,63f3cfca20052e4ae7554ebf,6453cc0a001b050e56deb016,2023-05-04_17h16.15.873,ga_syllabified_check,2022.2.5,Win32,144.0714594,,,,,,,,,,,,,,./stim/p07_syllable_1_falutraigo_hit.wav,p07,falutraigo,hit,fa-lu-trai-go,fa-lu-trai-go,fa-lu-tra-i-go, ,-0.314834578,-0.099786553,1,0,0,2.2778,text_option_1,,0,40,40,140,1
5f5aa7a073b8271a0ab0947c,63f3cfca20052e4ae7554ebf,6453cc0a001b050e56deb016,2023-05-04_17h16.15.873,ga_syllabified_check,2022.2.5,Win32,144.0714594,,,,,,,,,,,,,,./stim/p07_syllable_1_lakakiaisto_hit.wav,p07,lakakiaisto,hit,la-ka-kais-to,la-ka-kiais-to,la-ka-ki-ais-to,la-ka-kia-is-to,0.013874066,-0.285485592,1,0,0,6.7462,text_option_other,la-kai-kais-to,0,41,41,150,1
5f5aa7a073b8271a0ab0947c,63f3cfca20052e4ae7554ebf,6453cc0a001b050e56deb016,2023-05-04_17h16.15.873,ga_syllabified_check,2022.2.5,Win32,144.0714594,,,,,,,,,,,,,,./stim/p05_syllable_1_lakapiaisto_hit.wav,p05,lakapiaisto,hit,la-ka-pais-to,la-ka-piais-to,la-ka-pi-ais-to,la-ka-pia-is-to,0.067235859,-0.295090715,1,0,0,4.9583,text_option_other,la-ka-pais-to,0,42,42,84,1
5f5aa7a073b8271a0ab0947c,63f3cfca20052e4ae7554ebf,6453cc0a001b050e56deb016,2023-05-04_17h16.15.873,ga_syllabified_check,2022.2.5,Win32,144.0714594,,,,,,,,,,,,,,./stim/p08_syllable_1_palufauto_hit.wav,p08,palufauto,hit,pa-lu-fau-to,pa-lu-fau-to,pa-lu-fa-u-to, ,-0.359658485,-0.100853789,1,0,0,2.3801,text_option_1,,0,43,43,196,1
5f5aa7a073b8271a0ab0947c,63f3cfca20052e4ae7554ebf,6453cc0a001b050e56deb016,2023-05-04_17h16.15.873,ga_syllabified_check,2022.2.5,Win32,144.0714594,,,,,,,,,,,,,,./stim/p06_syllable_1_lliape_hit.wav,p06,lliape,hit,lli-lla-pe,llia-pe,lli-a-pe, ,0.39701174,-0.110458911,1,0,0,1.0736,text_option_2,,0,44,44,122,1
5f5aa7a073b8271a0ab0947c,63f3cfca20052e4ae7554ebf,6453cc0a001b050e56deb016,2023-05-04_17h16.15.873,ga_syllabified_check,2022.2.5,Win32,144.0714594,,,,,,,,,,,,,,./stim/p07_syllable_1_lakabiaisto_hit.wav,p07,lakabiaisto,hit,la-ka-bais-to,la-ka-biais-to,la-ka-bi-ais-to,la-ka-bia-is-to,-0.340448239,-0.095517609,1,0,0,4.6094,text_option_1,,0,45,45,142,1
5f5aa7a073b8271a0ab0947c,63f3cfca20052e4ae7554ebf,6453cc0a001b050e56deb016,2023-05-04_17h16.15.873,ga_syllabified_check,2022.2.5,Win32,144.0714594,,,,,,,,,,,,,,./stim/p06_syllable_1_costonhialo_hit.wav,p06,costoñialo,hit,cos-to-nhia-lo,cos-to-ñia-lo,cos-to-ñi-a-lo, ,-0.357524013,-0.092315902,1,0,0,3.0693,text_option_1,,0,46,46,103,1
5f5aa7a073b8271a0ab0947c,63f3cfca20052e4ae7554ebf,6453cc0a001b050e56deb016,2023-05-04_17h16.15.873,ga_syllabified_check,2022.2.5,Win32,144.0714594,,,,,,,,,,,,,,./stim/p08_syllable_1_lakatuaisto_hit.wav,p08,lakatuaisto,hit,la-ka-tu-i-jis,la-ka-tuais-to,la-ka-tu-ais-to,la-ka-tua-is-to,-0.008537887,-0.305763074,1,0,0,4.8471,text_option_other,la-ka-tuis-to,0,47,47,189,1
5f5aa7a073b8271a0ab0947c,63f3cfca20052e4ae7554ebf,6453cc0a001b050e56deb016,2023-05-04_17h16.15.873,ga_syllabified_check,2022.2.5,Win32,144.0714594,,,,,,,,,,,,,,./stim/p05_syllable_1_palufauto_hit.wav,p05,palufauto,hit,pa-lu-fau-to,pa-lu-fau-to,pa-lu-fa-u-to, ,-0.353255069,-0.105122732,1,0,0,1.4653,text_option_1,,0,48,48,94,1
5f5aa7a073b8271a0ab0947c,63f3cfca20052e4ae7554ebf,6453cc0a001b050e56deb016,2023-05-04_17h16.15.873,ga_syllabified_check,2022.2.5,Win32,144.0714594,,,,,,,,,,,,,,./stim/p03_syllable_1_pachialo_hit.wav,p03,pachialo,hit,pa-chia-lo,pa-chia-lo,pa-chi-a-lo, ,-0.345784418,-0.10832444,1,0,0,0.9233,text_option_1,,0,49,49,24,1
5f5aa7a073b8271a0ab0947c,63f3cfca20052e4ae7554ebf,6453cc0a001b050e56deb016,2023-05-04_17h16.15.873,ga_syllabified_check,2022.2.5,Win32,144.0714594,,,,,,,,,,,,,,./stim/p04_syllable_1_chiaba_hit.wav,p04,chiaba,hit,chia-ba,chia-ba,chi-a-ba, ,-0.374599787,-0.099786553,1,0,0,0.4582,text_option_1,,0,50,50,34,1
5f5aa7a073b8271a0ab0947c,63f3cfca20052e4ae7554ebf,6453cc0a001b050e56deb016,2023-05-04_17h16.15.873,ga_syllabified_check,2022.2.5,Win32,144.0714594,,,,,,,,,,,,,,./stim/p03_syllable_1_palumaisto_hit.wav,p03,palumaisto,hit,pa-lu-mais-to,pa-lu-mais-to,pa-lu-ma-is-to, ,-0.354322305,-0.104055496,1,0,0,0.9516,text_option_1,,0,51,51,28,1
5f5aa7a073b8271a0ab0947c,63f3cfca20052e4ae7554ebf,6453cc0a001b050e56deb016,2023-05-04_17h16.15.873,ga_syllabified_check,2022.2.5,Win32,144.0714594,,,,,,,,,,,,,,./stim/p08_syllable_1_faluduako_hit.wav,p08,faluduako,hit,fa-lu-duai-ko,fa-lu-dua-ko,fa-lu-du-a-ko, ,-0.346851654,-0.10298826,1,0,0,2.9621,text_option_1,,0,52,52,172,1
5f5aa7a073b8271a0ab0947c,63f3cfca20052e4ae7554ebf,6453cc0a001b050e56deb016,2023-05-04_17h16.15.873,ga_syllabified_check,2022.2.5,Win32,144.0714594,,,,,,,,,,,,,,./stim/p07_syllable_1_lakaguaisto_hit.wav,p07,lakaguaisto,hit,la-ka-guais-to,la-ka-guais-to,la-ka-gu-ais-to,la-ka-gua-is-to,-0.324439701,-0.101921025,1,0,0,2.5694,text_option_1,,0,53,53,149,1
5f5aa7a073b8271a0ab0947c,63f3cfca20052e4ae7554ebf,6453cc0a001b050e56deb016,2023-05-04_17h16.15.873,ga_syllabified_check,2022.2.5,Win32,144.0714594,,,,,,,,,,,,,,./stim/p07_syllable_1_lakadiaisto_hit.wav,p07,lakadiaisto,hit,la-ka-dia-is-to,la-ka-diais-to,la-ka-di-ais-to,la-ka-dia-is-to,0.083244397,-0.10298826,1,0,0,2.2777,text_option_3,,0,54,54,144,1
5f5aa7a073b8271a0ab0947c,63f3cfca20052e4ae7554ebf,6453cc0a001b050e56deb016,2023-05-04_17h16.15.873,ga_syllabified_check,2022.2.5,Win32,144.0714594,,,,,,,,,,,,,,./stim/p08_syllable_1_chiaba_hit.wav,p08,chiaba,hit,chi-a-ba,chia-ba,chi-a-ba, ,0.381003202,-0.098719317,1,0,0,1.7292,text_option_2,,0,55,55,170,1
5f5aa7a073b8271a0ab0947c,63f3cfca20052e4ae7554ebf,6453cc0a001b050e56deb016,2023-05-04_17h16.15.873,ga_syllabified_check,2022.2.5,Win32,144.0714594,,,,,,,,,,,,,,./stim/p08_syllable_1_paluguato_hit.wav,p08,paluguato,hit,pa-lu-gua-to,pa-lu-gua-to,pa-lu-gu-a-to, ,-0.410885806,-0.10298826,1,0,0,3.5417,text_option_1,,0,56,56,197,1
5f5aa7a073b8271a0ab0947c,63f3cfca20052e4ae7554ebf,6453cc0a001b050e56deb016,2023-05-04_17h16.15.873,ga_syllabified_check,2022.2.5,Win32,144.0714594,,,,,,,,,,,,,,./stim/p03_syllable_1_palutrauco_hit.wav,p03,palutrauco,hit,pa-lu-trau-co,pa-lu-trau-co,pa-lu-tra-u-co, ,-0.454642476,-0.099786553,1,0,0,1.1132,text_option_1,,0,57,57,29,1
5f5aa7a073b8271a0ab0947c,63f3cfca20052e4ae7554ebf,6453cc0a001b050e56deb016,2023-05-04_17h16.15.873,ga_syllabified_check,2022.2.5,Win32,144.0714594,,,,,,,,,,,,,,./stim/p07_syllable_1_lakagiaisto_hit.wav,p07,lakagiaisto,hit,la-ka-gais-to,la-ka-giais-to,la-ka-gi-ais-to,la-ka-gia-is-to,-0.400213447,-0.099786553,1,0,0,1.9671,text_option_1,,0,58,58,148,1
5f5aa7a073b8271a0ab0947c,63f3cfca20052e4ae7554ebf,6453cc0a001b050e56deb016,2023-05-04_17h16.15.873,ga_syllabified_check,2022.2.5,Win32,144.0714594,,,,,,,,,,,,,,./stim/p07_syllable_1_lakabuaisto_hit.wav,p07,lakabuaisto,hit,la-ka-buais-to,la-ka-buais-to,la-ka-bu-ais-to,la-ka-bua-is-to,-0.334044824,-0.104055496,1,0,0,2.0277,text_option_1,,0,59,59,143,1
5f5aa7a073b8271a0ab0947c,63f3cfca20052e4ae7554ebf,6453cc0a001b050e56deb016,2023-05-04_17h16.15.873,ga_syllabified_check,2022.2.5,Win32,144.0714594,,,,,,,,,,,,,,./stim/p05_syllable_1_flauro_hit.wav,p05,flauro,hit,fa-lu-ro,flau-ro,fla-u-ro, ,-0.073639274,-0.2886873,1,0,0,4.2847,text_option_other,fa-lu-ro,0,60,60,73,1
5f5aa7a073b8271a0ab0947c,63f3cfca20052e4ae7554ebf,6453cc0a001b050e56deb016,2023-05-04_17h16.15.873,ga_syllabified_check,2022.2.5,Win32,144.0714594,,,,,,,,,,,,,,./stim/p05_syllable_1_lakabuaisto_hit.wav,p05,lakabuaisto,hit,la-ka-buais-to,la-ka-buais-to,la-ka-bu-ais-to,la-ka-bua-is-to,-0.359658485,-0.092315902,1,0,0,3.7681,text_option_1,,0,61,61,75,1
5f5aa7a073b8271a0ab0947c,63f3cfca20052e4ae7554ebf,6453cc0a001b050e56deb016,2023-05-04_17h16.15.873,ga_syllabified_check,2022.2.5,Win32,144.0714594,,,,,,,,,,,,,,./stim/p08_syllable_1_lliape_hit.wav,p08,lliape,hit,li-a-pe,llia-pe,lli-a-pe, ,0.42796158,-0.098719317,1,0,0,1.0765,text_option_2,,0,62,62,190,1
5f5aa7a073b8271a0ab0947c,63f3cfca20052e4ae7554ebf,6453cc0a001b050e56deb016,2023-05-04_17h16.15.873,ga_syllabified_check,2022.2.5,Win32,144.0714594,,,,,,,,,,,,,,./stim/p05_syllable_1_falufaisto_hit.wav,p05,falufaisto,hit,fa-lu-fais-to,fa-lu-fais-to,fa-lu-fa-is-to, ,-0.375667022,-0.107257204,1,0,0,0.9442,text_option_1,,0,63,63,71,1
5f5aa7a073b8271a0ab0947c,63f3cfca20052e4ae7554ebf,6453cc0a001b050e56deb016,2023-05-04_17h16.15.873,ga_syllabified_check,2022.2.5,Win32,144.0714594,,,,,,,,,,,,,,./stim/p07_syllable_1_manhiala_hit.wav,p07,mañiala,hit,ma-nhia-la,ma-ñia-la,ma-ñi-a-la, ,-0.346851654,-0.086979723,1,0,0,1.8263,text_option_1,,0,64,64,157,1
5f5aa7a073b8271a0ab0947c,63f3cfca20052e4ae7554ebf,6453cc0a001b050e56deb016,2023-05-04_17h16.15.873,ga_syllabified_check,2022.2.5,Win32,144.0714594,,,,,,,,,,,,,,./stim/p03_syllable_1_costonhialo_hit.wav,p03,costoñialo,hit,cos-to-nhia-lo,cos-to-ñia-lo,cos-to-ñi-a-lo, ,-0.34791889,-0.092315902,1,0,0,1.257,text_option_1,,0,65,65,1,1
5f5aa7a073b8271a0ab0947c,63f3cfca20052e4ae7554ebf,6453cc0a001b050e56deb016,2023-05-04_17h16.15.873,ga_syllabified_check,2022.2.5,Win32,144.0714594,,,,,,,,,,,,,,./stim/p07_syllable_1_lakapuaisto_hit.wav,p07,lakapuaisto,hit,la-ka-puais-to,la-ka-puais-to,la-ka-pu-ais-to,la-ka-pua-is-to,-0.355389541,-0.10832444,1,0,0,2.736,text_option_1,,0,66,66,153,1
5f5aa7a073b8271a0ab0947c,63f3cfca20052e4ae7554ebf,6453cc0a001b050e56deb016,2023-05-04_17h16.15.873,ga_syllabified_check,2022.2.5,Win32,144.0714594,,,,,,,,,,,,,,./stim/p08_syllable_1_flauro_hit.wav,p08,flauro,hit,flau-ro,flau-ro,fla-u-ro, ,-0.344717182,-0.118996798,1,0,0,0.8473,text_option_1,,0,67,67,175,1
5f5aa7a073b8271a0ab0947c,63f3cfca20052e4ae7554ebf,6453cc0a001b050e56deb016,2023-05-04_17h16.15.873,ga_syllabified_check,2022.2.5,Win32,144.0714594,,,,,,,,,,,,,,./stim/p03_syllable_1_lakafuaisto_hit.wav,p03,lakafuaisto,hit,la-ka-fuais-to,la-ka-fuais-to,la-ka-fu-ais-to,la-ka-fua-is-to,-0.413020277,-0.097652081,1,0,0,1.1458,text_option_1,,0,68,68,11,1
5f5aa7a073b8271a0ab0947c,63f3cfca20052e4ae7554ebf,6453cc0a001b050e56deb016,2023-05-04_17h16.15.873,ga_syllabified_check,2022.2.5,Win32,144.0714594,,,,,,,,,,,,,,./stim/p06_syllable_1_palutrauco_hit.wav,p06,palutrauco,hit,pa-lu-tra-u-co,pa-lu-trau-co,pa-lu-tra-u-co, ,0.430096051,-0.122198506,1,0,0,2.2013,text_option_2,,0,69,69,131,1
5f5aa7a073b8271a0ab0947c,63f3cfca20052e4ae7554ebf,6453cc0a001b050e56deb016,2023-05-04_17h16.15.873,ga_syllabified_check,2022.2.5,Win32,144.0714594,,,,,,,,,,,,,,./stim/p04_syllable_1_lliape_hit.wav,p04,lliape,hit,lia-pe,llia-pe,lli-a-pe, ,-0.402347919,-0.091248666,1,0,0,0.3333,text_option_1,,0,70,70,54,1
5f5aa7a073b8271a0ab0947c,63f3cfca20052e4ae7554ebf,6453cc0a001b050e56deb016,2023-05-04_17h16.15.873,ga_syllabified_check,2022.2.5,Win32,144.0714594,,,,,,,,,,,,,,./stim/p06_syllable_1_rausto_hit.wav,p06,rausto,hit,ra-us-to,raus-to,ra-us-to, ,0.400213447,-0.104055496,1,0,0,1.6529,text_option_2,,0,71,71,133,1
5f5aa7a073b8271a0ab0947c,63f3cfca20052e4ae7554ebf,6453cc0a001b050e56deb016,2023-05-04_17h16.15.873,ga_syllabified_check,2022.2.5,Win32,144.0714594,,,,,,,,,,,,,,./stim/p04_syllable_1_lakadiaisto_hit.wav,p04,lakadiaisto,hit,la-ka-dias-to,la-ka-diais-to,la-ka-di-ais-to,la-ka-dia-is-to,-0.3660619,-0.111526147,1,0,0,1.3467,text_option_1,,0,72,72,42,1
5f5aa7a073b8271a0ab0947c,63f3cfca20052e4ae7554ebf,6453cc0a001b050e56deb016,2023-05-04_17h16.15.873,ga_syllabified_check,2022.2.5,Win32,144.0714594,,,,,,,,,,,,,,./stim/p04_syllable_1_flauro_hit.wav,p04,flauro,hit,flau-ro,flau-ro,fla-u-ro, ,-0.353255069,-0.106189968,1,0,0,1.5692,text_option_1,,0,73,73,39,1
5f5aa7a073b8271a0ab0947c,63f3cfca20052e4ae7554ebf,6453cc0a001b050e56deb016,2023-05-04_17h16.15.873,ga_syllabified_check,2022.2.5,Win32,144.0714594,,,,,,,,,,,,,,./stim/p08_syllable_1_ruyiola_hit.wav,p08,ruyiola,hit,ru-yio-la,ru-yio-la,ru-yi-o-la, ,-0.3660619,-0.10832444,1,0,0,1.8959,text_option_1,,0,74,74,202,1
5f5aa7a073b8271a0ab0947c,63f3cfca20052e4ae7554ebf,6453cc0a001b050e56deb016,2023-05-04_17h16.15.873,ga_syllabified_check,2022.2.5,Win32,144.0714594,,,,,,,,,,,,,,./stim/p06_syllable_1_lakaguaisto_hit.wav,p06,lakaguaisto,hit,la-ka-gu-a-is,la-ka-guais-to,la-ka-gu-ais-to,la-ka-gua-is-to,0.036286019,-0.098719317,1,0,0,7.2986,text_option_3,,0,75,75,115,1
5f5aa7a073b8271a0ab0947c,63f3cfca20052e4ae7554ebf,6453cc0a001b050e56deb016,2023-05-04_17h16.15.873,ga_syllabified_check,2022.2.5,Win32,144.0714594,,,,,,,,,,,,,,./stim/p04_syllable_1_lakafuaisto_hit.wav,p04,lakafuaisto,hit,la-ka-fuais-to,la-ka-fuais-to,la-ka-fu-ais-to,la-ka-fua-is-to,-0.33511206,-0.109391676,1,0,0,2.1668,text_option_1,,0,76,76,45,1
5f5aa7a073b8271a0ab0947c,63f3cfca20052e4ae7554ebf,6453cc0a001b050e56deb016,2023-05-04_17h16.15.873,ga_syllabified_check,2022.2.5,Win32,144.0714594,,,,,,,,,,,,,,./stim/p08_syllable_1_lakagiaisto_hit.wav,p08,lakagiaisto,hit,la-ka-gi-jas-to,la-ka-giais-to,la-ka-gi-ais-to,la-ka-gia-is-to,0.401280683,-0.114727855,1,0,0,5.1387,text_option_2,,0,77,77,182,1
5f5aa7a073b8271a0ab0947c,63f3cfca20052e4ae7554ebf,6453cc0a001b050e56deb016,2023-05-04_17h16.15.873,ga_syllabified_check,2022.2.5,Win32,144.0714594,,,,,,,,,,,,,,./stim/p07_syllable_1_ruyiola_hit.wav,p07,ruyiola,hit,ru-yio-la,ru-yio-la,ru-yi-o-la, ,-0.358591249,-0.10298826,1,0,0,0.875,text_option_1,,0,78,78,168,1
5f5aa7a073b8271a0ab0947c,63f3cfca20052e4ae7554ebf,6453cc0a001b050e56deb016,2023-05-04_17h16.15.873,ga_syllabified_check,2022.2.5,Win32,144.0714594,,,,,,,,,,,,,,./stim/p04_syllable_1_lakapuaisto_hit.wav,p04,lakapuaisto,hit,la-ka-puais-to,la-ka-puais-to,la-ka-pu-ais-to,la-ka-pua-is-to,-0.390608324,-0.105122732,1,0,0,1.1807,text_option_1,,0,79,79,51,1
5f5aa7a073b8271a0ab0947c,63f3cfca20052e4ae7554ebf,6453cc0a001b050e56deb016,2023-05-04_17h16.15.873,ga_syllabified_check,2022.2.5,Win32,144.0714594,,,,,,,,,,,,,,./stim/p08_syllable_1_lakatiaisto_hit.wav,p08,lakatiaisto,hit,la-ka-ti-as-to,la-ka-tiais-to,la-ka-ti-ais-to,la-ka-tia-is-to,-0.352187834,-0.100853789,1,0,0,6.0833,text_option_1,,0,80,80,188,1
5f5aa7a073b8271a0ab0947c,63f3cfca20052e4ae7554ebf,6453cc0a001b050e56deb016,2023-05-04_17h16.15.873,ga_syllabified_check,2022.2.5,Win32,144.0714594,,,,,,,,,,,,,,./stim/p06_syllable_1_lakatiaisto_hit.wav,p06,lakatiaisto,hit,la-ka-pia-is-to,la-ka-tiais-to,la-ka-ti-ais-to,la-ka-tia-is-to,0.021344717,-0.109391676,1,0,0,2.9583,text_option_3,,0,81,81,120,1
5f5aa7a073b8271a0ab0947c,63f3cfca20052e4ae7554ebf,6453cc0a001b050e56deb016,2023-05-04_17h16.15.873,ga_syllabified_check,2022.2.5,Win32,144.0714594,,,,,,,,,,,,,,./stim/p03_syllable_1_rausto_hit.wav,p03,rausto,hit,raus-to,raus-to,ra-us-to, ,-0.40981857,-0.092315902,1,0,0,0.5765,text_option_1,,0,82,82,31,1
5f5aa7a073b8271a0ab0947c,63f3cfca20052e4ae7554ebf,6453cc0a001b050e56deb016,2023-05-04_17h16.15.873,ga_syllabified_check,2022.2.5,Win32,144.0714594,,,,,,,,,,,,,,./stim/p08_syllable_1_lakadiaisto_hit.wav,p08,lakadiaisto,hit,la-ka-di-jas-to,la-ka-diais-to,la-ka-di-ais-to,la-ka-dia-is-to,0.075773746,-0.110458911,1,0,0,3.5277,text_option_3,,0,83,83,178,1
5f5aa7a073b8271a0ab0947c,63f3cfca20052e4ae7554ebf,6453cc0a001b050e56deb016,2023-05-04_17h16.15.873,ga_syllabified_check,2022.2.5,Win32,144.0714594,,,,,,,,,,,,,,./stim/p06_syllable_1_manhiala_hit.wav,p06,mañiala,hit,ma-nhi-a-la,ma-ñia-la,ma-ñi-a-la, ,0.418356457,-0.115795091,1,0,0,1.4582,text_option_2,,0,84,84,123,1
5f5aa7a073b8271a0ab0947c,63f3cfca20052e4ae7554ebf,6453cc0a001b050e56deb016,2023-05-04_17h16.15.873,ga_syllabified_check,2022.2.5,Win32,144.0714594,,,,,,,,,,,,,,./stim/p06_syllable_1_lakakuaisto_hit.wav,p06,lakakuaisto,hit,la-ka-ku-a-is,la-ka-kuais-to,la-ka-ku-ais-to,la-ka-kua-is-to,0.438633938,-0.100853789,1,0,0,2.9095,text_option_2,,0,85,85,117,1
5f5aa7a073b8271a0ab0947c,63f3cfca20052e4ae7554ebf,6453cc0a001b050e56deb016,2023-05-04_17h16.15.873,ga_syllabified_check,2022.2.5,Win32,144.0714594,,,,,,,,,,,,,,./stim/p08_syllable_1_lakabiaisto_hit.wav,p08,lakabiaisto,hit,la-ka-bi-as-to,la-ka-biais-to,la-ka-bi-ais-to,la-ka-bia-is-to,0.446104589,-0.106189968,1,0,0,2.9819,text_option_2,,0,86,86,176,1
5f5aa7a073b8271a0ab0947c,63f3cfca20052e4ae7554ebf,6453cc0a001b050e56deb016,2023-05-04_17h16.15.873,ga_syllabified_check,2022.2.5,Win32,144.0714594,,,,,,,,,,,,,,./stim/p03_syllable_1_lakadiaisto_hit.wav,p03,lakadiaisto,hit,la-ka-diais-to,la-ka-diais-to,la-ka-di-ais-to,la-ka-dia-is-to,-0.345784418,-0.107257204,1,0,0,2.0415,text_option_1,,0,87,87,8,1
5f5aa7a073b8271a0ab0947c,63f3cfca20052e4ae7554ebf,6453cc0a001b050e56deb016,2023-05-04_17h16.15.873,ga_syllabified_check,2022.2.5,Win32,144.0714594,,,,,,,,,,,,,,./stim/p05_syllable_1_ruyiola_hit.wav,p05,ruyiola,hit,ru-yio-la,ru-yio-la,ru-yi-o-la, ,-0.416221985,-0.10832444,1,0,0,0.7083,text_option_1,,0,88,88,100,1
5f5aa7a073b8271a0ab0947c,63f3cfca20052e4ae7554ebf,6453cc0a001b050e56deb016,2023-05-04_17h16.15.873,ga_syllabified_check,2022.2.5,Win32,144.0714594,,,,,,,,,,,,,,./stim/p07_syllable_1_tuliafo_hit.wav,p07,tuliafo,hit,tu-lia-fo,tu-lia-fo,tu-li-a-fo, ,-0.379935966,-0.107257204,1,0,0,0.9028,text_option_1,,0,89,89,169,1
5f5aa7a073b8271a0ab0947c,63f3cfca20052e4ae7554ebf,6453cc0a001b050e56deb016,2023-05-04_17h16.15.873,ga_syllabified_check,2022.2.5,Win32,144.0714594,,,,,,,,,,,,,,./stim/p08_syllable_1_manhiala_hit.wav,p08,mañiala,hit,ma-nhia-la,ma-ñia-la,ma-ñi-a-la, ,-0.398078975,-0.097652081,1,0,0,1.4097,text_option_1,,0,90,90,191,1
5f5aa7a073b8271a0ab0947c,63f3cfca20052e4ae7554ebf,6453cc0a001b050e56deb016,2023-05-04_17h16.15.873,ga_syllabified_check,2022.2.5,Win32,144.0714594,,,,,,,,,,,,,,./stim/p05_syllable_1_lakatiaisto_hit.wav,p05,lakatiaisto,hit,la-ka-ti-ais-to,la-ka-tiais-to,la-ka-ti-ais-to,la-ka-tia-is-to,-0.355389541,-0.095517609,1,0,0,1.7492,text_option_1,,0,91,91,86,1
5f5aa7a073b8271a0ab0947c,63f3cfca20052e4ae7554ebf,6453cc0a001b050e56deb016,2023-05-04_17h16.15.873,ga_syllabified_check,2022.2.5,Win32,144.0714594,,,,,,,,,,,,,,./stim/p05_syllable_1_chiaba_hit.wav,p05,chiaba,hit,chia-ba,chia-ba,chi-a-ba, ,-0.368196371,-0.106189968,1,0,0,0.8224,text_option_1,,0,92,92,68,1
5f5aa7a073b8271a0ab0947c,63f3cfca20052e4ae7554ebf,6453cc0a001b050e56deb016,2023-05-04_17h16.15.873,ga_syllabified_check,2022.2.5,Win32,144.0714594,,,,,,,,,,,,,,./stim/p06_syllable_1_lakabuaisto_hit.wav,p06,lakabuaisto,hit,la-ka-bu-a-is,la-ka-buais-to,la-ka-bu-ais-to,la-ka-bua-is-to,0.326574173,-0.095517609,1,0,0,8.1527,text_option_2,,0,93,93,109,1
5f5aa7a073b8271a0ab0947c,63f3cfca20052e4ae7554ebf,6453cc0a001b050e56deb016,2023-05-04_17h16.15.873,ga_syllabified_check,2022.2.5,Win32,144.0714594,,,,,,,,,,,,,,./stim/p05_syllable_1_nhiape_hit.wav,p05,ñiape,hit,nhia-pe,ñia-pe,ñi-a-pe, ,-0.386339381,-0.094450374,1,0,0,0.3472,text_option_1,,0,94,94,91,1
5f5aa7a073b8271a0ab0947c,63f3cfca20052e4ae7554ebf,6453cc0a001b050e56deb016,2023-05-04_17h16.15.873,ga_syllabified_check,2022.2.5,Win32,144.0714594,,,,,,,,,,,,,,./stim/p06_syllable_1_faluduako_hit.wav,p06,faluduako,hit,fa-lu-dua-ko,fa-lu-dua-ko,fa-lu-du-a-ko, ,-0.406616862,-0.091248666,1,0,0,2.8818,text_option_1,,0,95,95,104,1
5f5aa7a073b8271a0ab0947c,63f3cfca20052e4ae7554ebf,6453cc0a001b050e56deb016,2023-05-04_17h16.15.873,ga_syllabified_check,2022.2.5,Win32,144.0714594,,,,,,,,,,,,,,./stim/p04_syllable_1_paluguato_hit.wav,p04,paluguato,hit,pa-lu-gua,pa-lu-gua-to,pa-lu-gu-a-to, ,-0.31696905,-0.107257204,1,0,0,4.8818,text_option_1,,0,96,96,61,1
5f5aa7a073b8271a0ab0947c,63f3cfca20052e4ae7554ebf,6453cc0a001b050e56deb016,2023-05-04_17h16.15.873,ga_syllabified_check,2022.2.5,Win32,144.0714594,,,,,,,,,,,,,,./stim/p03_syllable_1_lakatuaisto_hit.wav,p03,lakatuaisto,hit,la-ka-tuais-to,la-ka-tuais-to,la-ka-tu-ais-to,la-ka-tua-is-to,-0.318036286,-0.094450374,1,0,0,1.5377,text_option_1,,0,97,97,19,1
5f5aa7a073b8271a0ab0947c,63f3cfca20052e4ae7554ebf,6453cc0a001b050e56deb016,2023-05-04_17h16.15.873,ga_syllabified_check,2022.2.5,Win32,144.0714594,,,,,,,,,,,,,,./stim/p07_syllable_1_palumaisto_hit.wav,p07,palumaisto,hit,pa-lu-mais-to,pa-lu-mais-to,pa-lu-ma-is-to, ,-0.336179296,-0.098719317,1,0,0,2.3686,text_option_1,,0,98,98,164,1
5f5aa7a073b8271a0ab0947c,63f3cfca20052e4ae7554ebf,6453cc0a001b050e56deb016,2023-05-04_17h16.15.873,ga_syllabified_check,2022.2.5,Win32,144.0714594,,,,,,,,,,,,,,./stim/p04_syllable_1_falufaisto_hit.wav,p04,falufaisto,hit,fa-lu-fais-to,fa-lu-fais-to,fa-lu-fa-is-to, ,-0.359658485,-0.093383138,1,0,0,1.257,text_option_1,,0,99,99,37,1
5f5aa7a073b8271a0ab0947c,63f3cfca20052e4ae7554ebf,6453cc0a001b050e56deb016,2023-05-04_17h16.15.873,ga_syllabified_check,2022.2.5,Win32,144.0714594,,,,,,,,,,,,,,./stim/p06_syllable_1_falutraigo_hit.wav,p06,falutraigo,hit,fa-lu-tra-i-go,fa-lu-trai-go,fa-lu-tra-i-go, ,0.421558164,-0.104055496,1,0,0,3.8194,text_option_2,,0,100,100,106,1
5f5aa7a073b8271a0ab0947c,63f3cfca20052e4ae7554ebf,6453cc0a001b050e56deb016,2023-05-04_17h16.15.873,ga_syllabified_check,2022.2.5,Win32,144.0714594,,,,,,,,,,,,,,./stim/p08_syllable_1_pachialo_hit.wav,p08,pachialo,hit,pa-chi-ja-lo,pa-chia-lo,pa-chi-a-lo, ,0.383137673,-0.089114194,1,0,0,0.9096,text_option_2,,0,101,101,194,1
5f5aa7a073b8271a0ab0947c,63f3cfca20052e4ae7554ebf,6453cc0a001b050e56deb016,2023-05-04_17h16.15.873,ga_syllabified_check,2022.2.5,Win32,144.0714594,,,,,,,,,,,,,,./stim/p07_syllable_1_lakafiaisto_hit.wav,p07,lakafiaisto,hit,la-ka-fiais-to,la-ka-fiais-to,la-ka-fi-ais-to,la-ka-fia-is-to,-0.372465315,-0.105122732,1,0,0,1.2832,text_option_1,,0,102,102,146,1
5f5aa7a073b8271a0ab0947c,63f3cfca20052e4ae7554ebf,6453cc0a001b050e56deb016,2023-05-04_17h16.15.873,ga_syllabified_check,2022.2.5,Win32,144.0714594,,,,,,,,,,,,,,./stim/p03_syllable_1_lakakuaisto_hit.wav,p03,lakakuaisto,hit,la-ka-kuais-to,la-ka-kuais-to,la-ka-ku-ais-to,la-ka-kua-is-to,-0.331910352,-0.086979723,1,0,0,1.1806,text_option_1,,0,103,103,15,1
5f5aa7a073b8271a0ab0947c,63f3cfca20052e4ae7554ebf,6453cc0a001b050e56deb016,2023-05-04_17h16.15.873,ga_syllabified_check,2022.2.5,Win32,144.0714594,,,,,,,,,,,,,,./stim/p05_syllable_1_palutrauco_hit.wav,p05,palutrauco,hit,pa-lu-trai-co,pa-lu-trau-co,pa-lu-tra-u-co, ,-0.021344717,-0.306830309,1,0,0,3.0673,text_option_other,pa-lu-trai-co,0,104,104,97,1
5f5aa7a073b8271a0ab0947c,63f3cfca20052e4ae7554ebf,6453cc0a001b050e56deb016,2023-05-04_17h16.15.873,ga_syllabified_check,2022.2.5,Win32,144.0714594,,,,,,,,,,,,,,./stim/p04_syllable_1_ruyiola_hit.wav,p04,ruyiola,hit,ru-yio-la,ru-yio-la,ru-yi-o-la, ,-0.348986126,-0.097652081,1,0,0,0.4288,text_option_1,,0,105,105,66,1
5f5aa7a073b8271a0ab0947c,63f3cfca20052e4ae7554ebf,6453cc0a001b050e56deb016,2023-05-04_17h16.15.873,ga_syllabified_check,2022.2.5,Win32,144.0714594,,,,,,,,,,,,,,./stim/p08_syllable_1_lakakiaisto_hit.wav,p08,lakakiaisto,hit,la-ka-ki-jas-to,la-ka-kiais-to,la-ka-ki-ais-to,la-ka-kia-is-to,0.464247599,-0.082710779,1,0,0,2.4999,text_option_2,,0,106,106,184,1
5f5aa7a073b8271a0ab0947c,63f3cfca20052e4ae7554ebf,6453cc0a001b050e56deb016,2023-05-04_17h16.15.873,ga_syllabified_check,2022.2.5,Win32,144.0714594,,,,,,,,,,,,,,./stim/p04_syllable_1_lakatuaisto_hit.wav,p04,lakatuaisto,hit,la-ka-kuais-to,la-ka-tuais-to,la-ka-tu-ais-to,la-ka-tua-is-to,-0.381003202,-0.105122732,1,0,0,1.6616,text_option_1,,0,107,107,53,1
5f5aa7a073b8271a0ab0947c,63f3cfca20052e4ae7554ebf,6453cc0a001b050e56deb016,2023-05-04_17h16.15.873,ga_syllabified_check,2022.2.5,Win32,144.0714594,,,,,,,,,,,,,,./stim/p08_syllable_1_costonhialo_hit.wav,p08,costoñialo,hit,cos-to-nhia-lo,cos-to-ñia-lo,cos-to-ñi-a-lo, ,-0.362860192,-0.10298826,1,0,0,2.5378,text_option_1,,0,108,108,171,1
5f5aa7a073b8271a0ab0947c,63f3cfca20052e4ae7554ebf,6453cc0a001b050e56deb016,2023-05-04_17h16.15.873,ga_syllabified_check,2022.2.5,Win32,144.0714594,,,,,,,,,,,,,,./stim/p05_syllable_1_lliape_hit.wav,p05,lliape,hit,liai-pe,llia-pe,lli-a-pe, ,-0.363927428,-0.110458911,1,0,0,0.979,text_option_1,,0,109,109,88,1
5f5aa7a073b8271a0ab0947c,63f3cfca20052e4ae7554ebf,6453cc0a001b050e56deb016,2023-05-04_17h16.15.873,ga_syllabified_check,2022.2.5,Win32,144.0714594,,,,,,,,,,,,,,./stim/p06_syllable_1_palufauro_hit.wav,p06,palufauro,hit,pa-lu-fau-ro,pa-lu-fau-ro,pa-lu-fa-u-ro, ,0.410885806,-0.086979723,1,0,0,4.0581,text_option_2,,0,110,110,127,1
5f5aa7a073b8271a0ab0947c,63f3cfca20052e4ae7554ebf,6453cc0a001b050e56deb016,2023-05-04_17h16.15.873,ga_syllabified_check,2022.2.5,Win32,144.0714594,,,,,,,,,,,,,,./stim/p06_syllable_1_lakapuaisto_hit.wav,p06,lakapuaisto,hit,la-ka-pu-a-is,la-ka-puais-to,la-ka-pu-ais-to,la-ka-pua-is-to,-0.037353255,-0.296157951,1,0,0,6.4236,text_option_other,la-ka-pu-a-is-to,0,111,111,119,1
5f5aa7a073b8271a0ab0947c,63f3cfca20052e4ae7554ebf,6453cc0a001b050e56deb016,2023-05-04_17h16.15.873,ga_syllabified_check,2022.2.5,Win32,144.0714594,,,,,,,,,,,,,,./stim/p04_syllable_1_lakaduaisto_hit.wav,p04,lakaduaisto,hit,la-ka-duais-to,la-ka-duais-to,la-ka-du-ais-to,la-ka-dua-is-to,-0.407684098,-0.088046958,1,0,0,1.146,text_option_1,,0,112,112,43,1
5f5aa7a073b8271a0ab0947c,63f3cfca20052e4ae7554ebf,6453cc0a001b050e56deb016,2023-05-04_17h16.15.873,ga_syllabified_check,2022.2.5,Win32,144.0714594,,,,,,,,,,,,,,./stim/p04_syllable_1_lakabiaisto_hit.wav,p04,lakabiaisto,hit,la-ka-biais-to,la-ka-biais-to,la-ka-bi-ais-to,la-ka-bia-is-to,-0.372465315,-0.114727855,1,0,0,0.4739,text_option_1,,0,113,113,40,1
5f5aa7a073b8271a0ab0947c,63f3cfca20052e4ae7554ebf,6453cc0a001b050e56deb016,2023-05-04_17h16.15.873,ga_syllabified_check,2022.2.5,Win32,144.0714594,,,,,,,,,,,,,,./stim/p05_syllable_1_lakaduaisto_hit.wav,p05,lakaduaisto,hit,la-ka-dais-to,la-ka-duais-to,la-ka-du-ais-to,la-ka-dua-is-to,-0.352187834,-0.111526147,1,0,0,2.0833,text_option_1,,0,114,114,77,1
5f5aa7a073b8271a0ab0947c,63f3cfca20052e4ae7554ebf,6453cc0a001b050e56deb016,2023-05-04_17h16.15.873,ga_syllabified_check,2022.2.5,Win32,144.0714594,,,,,,,,,,,,,,./stim/p03_syllable_1_lakakiaisto_hit.wav,p03,lakakiaisto,hit,la-ka-kiais-to,la-ka-kiais-to,la-ka-ki-ais-to,la-ka-kia-is-to,-0.337246531,-0.101921025,1,0,0,2.2569,text_option_1,,0,115,115,14,1
5f5aa7a073b8271a0ab0947c,63f3cfca20052e4ae7554ebf,6453cc0a001b050e56deb016,2023-05-04_17h16.15.873,ga_syllabified_check,2022.2.5,Win32,144.0714594,,,,,,,,,,,,,,./stim/p08_syllable_1_tuliafo_hit.wav,p08,tuliafo,hit,tu-li-a-fo,tu-lia-fo,tu-li-a-fo, ,0.436499466,-0.106189968,1,0,0,0.9237,text_option_2,,0,116,116,203,1
5f5aa7a073b8271a0ab0947c,63f3cfca20052e4ae7554ebf,6453cc0a001b050e56deb016,2023-05-04_17h16.15.873,ga_syllabified_check,2022.2.5,Win32,144.0714594,,,,,,,,,,,,,,./stim/p03_syllable_1_lakagiaisto_hit.wav,p03,lakagiaisto,hit,la-ka-giais-to,la-ka-giais-to,la-ka-gi-ais-to,la-ka-gia-is-to,-0.3660619,-0.109391676,1,0,0,1.1529,text_option_1,,0,117,117,12,1
5f5aa7a073b8271a0ab0947c,63f3cfca20052e4ae7554ebf,6453cc0a001b050e56deb016,2023-05-04_17h16.15.873,ga_syllabified_check,2022.2.5,Win32,144.0714594,,,,,,,,,,,,,,./stim/p03_syllable_1_lakaguaisto_hit.wav,p03,lakaguaisto,hit,la-ka-guais-to,la-ka-guais-to,la-ka-gu-ais-to,la-ka-gua-is-to,-0.364994664,-0.095517609,1,0,0,0.8819,text_option_1,,0,118,118,13,1
5f5aa7a073b8271a0ab0947c,63f3cfca20052e4ae7554ebf,6453cc0a001b050e56deb016,2023-05-04_17h16.15.873,ga_syllabified_check,2022.2.5,Win32,144.0714594,,,,,,,,,,,,,,./stim/p08_syllable_1_lakapiaisto_hit.wav,p08,lakapiaisto,hit,la-ka-pi-as-to,la-ka-piais-to,la-ka-pi-ais-to,la-ka-pia-is-to,0.401280683,-0.083778015,1,0,0,4.0833,text_option_2,,0,119,119,186,1
5f5aa7a073b8271a0ab0947c,63f3cfca20052e4ae7554ebf,6453cc0a001b050e56deb016,2023-05-04_17h16.15.873,ga_syllabified_check,2022.2.5,Win32,144.0714594,,,,,,,,,,,,,,./stim/p08_syllable_1_palumaisto_hit.wav,p08,palumaisto,hit,pa-lu-mais-to,pa-lu-mais-to,pa-lu-ma-is-to, ,-0.307363927,-0.110458911,1,0,0,1.7778,text_option_1,,0,120,120,198,1
5f5aa7a073b8271a0ab0947c,63f3cfca20052e4ae7554ebf,6453cc0a001b050e56deb016,2023-05-04_17h16.15.873,ga_syllabified_check,2022.2.5,Win32,144.0714594,,,,,,,,,,,,,,./stim/p06_syllable_1_falufaisto_hit.wav,p06,falufaisto,hit,fa-lu-fa-is-to,fa-lu-fais-to,fa-lu-fa-is-to, ,0.414087513,-0.095517609,1,0,0,2.0486,text_option_2,,0,121,121,105,1
5f5aa7a073b8271a0ab0947c,63f3cfca20052e4ae7554ebf,6453cc0a001b050e56deb016,2023-05-04_17h16.15.873,ga_syllabified_check,2022.2.5,Win32,144.0714594,,,,,,,,,,,,,,./stim/p05_syllable_1_costonhialo_hit.wav,p05,costoñialo,hit,cos-to-nhia-lo,cos-to-ñia-lo,cos-to-ñi-a-lo, ,-0.309498399,-0.107257204,1,0,0,1.2292,text_option_1,,0,122,122,69,1
5f5aa7a073b8271a0ab0947c,63f3cfca20052e4ae7554ebf,6453cc0a001b050e56deb016,2023-05-04_17h16.15.873,ga_syllabified_check,2022.2.5,Win32,144.0714594,,,,,,,,,,,,,,./stim/p05_syllable_1_lakafuaisto_hit.wav,p05,lakafuaisto,hit,la-ka-fais-to,la-ka-fuais-to,la-ka-fu-ais-to,la-ka-fua-is-to,-0.344717182,-0.086979723,1,0,0,5.0177,text_option_1,,0,123,123,79,1
5f5aa7a073b8271a0ab0947c,63f3cfca20052e4ae7554ebf,6453cc0a001b050e56deb016,2023-05-04_17h16.15.873,ga_syllabified_check,2022.2.5,Win32,144.0714594,,,,,,,,,,,,,,./stim/p04_syllable_1_palufauto_hit.wav,p04,palufauto,hit,pa-lu-fau-to,pa-lu-fau-to,pa-lu-fa-u-to, ,-0.364994664,-0.106189968,1,0,0,0.9375,text_option_1,,0,124,124,60,1
5f5aa7a073b8271a0ab0947c,63f3cfca20052e4ae7554ebf,6453cc0a001b050e56deb016,2023-05-04_17h16.15.873,ga_syllabified_check,2022.2.5,Win32,144.0714594,,,,,,,,,,,,,,./stim/p03_syllable_1_flauro_hit.wav,p03,flauro,hit,flau-ro,flau-ro,fla-u-ro, ,-0.449306297,-0.10298826,1,0,0,0.5099,text_option_1,,0,125,125,5,1
5f5aa7a073b8271a0ab0947c,63f3cfca20052e4ae7554ebf,6453cc0a001b050e56deb016,2023-05-04_17h16.15.873,ga_syllabified_check,2022.2.5,Win32,144.0714594,,,,,,,,,,,,,,./stim/p05_syllable_1_manhiala_hit.wav,p05,mañiala,hit,ma-nhia-la,ma-ñia-la,ma-ñi-a-la, ,-0.377801494,-0.097652081,1,0,0,1.6016,text_option_1,,0,126,126,89,1
5f5aa7a073b8271a0ab0947c,63f3cfca20052e4ae7554ebf,6453cc0a001b050e56deb016,2023-05-04_17h16.15.873,ga_syllabified_check,2022.2.5,Win32,144.0714594,,,,,,,,,,,,,,./stim/p04_syllable_1_lakaguaisto_hit.wav,p04,lakaguaisto,hit,la-ka-guais-to,la-ka-guais-to,la-ka-gu-ais-to,la-ka-gua-is-to,-0.322305229,-0.10298826,1,0,0,1.1876,text_option_1,,0,127,127,47,1
5f5aa7a073b8271a0ab0947c,63f3cfca20052e4ae7554ebf,6453cc0a001b050e56deb016,2023-05-04_17h16.15.873,ga_syllabified_check,2022.2.5,Win32,144.0714594,,,,,,,,,,,,,,./stim/p06_syllable_1_mebochiana_hit.wav,p06,mebochiana,hit,me-bo-shi-a-na,me-bo-chia-na,me-bo-chi-a-na, ,0.414087513,-0.122198506,1,0,0,2.9792,text_option_2,,0,128,128,124,1
5f5aa7a073b8271a0ab0947c,63f3cfca20052e4ae7554ebf,6453cc0a001b050e56deb016,2023-05-04_17h16.15.873,ga_syllabified_check,2022.2.5,Win32,144.0714594,,,,,,,,,,,,,,./stim/p08_syllable_1_lakapuaisto_hit.wav,p08,lakapuaisto,hit,la-ka-pu-as-to,la-ka-puais-to,la-ka-pu-ais-to,la-ka-pua-is-to,0.354322305,-0.110458911,1,0,0,2.8123,text_option_2,,0,129,129,187,1
5f5aa7a073b8271a0ab0947c,63f3cfca20052e4ae7554ebf,6453cc0a001b050e56deb016,2023-05-04_17h16.15.873,ga_syllabified_check,2022.2.5,Win32,144.0714594,,,,,,,,,,,,,,./stim/p05_syllable_1_lakakuaisto_hit.wav,p05,lakakuaisto,hit,la-ka-kais-to,la-ka-kuais-to,la-ka-ku-ais-to,la-ka-kua-is-to,-0.323372465,-0.106189968,1,0,0,0.9653,text_option_1,,0,130,130,83,1
5f5aa7a073b8271a0ab0947c,63f3cfca20052e4ae7554ebf,6453cc0a001b050e56deb016,2023-05-04_17h16.15.873,ga_syllabified_check,2022.2.5,Win32,144.0714594,,,,,,,,,,,,,,./stim/p07_syllable_1_chiaba_hit.wav,p07,chiaba,hit,chia-ba,chia-ba,chi-a-ba, ,-0.375667022,-0.092315902,1,0,0,0.3819,text_option_1,,0,131,131,136,1
5f5aa7a073b8271a0ab0947c,63f3cfca20052e4ae7554ebf,6453cc0a001b050e56deb016,2023-05-04_17h16.15.873,ga_syllabified_check,2022.2.5,Win32,144.0714594,,,,,,,,,,,,,,./stim/p05_syllable_1_palumaisto_hit.wav,p05,palumaisto,hit,pa-lu-mais-to,pa-lu-mais-to,pa-lu-ma-is-to, ,-0.348986126,-0.110458911,1,0,0,0.9722,text_option_1,,0,132,132,96,1
5f5aa7a073b8271a0ab0947c,63f3cfca20052e4ae7554ebf,6453cc0a001b050e56deb016,2023-05-04_17h16.15.873,ga_syllabified_check,2022.2.5,Win32,144.0714594,,,,,,,,,,,,,,./stim/p05_syllable_1_paluguato_hit.wav,p05,paluguato,hit,pa-lu-gau-to,pa-lu-gua-to,pa-lu-gu-a-to, ,-0.318036286,-0.089114194,1,0,0,1.4723,text_option_1,,0,133,133,95,1
5f5aa7a073b8271a0ab0947c,63f3cfca20052e4ae7554ebf,6453cc0a001b050e56deb016,2023-05-04_17h16.15.873,ga_syllabified_check,2022.2.5,Win32,144.0714594,,,,,,,,,,,,,,./stim/p04_syllable_1_mebochiana_hit.wav,p04,mebochiana,hit,me-bo-chia-na,me-bo-chia-na,me-bo-chi-a-na, ,-0.367129136,-0.093383138,1,0,0,1.0068,text_option_1,,0,134,134,56,1
5f5aa7a073b8271a0ab0947c,63f3cfca20052e4ae7554ebf,6453cc0a001b050e56deb016,2023-05-04_17h16.15.873,ga_syllabified_check,2022.2.5,Win32,144.0714594,,,,,,,,,,,,,,./stim/p03_syllable_1_falufaisto_hit.wav,p03,falufaisto,hit,fa-lu-fais-to,fa-lu-fais-to,fa-lu-fa-is-to, ,-0.352187834,-0.106189968,1,0,0,0.9862,text_option_1,,0,135,135,3,1
5f5aa7a073b8271a0ab0947c,63f3cfca20052e4ae7554ebf,6453cc0a001b050e56deb016,2023-05-04_17h16.15.873,ga_syllabified_check,2022.2.5,Win32,144.0714594,,,,,,,,,,,,,,./stim/p04_syllable_1_pachialo_hit.wav,p04,pachialo,hit,pa-chia-lo,pa-chia-lo,pa-chi-a-lo, ,-0.369263607,-0.089114194,1,0,0,0.4166,text_option_1,,0,136,136,58,1
5f5aa7a073b8271a0ab0947c,63f3cfca20052e4ae7554ebf,6453cc0a001b050e56deb016,2023-05-04_17h16.15.873,ga_syllabified_check,2022.2.5,Win32,144.0714594,,,,,,,,,,,,,,./stim/p06_syllable_1_chiaba_hit.wav,p06,chiaba,hit,chi-a-ba,chia-ba,chi-a-ba, ,-0.363927428,-0.094450374,1,0,0,1.4165,text_option_1,,0,137,137,102,1
5f5aa7a073b8271a0ab0947c,63f3cfca20052e4ae7554ebf,6453cc0a001b050e56deb016,2023-05-04_17h16.15.873,ga_syllabified_check,2022.2.5,Win32,144.0714594,,,,,,,,,,,,,,./stim/p05_syllable_1_faluduako_hit.wav,p05,faluduako,hit,fa-lu-ba-ko,fa-lu-dua-ko,fa-lu-du-a-ko, ,0.027748132,-0.290821772,1,0,0,2.4305,text_option_other,fa-lu-ba-ko,0,138,138,70,1
5f5aa7a073b8271a0ab0947c,63f3cfca20052e4ae7554ebf,6453cc0a001b050e56deb016,2023-05-04_17h16.15.873,ga_syllabified_check,2022.2.5,Win32,144.0714594,,,,,,,,,,,,,,./stim/p06_syllable_1_paluguato_hit.wav,p06,paluguato,hit,pa-lu-gua-to,pa-lu-gua-to,pa-lu-gu-a-to, ,-0.327641409,-0.097652081,1,0,0,2.3775,text_option_1,,0,139,139,129,1
5f5aa7a073b8271a0ab0947c,63f3cfca20052e4ae7554ebf,6453cc0a001b050e56deb016,2023-05-04_17h16.15.873,ga_syllabified_check,2022.2.5,Win32,144.0714594,,,,,,,,,,,,,,./stim/p07_syllable_1_lakakuaisto_hit.wav,p07,lakakuaisto,hit,la-ka-kuais-to,la-ka-kuais-to,la-ka-ku-ais-to,la-ka-kua-is-to,-0.331910352,-0.105122732,1,0,0,2.1385,text_option_1,,0,140,140,151,1
5f5aa7a073b8271a0ab0947c,63f3cfca20052e4ae7554ebf,6453cc0a001b050e56deb016,2023-05-04_17h16.15.873,ga_syllabified_check,2022.2.5,Win32,144.0714594,,,,,,,,,,,,,,./stim/p05_syllable_1_mebochiana_hit.wav,p05,mebochiana,hit,me-cho-chai-na,me-bo-chia-na,me-bo-chi-a-na, ,-0.354322305,-0.115795091,1,0,0,5.5417,text_option_1,,0,141,141,90,1
5f5aa7a073b8271a0ab0947c,63f3cfca20052e4ae7554ebf,6453cc0a001b050e56deb016,2023-05-04_17h16.15.873,ga_syllabified_check,2022.2.5,Win32,144.0714594,,,,,,,,,,,,,,./stim/p08_syllable_1_falufaisto_hit.wav,p08,falufaisto,hit,fa-lu-fais-to,fa-lu-fais-to,fa-lu-fa-is-to, ,-0.353255069,-0.096584845,1,0,0,1.663,text_option_1,,0,142,142,173,1
5f5aa7a073b8271a0ab0947c,63f3cfca20052e4ae7554ebf,6453cc0a001b050e56deb016,2023-05-04_17h16.15.873,ga_syllabified_check,2022.2.5,Win32,144.0714594,,,,,,,,,,,,,,./stim/p04_syllable_1_nhiape_hit.wav,p04,ñiape,hit,nhia-pe,ñia-pe,ñi-a-pe, ,-0.359658485,-0.085912487,1,0,0,3.0031,text_option_1,,0,143,143,57,1
5f5aa7a073b8271a0ab0947c,63f3cfca20052e4ae7554ebf,6453cc0a001b050e56deb016,2023-05-04_17h16.15.873,ga_syllabified_check,2022.2.5,Win32,144.0714594,,,,,,,,,,,,,,./stim/p07_syllable_1_palufauto_hit.wav,p07,palufauto,hit,pa-lu-fau-to,pa-lu-fau-to,pa-lu-fa-u-to, ,-0.39167556,-0.110458911,1,0,0,1.4132,text_option_1,,0,144,144,162,1
5f5aa7a073b8271a0ab0947c,63f3cfca20052e4ae7554ebf,6453cc0a001b050e56deb016,2023-05-04_17h16.15.873,ga_syllabified_check,2022.2.5,Win32,144.0714594,,,,,,,,,,,,,,./stim/p03_syllable_1_paluguato_hit.wav,p03,paluguato,hit,pa-lu-gua,pa-lu-gua-to,pa-lu-gu-a-to, ,-0.363927428,-0.112593383,1,0,0,1.2779,text_option_1,,0,145,145,27,1
5f5aa7a073b8271a0ab0947c,63f3cfca20052e4ae7554ebf,6453cc0a001b050e56deb016,2023-05-04_17h16.15.873,ga_syllabified_check,2022.2.5,Win32,144.0714594,,,,,,,,,,,,,,./stim/p07_syllable_1_costonhialo_hit.wav,p07,costoñialo,hit,cos-to-nhia-lo,cos-to-ñia-lo,cos-to-ñi-a-lo, ,0.406616862,-0.114727855,1,0,0,1.8065,text_option_2,,0,146,146,137,1
5f5aa7a073b8271a0ab0947c,63f3cfca20052e4ae7554ebf,6453cc0a001b050e56deb016,2023-05-04_17h16.15.873,ga_syllabified_check,2022.2.5,Win32,144.0714594,,,,,,,,,,,,,,./stim/p04_syllable_1_rausto_hit.wav,p04,rausto,hit,raus-to,raus-to,ra-us-to, ,-0.436499466,-0.085912487,1,0,0,0.2066,text_option_1,,0,147,147,65,1
5f5aa7a073b8271a0ab0947c,63f3cfca20052e4ae7554ebf,6453cc0a001b050e56deb016,2023-05-04_17h16.15.873,ga_syllabified_check,2022.2.5,Win32,144.0714594,,,,,,,,,,,,,,./stim/p05_syllable_1_lakadiaisto_hit.wav,p05,lakadiaisto,hit,la-ka-di-ais-to,la-ka-diais-to,la-ka-di-ais-to,la-ka-dia-is-to,-0.330843116,-0.109391676,1,0,0,1.4097,text_option_1,,0,148,148,76,1
5f5aa7a073b8271a0ab0947c,63f3cfca20052e4ae7554ebf,6453cc0a001b050e56deb016,2023-05-04_17h16.15.873,ga_syllabified_check,2022.2.5,Win32,144.0714594,,,,,,,,,,,,,,./stim/p03_syllable_1_lakaduaisto_hit.wav,p03,lakaduaisto,hit,la-ka-duais-to,la-ka-duais-to,la-ka-du-ais-to,la-ka-dua-is-to,-0.315901814,-0.111526147,1,0,0,1.0293,text_option_1,,0,149,149,9,1
5f5aa7a073b8271a0ab0947c,63f3cfca20052e4ae7554ebf,6453cc0a001b050e56deb016,2023-05-04_17h16.15.873,ga_syllabified_check,2022.2.5,Win32,144.0714594,,,,,,,,,,,,,,./stim/p06_syllable_1_lakafiaisto_hit.wav,p06,lakafiaisto,hit,la-ka-fia-is-to,la-ka-fiais-to,la-ka-fi-ais-to,la-ka-fia-is-to,0.07470651,-0.109391676,1,0,0,3.0834,text_option_3,,0,150,150,112,1
5f5aa7a073b8271a0ab0947c,63f3cfca20052e4ae7554ebf,6453cc0a001b050e56deb016,2023-05-04_17h16.15.873,ga_syllabified_check,2022.2.5,Win32,144.0714594,,,,,,,,,,,,,,./stim/p06_syllable_1_palufauto_hit.wav,p06,palufauto,hit,pa-lu-fau-to,pa-lu-fau-to,pa-lu-fa-u-to, ,-0.341515475,-0.113660619,1,0,0,2.9932,text_option_1,,0,151,151,128,1
5f5aa7a073b8271a0ab0947c,63f3cfca20052e4ae7554ebf,6453cc0a001b050e56deb016,2023-05-04_17h16.15.873,ga_syllabified_check,2022.2.5,Win32,144.0714594,,,,,,,,,,,,,,./stim/p05_syllable_1_lakagiaisto_hit.wav,p05,lakagiaisto,hit,la-ka-ki-ais-to,la-ka-giais-to,la-ka-gi-ais-to,la-ka-gia-is-to,-0.351120598,-0.104055496,1,0,0,1.7222,text_option_1,,0,152,152,80,1
5f5aa7a073b8271a0ab0947c,63f3cfca20052e4ae7554ebf,6453cc0a001b050e56deb016,2023-05-04_17h16.15.873,ga_syllabified_check,2022.2.5,Win32,144.0714594,,,,,,,,,,,,,,./stim/p04_syllable_1_palufauro_hit.wav,p04,palufauro,hit,pa-lu-fau-ro,pa-lu-fau-ro,pa-lu-fa-u-ro, ,-0.399146211,-0.086979723,1,0,0,1.9663,text_option_1,,0,153,153,59,1
5f5aa7a073b8271a0ab0947c,63f3cfca20052e4ae7554ebf,6453cc0a001b050e56deb016,2023-05-04_17h16.15.873,ga_syllabified_check,2022.2.5,Win32,144.0714594,,,,,,,,,,,,,,./stim/p03_syllable_1_mebochiana_hit.wav,p03,mebochiana,hit,me-bo-chia-na,me-bo-chia-na,me-bo-chi-a-na, ,-0.328708645,-0.10298826,1,0,0,0.9544,text_option_1,,0,154,154,22,1
5f5aa7a073b8271a0ab0947c,63f3cfca20052e4ae7554ebf,6453cc0a001b050e56deb016,2023-05-04_17h16.15.873,ga_syllabified_check,2022.2.5,Win32,144.0714594,,,,,,,,,,,,,,./stim/p06_syllable_1_lakadiaisto_hit.wav,p06,lakadiaisto,hit,la-ka-dia-is-to,la-ka-diais-to,la-ka-di-ais-to,la-ka-dia-is-to,0.051227321,-0.109391676,1,0,0,2.4636,text_option_3,,0,155,155,110,1
5f5aa7a073b8271a0ab0947c,63f3cfca20052e4ae7554ebf,6453cc0a001b050e56deb016,2023-05-04_17h16.15.873,ga_syllabified_check,2022.2.5,Win32,144.0714594,,,,,,,,,,,,,,./stim/p04_syllable_1_payielo_hit.wav,p04,payielo,hit,pa-yie-lo,pa-yie-lo,pa-yi-e-lo, ,-0.374599787,-0.098719317,1,0,0,0.2639,text_option_1,,0,156,156,64,1
5f5aa7a073b8271a0ab0947c,63f3cfca20052e4ae7554ebf,6453cc0a001b050e56deb016,2023-05-04_17h16.15.873,ga_syllabified_check,2022.2.5,Win32,144.0714594,,,,,,,,,,,,,,./stim/p03_syllable_1_lakafiaisto_hit.wav,p03,lakafiaisto,hit,la-ka-fiais-to,la-ka-fiais-to,la-ka-fi-ais-to,la-ka-fia-is-to,-0.395944504,-0.105122732,1,0,0,1.664,text_option_1,,0,157,157,10,1
5f5aa7a073b8271a0ab0947c,63f3cfca20052e4ae7554ebf,6453cc0a001b050e56deb016,2023-05-04_17h16.15.873,ga_syllabified_check,2022.2.5,Win32,144.0714594,,,,,,,,,,,,,,./stim/p03_syllable_1_manhiala_hit.wav,p03,mañiala,hit,ma-nhia-la,ma-ñia-la,ma-ñi-a-la, ,-0.372465315,-0.100853789,1,0,0,0.5484,text_option_1,,0,158,158,21,1
5f5aa7a073b8271a0ab0947c,63f3cfca20052e4ae7554ebf,6453cc0a001b050e56deb016,2023-05-04_17h16.15.873,ga_syllabified_check,2022.2.5,Win32,144.0714594,,,,,,,,,,,,,,./stim/p03_syllable_1_lakabuaisto_hit.wav,p03,lakabuaisto,hit,la-ka-buais-to,la-ka-buais-to,la-ka-bu-ais-to,la-ka-bua-is-to,-0.39701174,-0.098719317,1,0,0,1.1529,text_option_1,,0,159,159,7,1
5f5aa7a073b8271a0ab0947c,63f3cfca20052e4ae7554ebf,6453cc0a001b050e56deb016,2023-05-04_17h16.15.873,ga_syllabified_check,2022.2.5,Win32,144.0714594,,,,,,,,,,,,,,./stim/p08_syllable_1_palutrauco_hit.wav,p08,palutrauco,hit,pa-lu-trau-ko,pa-lu-trau-co,pa-lu-tra-u-co, ,-0.31696905,-0.113660619,1,0,0,2.1459,text_option_1,,0,160,160,199,1
5f5aa7a073b8271a0ab0947c,63f3cfca20052e4ae7554ebf,6453cc0a001b050e56deb016,2023-05-04_17h16.15.873,ga_syllabified_check,2022.2.5,Win32,144.0714594,,,,,,,,,,,,,,./stim/p04_syllable_1_costonhialo_hit.wav,p04,costoñialo,hit,cos-to-nhia-lo,cos-to-ñia-lo,cos-to-ñi-a-lo, ,-0.319103522,-0.114727855,1,0,0,1.0834,text_option_1,,0,161,161,35,1
5f5aa7a073b8271a0ab0947c,63f3cfca20052e4ae7554ebf,6453cc0a001b050e56deb016,2023-05-04_17h16.15.873,ga_syllabified_check,2022.2.5,Win32,144.0714594,,,,,,,,,,,,,,./stim/p07_syllable_1_lakatiaisto_hit.wav,p07,lakatiaisto,hit,la-ka-tiai-sto,la-ka-tiais-to,la-ka-ti-ais-to,la-ka-tia-is-to,-0.328708645,-0.105122732,1,0,0,3.0785,text_option_1,,0,162,162,154,1
5f5aa7a073b8271a0ab0947c,63f3cfca20052e4ae7554ebf,6453cc0a001b050e56deb016,2023-05-04_17h16.15.873,ga_syllabified_check,2022.2.5,Win32,144.0714594,,,,,,,,,,,,,,./stim/p08_syllable_1_lakafuaisto_hit.wav,p08,lakafuaisto,hit,la-ka-fju-ais-to,la-ka-fuais-to,la-ka-fu-ais-to,la-ka-fua-is-to,0.036286019,-0.101921025,1,0,0,2.3401,text_option_3,,0,163,163,181,1
5f5aa7a073b8271a0ab0947c,63f3cfca20052e4ae7554ebf,6453cc0a001b050e56deb016,2023-05-04_17h16.15.873,ga_syllabified_check,2022.2.5,Win32,144.0714594,,,,,,,,,,,,,,./stim/p04_syllable_1_falutraigo_hit.wav,p04,falutraigo,hit,fa-lu-trai-go,fa-lu-trai-go,fa-lu-tra-i-go, ,-0.336179296,-0.111526147,1,0,0,0.3954,text_option_1,,0,164,164,38,1
5f5aa7a073b8271a0ab0947c,63f3cfca20052e4ae7554ebf,6453cc0a001b050e56deb016,2023-05-04_17h16.15.873,ga_syllabified_check,2022.2.5,Win32,144.0714594,,,,,,,,,,,,,,./stim/p04_syllable_1_lakapiaisto_hit.wav,p04,lakapiaisto,hit,la-ka-piais-to,la-ka-piais-to,la-ka-pi-ais-to,la-ka-pia-is-to,-0.327641409,-0.097652081,1,0,0,0.9099,text_option_1,,0,165,165,50,1
5f5aa7a073b8271a0ab0947c,63f3cfca20052e4ae7554ebf,6453cc0a001b050e56deb016,2023-05-04_17h16.15.873,ga_syllabified_check,2022.2.5,Win32,144.0714594,,,,,,,,,,,,,,./stim/p03_syllable_1_lakapiaisto_hit.wav,p03,lakapiaisto,hit,la-ka-piais-to,la-ka-piais-to,la-ka-pi-ais-to,la-ka-pia-is-to,-0.326574173,-0.100853789,1,0,0,1.1563,text_option_1,,0,166,166,16,1
5f5aa7a073b8271a0ab0947c,63f3cfca20052e4ae7554ebf,6453cc0a001b050e56deb016,2023-05-04_17h16.15.873,ga_syllabified_check,2022.2.5,Win32,144.0714594,,,,,,,,,,,,,,./stim/p06_syllable_1_lakabiaisto_hit.wav,p06,lakabiaisto,hit,la-ka-bia-is-to,la-ka-biais-to,la-ka-bi-ais-to,la-ka-bia-is-to,0.052294557,-0.105122732,1,0,0,4.2333,text_option_3,,0,167,167,108,1
5f5aa7a073b8271a0ab0947c,63f3cfca20052e4ae7554ebf,6453cc0a001b050e56deb016,2023-05-04_17h16.15.873,ga_syllabified_check,2022.2.5,Win32,144.0714594,,,,,,,,,,,,,,./stim/p04_syllable_1_lakagiaisto_hit.wav,p04,lakagiaisto,hit,la-ka-giais-to,la-ka-giais-to,la-ka-gi-ais-to,la-ka-gia-is-to,-0.384204909,-0.111526147,1,0,0,1.6806,text_option_1,,0,168,168,46,1
5f5aa7a073b8271a0ab0947c,63f3cfca20052e4ae7554ebf,6453cc0a001b050e56deb016,2023-05-04_17h16.15.873,ga_syllabified_check,2022.2.5,Win32,144.0714594,,,,,,,,,,,,,,./stim/p05_syllable_1_lakatuaisto_hit.wav,p05,lakatuaisto,hit,la-ka-tais-to,la-ka-tuais-to,la-ka-tu-ais-to,la-ka-tua-is-to,-0.361792956,-0.106189968,1,0,0,2.1806,text_option_1,,0,169,169,87,1
5f5aa7a073b8271a0ab0947c,63f3cfca20052e4ae7554ebf,6453cc0a001b050e56deb016,2023-05-04_17h16.15.873,ga_syllabified_check,2022.2.5,Win32,144.0714594,,,,,,,,,,,,,,./stim/p04_syllable_1_lakabuaisto_hit.wav,p04,lakabuaisto,hit,la-ka-buais-to,la-ka-buais-to,la-ka-bu-ais-to,la-ka-bua-is-to,-0.341515475,-0.106189968,1,0,0,0.4236,text_option_1,,0,170,170,41,1
5f5aa7a073b8271a0ab0947c,63f3cfca20052e4ae7554ebf,6453cc0a001b050e56deb016,2023-05-04_17h16.15.873,ga_syllabified_check,2022.2.5,Win32,144.0714594,,,,,,,,,,,,,,./stim/p07_syllable_1_lakatuaisto_hit.wav,p07,lakatuaisto,hit,la-ka-tuais-to,la-ka-tuais-to,la-ka-tu-ais-to,la-ka-tua-is-to,-0.341515475,-0.106189968,1,0,0,2.1598,text_option_1,,0,171,171,155,1
5f5aa7a073b8271a0ab0947c,63f3cfca20052e4ae7554ebf,6453cc0a001b050e56deb016,2023-05-04_17h16.15.873,ga_syllabified_check,2022.2.5,Win32,144.0714594,,,,,,,,,,,,,,./stim/p03_syllable_1_tuliafo_hit.wav,p03,tuliafo,hit,tu-lia-fo,tu-lia-fo,tu-li-a-fo, ,-0.364994664,-0.098719317,1,0,0,0.8749,text_option_1,,0,172,172,33,1
5f5aa7a073b8271a0ab0947c,63f3cfca20052e4ae7554ebf,6453cc0a001b050e56deb016,2023-05-04_17h16.15.873,ga_syllabified_check,2022.2.5,Win32,144.0714594,,,,,,,,,,,,,,./stim/p05_syllable_1_tuliafo_hit.wav,p05,tuliafo,hit,tu-lai-fo,tu-lia-fo,tu-li-a-fo, ,0.04909285,-0.2886873,1,0,0,2.479,text_option_other,tu-lai-fo,0,173,173,101,1
5f5aa7a073b8271a0ab0947c,63f3cfca20052e4ae7554ebf,6453cc0a001b050e56deb016,2023-05-04_17h16.15.873,ga_syllabified_check,2022.2.5,Win32,144.0714594,,,,,,,,,,,,,,./stim/p04_syllable_1_lakakiaisto_hit.wav,p04,lakakiaisto,hit,la-ka-kiais-to,la-ka-kiais-to,la-ka-ki-ais-to,la-ka-kia-is-to,-0.385272145,-0.114727855,1,0,0,1.097,text_option_1,,0,174,174,48,1
5f5aa7a073b8271a0ab0947c,63f3cfca20052e4ae7554ebf,6453cc0a001b050e56deb016,2023-05-04_17h16.15.873,ga_syllabified_check,2022.2.5,Win32,144.0714594,,,,,,,,,,,,,,./stim/p08_syllable_1_nhiape_hit.wav,p08,ñiape,hit,ni-a-pe,ñia-pe,ñi-a-pe, ,0.417289221,-0.098719317,1,0,0,0.7639,text_option_2,,0,175,175,193,1
5f5aa7a073b8271a0ab0947c,63f3cfca20052e4ae7554ebf,6453cc0a001b050e56deb016,2023-05-04_17h16.15.873,ga_syllabified_check,2022.2.5,Win32,144.0714594,,,,,,,,,,,,,,./stim/p04_syllable_1_lakakuaisto_hit.wav,p04,lakakuaisto,hit,la-ka-kuais-to,la-ka-kuais-to,la-ka-ku-ais-to,la-ka-kua-is-to,-0.372465315,-0.0773746,1,0,0,1.1808,text_option_1,,0,176,176,49,1
5f5aa7a073b8271a0ab0947c,63f3cfca20052e4ae7554ebf,6453cc0a001b050e56deb016,2023-05-04_17h16.15.873,ga_syllabified_check,2022.2.5,Win32,144.0714594,,,,,,,,,,,,,,./stim/p04_syllable_1_faluduako_hit.wav,p04,faluduako,hit,fa-lu-dua-ko,fa-lu-dua-ko,fa-lu-du-a-ko, ,-0.369263607,-0.079509072,1,0,0,0.5972,text_option_1,,0,177,177,36,1
5f5aa7a073b8271a0ab0947c,63f3cfca20052e4ae7554ebf,6453cc0a001b050e56deb016,2023-05-04_17h16.15.873,ga_syllabified_check,2022.2.5,Win32,144.0714594,,,,,,,,,,,,,,./stim/p08_syllable_1_mebochiana_hit.wav,p08,mebochiana,hit,me-bo-chi-a-na,me-bo-chia-na,me-bo-chi-a-na, ,0.410885806,-0.092315902,1,0,0,1.8679,text_option_2,,0,178,178,192,1
5f5aa7a073b8271a0ab0947c,63f3cfca20052e4ae7554ebf,6453cc0a001b050e56deb016,2023-05-04_17h16.15.873,ga_syllabified_check,2022.2.5,Win32,144.0714594,,,,,,,,,,,,,,./stim/p03_syllable_1_ruyiola_hit.wav,p03,ruyiola,hit,ru-yio-la,ru-yio-la,ru-yi-o-la, ,-0.379935966,-0.097652081,1,0,0,1.0069,text_option_1,,0,179,179,32,1
5f5aa7a073b8271a0ab0947c,63f3cfca20052e4ae7554ebf,6453cc0a001b050e56deb016,2023-05-04_17h16.15.873,ga_syllabified_check,2022.2.5,Win32,144.0714594,,,,,,,,,,,,,,./stim/p06_syllable_1_ruyiola_hit.wav,p06,ruyiola,hit,ru-yi-o-la,ru-yio-la,ru-yi-o-la, ,0.370330843,-0.114727855,1,0,0,1.4932,text_option_2,,0,180,180,134,1
5f5aa7a073b8271a0ab0947c,63f3cfca20052e4ae7554ebf,6453cc0a001b050e56deb016,2023-05-04_17h16.15.873,ga_syllabified_check,2022.2.5,Win32,144.0714594,,,,,,,,,,,,,,./stim/p05_syllable_1_palufauro_hit.wav,p05,palufauro,hit,pa-lu-fau-ro,pa-lu-fau-ro,pa-lu-fa-u-ro, ,-0.361792956,-0.105122732,1,0,0,0.6389,text_option_1,,0,181,181,93,1
5f5aa7a073b8271a0ab0947c,63f3cfca20052e4ae7554ebf,6453cc0a001b050e56deb016,2023-05-04_17h16.15.873,ga_syllabified_check,2022.2.5,Win32,144.0714594,,,,,,,,,,,,,,./stim/p07_syllable_1_flauro_hit.wav,p07,flauro,hit,flau-ro,flau-ro,fla-u-ro, ,-0.398078975,-0.092315902,1,0,0,0.8054,text_option_1,,0,182,182,141,1
5f5aa7a073b8271a0ab0947c,63f3cfca20052e4ae7554ebf,6453cc0a001b050e56deb016,2023-05-04_17h16.15.873,ga_syllabified_check,2022.2.5,Win32,144.0714594,,,,,,,,,,,,,,./stim/p04_syllable_1_palutrauco_hit.wav,p04,palutrauco,hit,pa-lu-trau-co,pa-lu-trau-co,pa-lu-tra-u-co, ,-0.456776948,-0.114727855,1,0,0,0.6807,text_option_1,,0,183,183,63,1
5f5aa7a073b8271a0ab0947c,63f3cfca20052e4ae7554ebf,6453cc0a001b050e56deb016,2023-05-04_17h16.15.873,ga_syllabified_check,2022.2.5,Win32,144.0714594,,,,,,,,,,,,,,./stim/p06_syllable_1_lakagiaisto_hit.wav,p06,lakagiaisto,hit,la-ka-gia-is-to,la-ka-giais-to,la-ka-gi-ais-to,la-ka-gia-is-to,0.073639274,-0.107257204,1,0,0,3.8193,text_option_3,,0,184,184,114,1
5f5aa7a073b8271a0ab0947c,63f3cfca20052e4ae7554ebf,6453cc0a001b050e56deb016,2023-05-04_17h16.15.873,ga_syllabified_check,2022.2.5,Win32,144.0714594,,,,,,,,,,,,,,./stim/p05_syllable_1_payielo_hit.wav,p05,payielo,hit,pai-yu-we-lo,pa-yie-lo,pa-yi-e-lo, ,0.028815368,-0.296157951,1,0,0,1.2848,text_option_other,pa-yue-lo,0,185,185,98,1
5f5aa7a073b8271a0ab0947c,63f3cfca20052e4ae7554ebf,6453cc0a001b050e56deb016,2023-05-04_17h16.15.873,ga_syllabified_check,2022.2.5,Win32,144.0714594,,,,,,,,,,,,,,./stim/p08_syllable_1_lakabuaisto_hit.wav,p08,lakabuaisto,hit,la-ka-bu-ais-to,la-ka-buais-to,la-ka-bu-ais-to,la-ka-bua-is-to,0.351120598,-0.096584845,1,0,0,2.7014,text_option_2,,0,186,186,177,1
5f5aa7a073b8271a0ab0947c,63f3cfca20052e4ae7554ebf,6453cc0a001b050e56deb016,2023-05-04_17h16.15.873,ga_syllabified_check,2022.2.5,Win32,144.0714594,,,,,,,,,,,,,,./stim/p05_syllable_1_falutraigo_hit.wav,p05,falutraigo,hit,fa-lu-trai-go,fa-lu-trai-go,fa-lu-tra-i-go, ,-0.36072572,-0.101921025,1,0,0,1.375,text_option_1,,0,187,187,72,1
5f5aa7a073b8271a0ab0947c,63f3cfca20052e4ae7554ebf,6453cc0a001b050e56deb016,2023-05-04_17h16.15.873,ga_syllabified_check,2022.2.5,Win32,144.0714594,,,,,,,,,,,,,,./stim/p07_syllable_1_lakaduaisto_hit.wav,p07,lakaduaisto,hit,la-ka-duais-to,la-ka-duais-to,la-ka-du-ais-to,la-ka-dua-is-to,-0.330843116,-0.10832444,1,0,0,2.0555,text_option_1,,0,188,188,145,1
5f5aa7a073b8271a0ab0947c,63f3cfca20052e4ae7554ebf,6453cc0a001b050e56deb016,2023-05-04_17h16.15.873,ga_syllabified_check,2022.2.5,Win32,144.0714594,,,,,,,,,,,,,,./stim/p07_syllable_1_lakafuaisto_hit.wav,p07,lakafuaisto,hit,la-ka-fuais-to,la-ka-fuais-to,la-ka-fu-ais-to,la-ka-fua-is-to,-0.341515475,-0.10832444,1,0,0,1.7502,text_option_1,,0,189,189,147,1
5f5aa7a073b8271a0ab0947c,63f3cfca20052e4ae7554ebf,6453cc0a001b050e56deb016,2023-05-04_17h16.15.873,ga_syllabified_check,2022.2.5,Win32,144.0714594,,,,,,,,,,,,,,./stim/p06_syllable_1_nhiape_hit.wav,p06,ñiape,hit,nhi-a-pe,ñia-pe,ñi-a-pe, ,0.390608324,-0.10298826,1,0,0,1.0209,text_option_2,,0,190,190,125,1
5f5aa7a073b8271a0ab0947c,63f3cfca20052e4ae7554ebf,6453cc0a001b050e56deb016,2023-05-04_17h16.15.873,ga_syllabified_check,2022.2.5,Win32,144.0714594,,,,,,,,,,,,,,./stim/p03_syllable_1_palufauro_hit.wav,p03,palufauro,hit,pa-lu-fau-ro,pa-lu-fau-ro,pa-lu-fa-u-ro, ,-0.364994664,-0.112593383,1,0,0,0.9168,text_option_1,,0,191,191,25,1
5f5aa7a073b8271a0ab0947c,63f3cfca20052e4ae7554ebf,6453cc0a001b050e56deb016,2023-05-04_17h16.15.873,ga_syllabified_check,2022.2.5,Win32,144.0714594,,,,,,,,,,,,,,./stim/p07_syllable_1_palufauro_hit.wav,p07,palufauro,hit,pa-lu-fau-ro,pa-lu-fau-ro,pa-lu-fa-u-ro, ,-0.34791889,-0.110458911,1,0,0,2.2154,text_option_1,,0,192,192,161,1
5f5aa7a073b8271a0ab0947c,63f3cfca20052e4ae7554ebf,6453cc0a001b050e56deb016,2023-05-04_17h16.15.873,ga_syllabified_check,2022.2.5,Win32,144.0714594,,,,,,,,,,,,,,./stim/p06_syllable_1_flauro_hit.wav,p06,flauro,hit,fla-u-ro,flau-ro,fla-u-ro, ,0.4226254,-0.111526147,1,0,0,0.9234,text_option_2,,0,193,193,107,1
5f5aa7a073b8271a0ab0947c,63f3cfca20052e4ae7554ebf,6453cc0a001b050e56deb016,2023-05-04_17h16.15.873,ga_syllabified_check,2022.2.5,Win32,144.0714594,,,,,,,,,,,,,,./stim/p07_syllable_1_nhiape_hit.wav,p07,ñiape,hit,nhia-pe,ñia-pe,ñi-a-pe, ,-0.368196371,-0.098719317,1,0,0,0.2678,text_option_1,,0,194,194,159,1
5f5aa7a073b8271a0ab0947c,63f3cfca20052e4ae7554ebf,6453cc0a001b050e56deb016,2023-05-04_17h16.15.873,ga_syllabified_check,2022.2.5,Win32,144.0714594,,,,,,,,,,,,,,./stim/p06_syllable_1_payielo_hit.wav,p06,payielo,hit,pa-yi-e-lo,pa-yie-lo,pa-yi-e-lo, ,0.382070438,-0.112593383,1,0,0,1.3819,text_option_2,,0,195,195,132,1
5f5aa7a073b8271a0ab0947c,63f3cfca20052e4ae7554ebf,6453cc0a001b050e56deb016,2023-05-04_17h16.15.873,ga_syllabified_check,2022.2.5,Win32,144.0714594,,,,,,,,,,,,,,./stim/p07_syllable_1_palutrauco_hit.wav,p07,palutrauco,hit,pa-lu-trau-co,pa-lu-trau-co,pa-lu-tra-u-co, ,-0.362860192,-0.084845251,1,0,0,1.0696,text_option_1,,0,196,196,165,1
5f5aa7a073b8271a0ab0947c,63f3cfca20052e4ae7554ebf,6453cc0a001b050e56deb016,2023-05-04_17h16.15.873,ga_syllabified_check,2022.2.5,Win32,144.0714594,,,,,,,,,,,,,,./stim/p03_syllable_1_falutraigo_hit.wav,p03,falutraigo,hit,fa-lu-trai-go,fa-lu-trai-go,fa-lu-tra-i-go, ,-0.336179296,-0.10832444,1,0,0,1.0695,text_option_1,,0,197,197,4,1
5f5aa7a073b8271a0ab0947c,63f3cfca20052e4ae7554ebf,6453cc0a001b050e56deb016,2023-05-04_17h16.15.873,ga_syllabified_check,2022.2.5,Win32,144.0714594,,,,,,,,,,,,,,./stim/p03_syllable_1_lakapuaisto_hit.wav,p03,lakapuaisto,hit,la-ka-puais-to,la-ka-puais-to,la-ka-pu-ais-to,la-ka-pua-is-to,-0.338313767,-0.099786553,1,0,0,1.2547,text_option_1,,0,198,198,17,1
5f5aa7a073b8271a0ab0947c,63f3cfca20052e4ae7554ebf,6453cc0a001b050e56deb016,2023-05-04_17h16.15.873,ga_syllabified_check,2022.2.5,Win32,144.0714594,,,,,,,,,,,,,,./stim/p06_syllable_1_lakaduaisto_hit.wav,p06,lakaduaisto,hit,la-ka-du-a-is,la-ka-duais-to,la-ka-du-ais-to,la-ka-dua-is-to,0.064034152,-0.105122732,1,0,0,2.5556,text_option_3,,0,199,199,111,1
5f5aa7a073b8271a0ab0947c,63f3cfca20052e4ae7554ebf,6453cc0a001b050e56deb016,2023-05-04_17h16.15.873,ga_syllabified_check,2022.2.5,Win32,144.0714594,,,,,,,,,,,,,,./stim/p08_syllable_1_lakakuaisto_hit.wav,p08,lakakuaisto,hit,la-ka-ku-ais-to,la-ka-kuais-to,la-ka-ku-ais-to,la-ka-kua-is-to,0.020277481,-0.100853789,1,0,0,2.4948,text_option_3,,0,200,200,185,1
5f5aa7a073b8271a0ab0947c,63f3cfca20052e4ae7554ebf,6453cc0a001b050e56deb016,2023-05-04_17h16.15.873,ga_syllabified_check,2022.2.5,Win32,144.0714594,,,,,,,,,,,,,,./stim/p07_syllable_1_paluguato_hit.wav,p07,paluguato,hit,pa-lu-gua-to,pa-lu-gua-to,pa-lu-gu-a-to, ,-0.359658485,-0.092315902,1,0,0,1.2429,text_option_1,,0,201,201,163,1
5f5aa7a073b8271a0ab0947c,63f3cfca20052e4ae7554ebf,6453cc0a001b050e56deb016,2023-05-04_17h16.15.873,ga_syllabified_check,2022.2.5,Win32,144.0714594,,,,,,,,,,,,,,./stim/p03_syllable_1_nhiape_hit.wav,p03,ñiape,hit,nhia-pe,ñia-pe,ñi-a-pe, ,-0.403415155,-0.105122732,1,0,0,0.2915,text_option_1,,0,202,202,23,1
5f5aa7a073b8271a0ab0947c,63f3cfca20052e4ae7554ebf,6453cc0a001b050e56deb016,2023-05-04_17h16.15.873,ga_syllabified_check,2022.2.5,Win32,144.0714594,,,,,,,,,,,,,,./stim/p06_syllable_1_lakatuaisto_hit.wav,p06,lakatuaisto,hit,la-ka-tu-a-is,la-ka-tuais-to,la-ka-tu-ais-to,la-ka-tua-is-to,0.429028815,-0.110458911,1,0,0,3.8474,text_option_2,,0,203,203,121,1
5f5aa7a073b8271a0ab0947c,63f3cfca20052e4ae7554ebf,6453cc0a001b050e56deb016,2023-05-04_17h16.15.873,ga_syllabified_check,2022.2.5,Win32,144.0714594,,,,,,,,,,,,,,,,,,,,,,,,,,,,,,,,,,
