participant,study,session,date,expName,psychopyVersion,OS,frameRate,mouse_practice.x,mouse_practice.y,mouse_practice.leftButton,mouse_practice.midButton,mouse_practice.rightButton,mouse_practice.time,mouse_practice.clicked_name,textbox_followup_practice.text,trials_practice.thisRepN,trials_practice.thisTrialN,trials_practice.thisN,trials_practice.thisIndex,trials_practice.ran,file_path,id,item,status,response,op1,op2,op3,mouse.x,mouse.y,mouse.leftButton,mouse.midButton,mouse.rightButton,mouse.time,mouse.clicked_name,textbox_followup.text,trials.thisRepN,trials.thisTrialN,trials.thisN,trials.thisIndex,trials.ran
5f622aea193f690eebfe422a,63f3cfca20052e4ae7554ebf,6453cbe322426d180ef9503e,2023-05-04_17h15.14.185,ga_syllabified_check,2022.2.5,Win32,60.0276127,,,,,,,,,,,,,,,,,,,,,,,,,,,,,,,,,,
5f622aea193f690eebfe422a,63f3cfca20052e4ae7554ebf,6453cbe322426d180ef9503e,2023-05-04_17h15.14.185,ga_syllabified_check,2022.2.5,Win32,60.0276127,-0.376851859,-0.119444459,1,0,0,2.4665,text_option_1_practice,,0,0,0,0,1,./stim/p03_syllable_1_liamo_hit.wav,p03,liamo,hit,lia-mo,lia-mo,li-a-mo, ,,,,,,,,,,,,,
5f622aea193f690eebfe422a,63f3cfca20052e4ae7554ebf,6453cbe322426d180ef9503e,2023-05-04_17h15.14.185,ga_syllabified_check,2022.2.5,Win32,60.0276127,-0.395370377,-0.108333376,1,0,0,2.716,text_option_1_practice,,0,1,1,1,1,./stim/p05_syllable_1_matio_hit.wav,p05,matio,hit,ma-tio,ma-tio,ma-ti-o, ,,,,,,,,,,,,,
5f622aea193f690eebfe422a,63f3cfca20052e4ae7554ebf,6453cbe322426d180ef9503e,2023-05-04_17h15.14.185,ga_syllabified_check,2022.2.5,Win32,60.0276127,0.449074074,-0.101851852,1,0,0,5.1681,text_option_2_practice,,0,2,2,2,1,./stim/p08_syllable_1_liamo_hit.wav,p08,liamo,hit,ja-mo,lia-mo,li-a-mo, ,,,,,,,,,,,,,
5f622aea193f690eebfe422a,63f3cfca20052e4ae7554ebf,6453cbe322426d180ef9503e,2023-05-04_17h15.14.185,ga_syllabified_check,2022.2.5,Win32,60.0276127,,,,,,,,,,,,,,,,,,,,,,,,,,,,,,,,,,
5f622aea193f690eebfe422a,63f3cfca20052e4ae7554ebf,6453cbe322426d180ef9503e,2023-05-04_17h15.14.185,ga_syllabified_check,2022.2.5,Win32,60.0276127,,,,,,,,,,,,,,./stim/p04_syllable_1_lakabuaisto_hit.wav,p04,lakabuaisto,hit,la-ka-buais-to,la-ka-buais-to,la-ka-bu-ais-to,la-ka-bua-is-to,-0.384259259,-0.094444487,1,0,0,4.6674,text_option_1,,0,0,0,41,1
5f622aea193f690eebfe422a,63f3cfca20052e4ae7554ebf,6453cbe322426d180ef9503e,2023-05-04_17h15.14.185,ga_syllabified_check,2022.2.5,Win32,60.0276127,,,,,,,,,,,,,,./stim/p08_syllable_1_lakagiaisto_hit.wav,p08,lakagiaisto,hit,la-ka-gi-jas-to,la-ka-giais-to,la-ka-gi-ais-to,la-ka-gia-is-to,0.444444444,-0.108333376,1,0,0,8.4995,text_option_2,,0,1,1,182,1
5f622aea193f690eebfe422a,63f3cfca20052e4ae7554ebf,6453cbe322426d180ef9503e,2023-05-04_17h15.14.185,ga_syllabified_check,2022.2.5,Win32,60.0276127,,,,,,,,,,,,,,./stim/p04_syllable_1_falutraigo_hit.wav,p04,falutraigo,hit,fa-lu-trai-go,fa-lu-trai-go,fa-lu-tra-i-go, ,-0.396296289,-0.10092594,1,0,0,2.9338,text_option_1,,0,2,2,38,1
5f622aea193f690eebfe422a,63f3cfca20052e4ae7554ebf,6453cbe322426d180ef9503e,2023-05-04_17h15.14.185,ga_syllabified_check,2022.2.5,Win32,60.0276127,,,,,,,,,,,,,,./stim/p05_syllable_1_falufaisto_hit.wav,p05,falufaisto,hit,fa-lu-fais-to,fa-lu-fais-to,fa-lu-fa-is-to, ,-0.380555541,-0.103703746,1,0,0,2.5177,text_option_1,,0,3,3,71,1
5f622aea193f690eebfe422a,63f3cfca20052e4ae7554ebf,6453cbe322426d180ef9503e,2023-05-04_17h15.14.185,ga_syllabified_check,2022.2.5,Win32,60.0276127,,,,,,,,,,,,,,./stim/p07_syllable_1_nhiape_hit.wav,p07,ñiape,hit,nhia-pe,ñia-pe,ñi-a-pe, ,-0.418518526,-0.114814829,1,0,0,3.1669,text_option_1,,0,4,4,159,1
5f622aea193f690eebfe422a,63f3cfca20052e4ae7554ebf,6453cbe322426d180ef9503e,2023-05-04_17h15.14.185,ga_syllabified_check,2022.2.5,Win32,60.0276127,,,,,,,,,,,,,,./stim/p06_syllable_1_palufauto_hit.wav,p06,palufauto,hit,pa-lu-fau-to,pa-lu-fau-to,pa-lu-fa-u-to, ,-0.373148141,-0.10092594,1,0,0,4.1332,text_option_1,,0,5,5,128,1
5f622aea193f690eebfe422a,63f3cfca20052e4ae7554ebf,6453cbe322426d180ef9503e,2023-05-04_17h15.14.185,ga_syllabified_check,2022.2.5,Win32,60.0276127,,,,,,,,,,,,,,./stim/p03_syllable_1_palufauto_hit.wav,p03,palufauto,hit,pa-lu-fau,pa-lu-fau-to,pa-lu-fa-u-to, ,-0.373148141,-0.10092594,1,0,0,3.3325,text_option_1,,0,6,6,26,1
5f622aea193f690eebfe422a,63f3cfca20052e4ae7554ebf,6453cbe322426d180ef9503e,2023-05-04_17h15.14.185,ga_syllabified_check,2022.2.5,Win32,60.0276127,,,,,,,,,,,,,,./stim/p04_syllable_1_lliape_hit.wav,p04,lliape,hit,lia-pe,llia-pe,lli-a-pe, ,-0.373148141,-0.10092594,1,0,0,1.5674,text_option_1,,0,7,7,54,1
5f622aea193f690eebfe422a,63f3cfca20052e4ae7554ebf,6453cbe322426d180ef9503e,2023-05-04_17h15.14.185,ga_syllabified_check,2022.2.5,Win32,60.0276127,,,,,,,,,,,,,,./stim/p04_syllable_1_palutrauco_hit.wav,p04,palutrauco,hit,pa-lu-trau-co,pa-lu-trau-co,pa-lu-tra-u-co, ,-0.383333312,-0.10092594,1,0,0,2.9495,text_option_1,,0,8,8,63,1
5f622aea193f690eebfe422a,63f3cfca20052e4ae7554ebf,6453cbe322426d180ef9503e,2023-05-04_17h15.14.185,ga_syllabified_check,2022.2.5,Win32,60.0276127,,,,,,,,,,,,,,./stim/p05_syllable_1_lakapuaisto_hit.wav,p05,lakapuaisto,hit,la-ka-pais-to,la-ka-puais-to,la-ka-pu-ais-to,la-ka-pua-is-to,0.021296325,-0.30740745,1,0,0,4.9164,text_option_other,la-ka-pais-to,0,9,9,85,1
5f622aea193f690eebfe422a,63f3cfca20052e4ae7554ebf,6453cbe322426d180ef9503e,2023-05-04_17h15.14.185,ga_syllabified_check,2022.2.5,Win32,60.0276127,,,,,,,,,,,,,,./stim/p06_syllable_1_pachialo_hit.wav,p06,pachialo,hit,pa-shi-a-lo,pa-chia-lo,pa-chi-a-lo, ,0.399074131,-0.101851852,1,0,0,2.8993,text_option_2,,0,10,10,126,1
5f622aea193f690eebfe422a,63f3cfca20052e4ae7554ebf,6453cbe322426d180ef9503e,2023-05-04_17h15.14.185,ga_syllabified_check,2022.2.5,Win32,60.0276127,,,,,,,,,,,,,,./stim/p03_syllable_1_pachialo_hit.wav,p03,pachialo,hit,pa-chia-lo,pa-chia-lo,pa-chi-a-lo, ,-0.37962963,-0.107407393,1,0,0,2.1,text_option_1,,0,11,11,24,1
5f622aea193f690eebfe422a,63f3cfca20052e4ae7554ebf,6453cbe322426d180ef9503e,2023-05-04_17h15.14.185,ga_syllabified_check,2022.2.5,Win32,60.0276127,,,,,,,,,,,,,,./stim/p04_syllable_1_ruyiola_hit.wav,p04,ruyiola,hit,ru-yio-la,ru-yio-la,ru-yi-o-la, ,-0.37962963,-0.107407393,1,0,0,2.3343,text_option_1,,0,12,12,66,1
5f622aea193f690eebfe422a,63f3cfca20052e4ae7554ebf,6453cbe322426d180ef9503e,2023-05-04_17h15.14.185,ga_syllabified_check,2022.2.5,Win32,60.0276127,,,,,,,,,,,,,,./stim/p07_syllable_1_lakagiaisto_hit.wav,p07,lakagiaisto,hit,la-ka-gais-to,la-ka-giais-to,la-ka-gi-ais-to,la-ka-gia-is-to,0.05277782,-0.305555556,1,0,0,8.383,text_option_other,la-ka-gais-to,0,13,13,148,1
5f622aea193f690eebfe422a,63f3cfca20052e4ae7554ebf,6453cbe322426d180ef9503e,2023-05-04_17h15.14.185,ga_syllabified_check,2022.2.5,Win32,60.0276127,,,,,,,,,,,,,,./stim/p08_syllable_1_payielo_hit.wav,p08,payielo,hit,pa-yie-lo,pa-yie-lo,pa-yi-e-lo, ,-0.41111109,-0.103703746,1,0,0,2.7997,text_option_1,,0,14,14,200,1
5f622aea193f690eebfe422a,63f3cfca20052e4ae7554ebf,6453cbe322426d180ef9503e,2023-05-04_17h15.14.185,ga_syllabified_check,2022.2.5,Win32,60.0276127,,,,,,,,,,,,,,./stim/p06_syllable_1_lakakiaisto_hit.wav,p06,lakakiaisto,hit,la-ka-kia-is-to,la-ka-kiais-to,la-ka-ki-ais-to,la-ka-kia-is-to,0.034259302,-0.109259288,1,0,0,8.4833,text_option_3,,0,15,15,116,1
5f622aea193f690eebfe422a,63f3cfca20052e4ae7554ebf,6453cbe322426d180ef9503e,2023-05-04_17h15.14.185,ga_syllabified_check,2022.2.5,Win32,60.0276127,,,,,,,,,,,,,,./stim/p03_syllable_1_palumaisto_hit.wav,p03,palumaisto,hit,pa-lu-mais-to,pa-lu-mais-to,pa-lu-ma-is-to, ,-0.380555541,-0.101851852,1,0,0,2.1328,text_option_1,,0,16,16,28,1
5f622aea193f690eebfe422a,63f3cfca20052e4ae7554ebf,6453cbe322426d180ef9503e,2023-05-04_17h15.14.185,ga_syllabified_check,2022.2.5,Win32,60.0276127,,,,,,,,,,,,,,./stim/p08_syllable_1_tuliafo_hit.wav,p08,tuliafo,hit,tu-li-a-fo,tu-lia-fo,tu-li-a-fo, ,0.425925926,-0.109259288,1,0,0,3.2498,text_option_2,,0,17,17,203,1
5f622aea193f690eebfe422a,63f3cfca20052e4ae7554ebf,6453cbe322426d180ef9503e,2023-05-04_17h15.14.185,ga_syllabified_check,2022.2.5,Win32,60.0276127,,,,,,,,,,,,,,./stim/p03_syllable_1_lakatiaisto_hit.wav,p03,lakatiaisto,hit,la-ka-tiais-to,la-ka-tiais-to,la-ka-ti-ais-to,la-ka-tia-is-to,-0.375925912,-0.098148134,1,0,0,3.9997,text_option_1,,0,18,18,18,1
5f622aea193f690eebfe422a,63f3cfca20052e4ae7554ebf,6453cbe322426d180ef9503e,2023-05-04_17h15.14.185,ga_syllabified_check,2022.2.5,Win32,60.0276127,,,,,,,,,,,,,,./stim/p06_syllable_1_lakatuaisto_hit.wav,p06,lakatuaisto,hit,la-ka-tu-a-is,la-ka-tuais-to,la-ka-tu-ais-to,la-ka-tua-is-to,0.053703732,-0.299074102,1,0,0,11.1996,text_option_other,la-ka-tu-a-is-to,0,19,19,121,1
5f622aea193f690eebfe422a,63f3cfca20052e4ae7554ebf,6453cbe322426d180ef9503e,2023-05-04_17h15.14.185,ga_syllabified_check,2022.2.5,Win32,60.0276127,,,,,,,,,,,,,,./stim/p08_syllable_1_lakadiaisto_hit.wav,p08,lakadiaisto,hit,la-ka-di-jas-to,la-ka-diais-to,la-ka-di-ais-to,la-ka-dia-is-to,-0.000925912,-0.299074102,1,0,0,10.0504,text_option_other,la-ka-di-as-to,0,20,20,178,1
5f622aea193f690eebfe422a,63f3cfca20052e4ae7554ebf,6453cbe322426d180ef9503e,2023-05-04_17h15.14.185,ga_syllabified_check,2022.2.5,Win32,60.0276127,,,,,,,,,,,,,,./stim/p07_syllable_1_lakapuaisto_hit.wav,p07,lakapuaisto,hit,la-ka-puais-to,la-ka-puais-to,la-ka-pu-ais-to,la-ka-pua-is-to,-0.39166666,-0.109259288,1,0,0,3.4173,text_option_1,,0,21,21,153,1
5f622aea193f690eebfe422a,63f3cfca20052e4ae7554ebf,6453cbe322426d180ef9503e,2023-05-04_17h15.14.185,ga_syllabified_check,2022.2.5,Win32,60.0276127,,,,,,,,,,,,,,./stim/p08_syllable_1_falutraigo_hit.wav,p08,falutraigo,hit,fa-lu-trai-go,fa-lu-trai-go,fa-lu-tra-i-go, ,-0.41111109,-0.094444487,1,0,0,2.8666,text_option_1,,0,22,22,174,1
5f622aea193f690eebfe422a,63f3cfca20052e4ae7554ebf,6453cbe322426d180ef9503e,2023-05-04_17h15.14.185,ga_syllabified_check,2022.2.5,Win32,60.0276127,,,,,,,,,,,,,,./stim/p05_syllable_1_paluguato_hit.wav,p05,paluguato,hit,pa-lu-gau-to,pa-lu-gua-to,pa-lu-gu-a-to, ,0.035185213,-0.304629644,1,0,0,5.7996,text_option_other,pa-lu-cau-to,0,23,23,95,1
5f622aea193f690eebfe422a,63f3cfca20052e4ae7554ebf,6453cbe322426d180ef9503e,2023-05-04_17h15.14.185,ga_syllabified_check,2022.2.5,Win32,60.0276127,,,,,,,,,,,,,,./stim/p07_syllable_1_lakapiaisto_hit.wav,p07,lakapiaisto,hit,la-ka-pia-sto,la-ka-piais-to,la-ka-pi-ais-to,la-ka-pia-is-to,0.050000014,-0.112963005,1,0,0,9.4503,text_option_3,,0,24,24,152,1
5f622aea193f690eebfe422a,63f3cfca20052e4ae7554ebf,6453cbe322426d180ef9503e,2023-05-04_17h15.14.185,ga_syllabified_check,2022.2.5,Win32,60.0276127,,,,,,,,,,,,,,./stim/p07_syllable_1_lakadiaisto_hit.wav,p07,lakadiaisto,hit,la-ka-dia-is-to,la-ka-diais-to,la-ka-di-ais-to,la-ka-dia-is-to,0.013888889,-0.106481481,1,0,0,5.2,text_option_3,,0,25,25,144,1
5f622aea193f690eebfe422a,63f3cfca20052e4ae7554ebf,6453cbe322426d180ef9503e,2023-05-04_17h15.14.185,ga_syllabified_check,2022.2.5,Win32,60.0276127,,,,,,,,,,,,,,./stim/p08_syllable_1_lliape_hit.wav,p08,lliape,hit,li-a-pe,llia-pe,lli-a-pe, ,0.430555556,-0.112963005,1,0,0,3.3837,text_option_2,,0,26,26,190,1
5f622aea193f690eebfe422a,63f3cfca20052e4ae7554ebf,6453cbe322426d180ef9503e,2023-05-04_17h15.14.185,ga_syllabified_check,2022.2.5,Win32,60.0276127,,,,,,,,,,,,,,./stim/p08_syllable_1_mebochiana_hit.wav,p08,mebochiana,hit,me-bo-chi-a-na,me-bo-chia-na,me-bo-chi-a-na, ,0.443518603,-0.103703746,1,0,0,2.8496,text_option_2,,0,27,27,192,1
5f622aea193f690eebfe422a,63f3cfca20052e4ae7554ebf,6453cbe322426d180ef9503e,2023-05-04_17h15.14.185,ga_syllabified_check,2022.2.5,Win32,60.0276127,,,,,,,,,,,,,,./stim/p04_syllable_1_costonhialo_hit.wav,p04,costoñialo,hit,cos-to-nhia-lo,cos-to-ñia-lo,cos-to-ñi-a-lo, ,-0.359259252,-0.108333376,1,0,0,3.3992,text_option_1,,0,28,28,35,1
5f622aea193f690eebfe422a,63f3cfca20052e4ae7554ebf,6453cbe322426d180ef9503e,2023-05-04_17h15.14.185,ga_syllabified_check,2022.2.5,Win32,60.0276127,,,,,,,,,,,,,,./stim/p03_syllable_1_lakaduaisto_hit.wav,p03,lakaduaisto,hit,la-ka-duais-to,la-ka-duais-to,la-ka-du-ais-to,la-ka-dua-is-to,0.030555584,-0.299074102,1,0,0,6.4665,text_option_other,na-ka-duais-to,0,29,29,9,1
5f622aea193f690eebfe422a,63f3cfca20052e4ae7554ebf,6453cbe322426d180ef9503e,2023-05-04_17h15.14.185,ga_syllabified_check,2022.2.5,Win32,60.0276127,,,,,,,,,,,,,,./stim/p05_syllable_1_payielo_hit.wav,p05,payielo,hit,pai-yu-we-lo,pa-yie-lo,pa-yi-e-lo, ,0.031481496,-0.305555556,1,0,0,3.2833,text_option_other,pa-yue-lo,0,30,30,98,1
5f622aea193f690eebfe422a,63f3cfca20052e4ae7554ebf,6453cbe322426d180ef9503e,2023-05-04_17h15.14.185,ga_syllabified_check,2022.2.5,Win32,60.0276127,,,,,,,,,,,,,,./stim/p07_syllable_1_falufaisto_hit.wav,p07,falufaisto,hit,fa-lu-fais-to,fa-lu-fais-to,fa-lu-fa-is-to, ,-0.383333312,-0.102777764,1,0,0,2.7003,text_option_1,,0,31,31,139,1
5f622aea193f690eebfe422a,63f3cfca20052e4ae7554ebf,6453cbe322426d180ef9503e,2023-05-04_17h15.14.185,ga_syllabified_check,2022.2.5,Win32,60.0276127,,,,,,,,,,,,,,./stim/p06_syllable_1_palufauro_hit.wav,p06,palufauro,hit,pa-lu-fau-ro,pa-lu-fau-ro,pa-lu-fa-u-ro, ,0.063888903,-0.304629644,1,0,0,6.4002,text_option_other,pa-lu-fau-u-ro,0,32,32,127,1
5f622aea193f690eebfe422a,63f3cfca20052e4ae7554ebf,6453cbe322426d180ef9503e,2023-05-04_17h15.14.185,ga_syllabified_check,2022.2.5,Win32,60.0276127,,,,,,,,,,,,,,./stim/p04_syllable_1_chiaba_hit.wav,p04,chiaba,hit,chia-ba,chia-ba,chi-a-ba, ,-0.357407393,-0.10092594,1,0,0,1.1495,text_option_1,,0,33,33,34,1
5f622aea193f690eebfe422a,63f3cfca20052e4ae7554ebf,6453cbe322426d180ef9503e,2023-05-04_17h15.14.185,ga_syllabified_check,2022.2.5,Win32,60.0276127,,,,,,,,,,,,,,./stim/p07_syllable_1_lakatuaisto_hit.wav,p07,lakatuaisto,hit,la-ka-tuais-to,la-ka-tuais-to,la-ka-tu-ais-to,la-ka-tua-is-to,-0.40648146,-0.107407393,1,0,0,3.2331,text_option_1,,0,34,34,155,1
5f622aea193f690eebfe422a,63f3cfca20052e4ae7554ebf,6453cbe322426d180ef9503e,2023-05-04_17h15.14.185,ga_syllabified_check,2022.2.5,Win32,60.0276127,,,,,,,,,,,,,,./stim/p04_syllable_1_tuliafo_hit.wav,p04,tuliafo,hit,tu-lia-fo,tu-lia-fo,tu-li-a-fo, ,-0.402777778,-0.098148134,1,0,0,1.5509,text_option_1,,0,35,35,67,1
5f622aea193f690eebfe422a,63f3cfca20052e4ae7554ebf,6453cbe322426d180ef9503e,2023-05-04_17h15.14.185,ga_syllabified_check,2022.2.5,Win32,60.0276127,,,,,,,,,,,,,,./stim/p03_syllable_1_mebochiana_hit.wav,p03,mebochiana,hit,me-bo-chia-na,me-bo-chia-na,me-bo-chi-a-na, ,-0.342592593,-0.10555557,1,0,0,2.1839,text_option_1,,0,36,36,22,1
5f622aea193f690eebfe422a,63f3cfca20052e4ae7554ebf,6453cbe322426d180ef9503e,2023-05-04_17h15.14.185,ga_syllabified_check,2022.2.5,Win32,60.0276127,,,,,,,,,,,,,,./stim/p03_syllable_1_lakakiaisto_hit.wav,p03,lakakiaisto,hit,la-ka-kiais-to,la-ka-kiais-to,la-ka-ki-ais-to,la-ka-kia-is-to,-0.371296282,-0.099074116,1,0,0,3.1824,text_option_1,,0,37,37,14,1
5f622aea193f690eebfe422a,63f3cfca20052e4ae7554ebf,6453cbe322426d180ef9503e,2023-05-04_17h15.14.185,ga_syllabified_check,2022.2.5,Win32,60.0276127,,,,,,,,,,,,,,./stim/p05_syllable_1_costonhialo_hit.wav,p05,costoñialo,hit,cos-to-nhia-lo,cos-to-ñia-lo,cos-to-ñi-a-lo, ,-0.35833334,-0.104629658,1,0,0,3.2825,text_option_1,,0,38,38,69,1
5f622aea193f690eebfe422a,63f3cfca20052e4ae7554ebf,6453cbe322426d180ef9503e,2023-05-04_17h15.14.185,ga_syllabified_check,2022.2.5,Win32,60.0276127,,,,,,,,,,,,,,./stim/p08_syllable_1_lakatuaisto_hit.wav,p08,lakatuaisto,hit,la-ka-tu-i-jis,la-ka-tuais-to,la-ka-tu-ais-to,la-ka-tua-is-to,0.037962949,-0.310185185,1,0,0,15.7833,text_option_other,la-ka-tui-is-to,0,39,39,189,1
5f622aea193f690eebfe422a,63f3cfca20052e4ae7554ebf,6453cbe322426d180ef9503e,2023-05-04_17h15.14.185,ga_syllabified_check,2022.2.5,Win32,60.0276127,,,,,,,,,,,,,,./stim/p03_syllable_1_rausto_hit.wav,p03,rausto,hit,raus-to,raus-to,ra-us-to, ,-0.375,-0.108333376,1,0,0,1.101,text_option_1,,0,40,40,31,1
5f622aea193f690eebfe422a,63f3cfca20052e4ae7554ebf,6453cbe322426d180ef9503e,2023-05-04_17h15.14.185,ga_syllabified_check,2022.2.5,Win32,60.0276127,,,,,,,,,,,,,,./stim/p06_syllable_1_flauro_hit.wav,p06,flauro,hit,fla-u-ro,flau-ro,fla-u-ro, ,0.431481538,-0.107407393,1,0,0,2.4161,text_option_2,,0,41,41,107,1
5f622aea193f690eebfe422a,63f3cfca20052e4ae7554ebf,6453cbe322426d180ef9503e,2023-05-04_17h15.14.185,ga_syllabified_check,2022.2.5,Win32,60.0276127,,,,,,,,,,,,,,./stim/p03_syllable_1_lakabuaisto_hit.wav,p03,lakabuaisto,hit,la-ka-buais-to,la-ka-buais-to,la-ka-bu-ais-to,la-ka-bua-is-to,-0.318518497,-0.106481481,1,0,0,3.1498,text_option_1,,0,42,42,7,1
5f622aea193f690eebfe422a,63f3cfca20052e4ae7554ebf,6453cbe322426d180ef9503e,2023-05-04_17h15.14.185,ga_syllabified_check,2022.2.5,Win32,60.0276127,,,,,,,,,,,,,,./stim/p08_syllable_1_ruyiola_hit.wav,p08,ruyiola,hit,ru-yio-la,ru-yio-la,ru-yi-o-la, ,-0.392592571,-0.109259288,1,0,0,1.5673,text_option_1,,0,43,43,202,1
5f622aea193f690eebfe422a,63f3cfca20052e4ae7554ebf,6453cbe322426d180ef9503e,2023-05-04_17h15.14.185,ga_syllabified_check,2022.2.5,Win32,60.0276127,,,,,,,,,,,,,,./stim/p04_syllable_1_lakakuaisto_hit.wav,p04,lakakuaisto,hit,la-ka-kuais-to,la-ka-kuais-to,la-ka-ku-ais-to,la-ka-kua-is-to,-0.375,-0.10092594,1,0,0,2.4838,text_option_1,,0,44,44,49,1
5f622aea193f690eebfe422a,63f3cfca20052e4ae7554ebf,6453cbe322426d180ef9503e,2023-05-04_17h15.14.185,ga_syllabified_check,2022.2.5,Win32,60.0276127,,,,,,,,,,,,,,./stim/p07_syllable_1_lliape_hit.wav,p07,lliape,hit,lliai-pe,llia-pe,lli-a-pe, ,0.033333319,-0.289814843,1,0,0,4.9663,text_option_other,lliai-pe,0,45,45,156,1
5f622aea193f690eebfe422a,63f3cfca20052e4ae7554ebf,6453cbe322426d180ef9503e,2023-05-04_17h15.14.185,ga_syllabified_check,2022.2.5,Win32,60.0276127,,,,,,,,,,,,,,./stim/p08_syllable_1_lakabiaisto_hit.wav,p08,lakabiaisto,hit,la-ka-bi-as-to,la-ka-biais-to,la-ka-bi-ais-to,la-ka-bia-is-to,0.040740755,-0.30277782,1,0,0,8.2164,text_option_other,la-ka-bi-as-to,0,46,46,176,1
5f622aea193f690eebfe422a,63f3cfca20052e4ae7554ebf,6453cbe322426d180ef9503e,2023-05-04_17h15.14.185,ga_syllabified_check,2022.2.5,Win32,60.0276127,,,,,,,,,,,,,,./stim/p07_syllable_1_faluduako_hit.wav,p07,faluduako,hit,fa-lu-dua-ko,fa-lu-dua-ko,fa-lu-du-a-ko, ,-0.36296297,-0.108333376,1,0,0,2.6664,text_option_1,,0,47,47,138,1
5f622aea193f690eebfe422a,63f3cfca20052e4ae7554ebf,6453cbe322426d180ef9503e,2023-05-04_17h15.14.185,ga_syllabified_check,2022.2.5,Win32,60.0276127,,,,,,,,,,,,,,./stim/p08_syllable_1_rausto_hit.wav,p08,rausto,hit,raus-to,raus-to,ra-us-to, ,-0.423148155,-0.108333376,1,0,0,2.0666,text_option_1,,0,48,48,201,1
5f622aea193f690eebfe422a,63f3cfca20052e4ae7554ebf,6453cbe322426d180ef9503e,2023-05-04_17h15.14.185,ga_syllabified_check,2022.2.5,Win32,60.0276127,,,,,,,,,,,,,,./stim/p07_syllable_1_lakaduaisto_hit.wav,p07,lakaduaisto,hit,la-ka-duais-to,la-ka-duais-to,la-ka-du-ais-to,la-ka-dua-is-to,-0.374074053,-0.094444487,1,0,0,2.4161,text_option_1,,0,49,49,145,1
5f622aea193f690eebfe422a,63f3cfca20052e4ae7554ebf,6453cbe322426d180ef9503e,2023-05-04_17h15.14.185,ga_syllabified_check,2022.2.5,Win32,60.0276127,,,,,,,,,,,,,,./stim/p04_syllable_1_lakafuaisto_hit.wav,p04,lakafuaisto,hit,la-ka-fuais-to,la-ka-fuais-to,la-ka-fu-ais-to,la-ka-fua-is-to,-0.364814794,-0.102777764,1,0,0,1.8166,text_option_1,,0,50,50,45,1
5f622aea193f690eebfe422a,63f3cfca20052e4ae7554ebf,6453cbe322426d180ef9503e,2023-05-04_17h15.14.185,ga_syllabified_check,2022.2.5,Win32,60.0276127,,,,,,,,,,,,,,./stim/p05_syllable_1_pachialo_hit.wav,p05,pachialo,hit,pan-chia-lo,pa-chia-lo,pa-chi-a-lo, ,0.436111168,-0.112963005,1,0,0,5.5166,text_option_2,,0,51,51,92,1
5f622aea193f690eebfe422a,63f3cfca20052e4ae7554ebf,6453cbe322426d180ef9503e,2023-05-04_17h15.14.185,ga_syllabified_check,2022.2.5,Win32,60.0276127,,,,,,,,,,,,,,./stim/p03_syllable_1_lakagiaisto_hit.wav,p03,lakagiaisto,hit,la-ka-giais-to,la-ka-giais-to,la-ka-gi-ais-to,la-ka-gia-is-to,-0.387962942,-0.101851852,1,0,0,4.5502,text_option_1,,0,52,52,12,1
5f622aea193f690eebfe422a,63f3cfca20052e4ae7554ebf,6453cbe322426d180ef9503e,2023-05-04_17h15.14.185,ga_syllabified_check,2022.2.5,Win32,60.0276127,,,,,,,,,,,,,,./stim/p04_syllable_1_faluduako_hit.wav,p04,faluduako,hit,fa-lu-dua-ko,fa-lu-dua-ko,fa-lu-du-a-ko, ,-0.40648146,-0.10555557,1,0,0,2.4825,text_option_1,,0,53,53,36,1
5f622aea193f690eebfe422a,63f3cfca20052e4ae7554ebf,6453cbe322426d180ef9503e,2023-05-04_17h15.14.185,ga_syllabified_check,2022.2.5,Win32,60.0276127,,,,,,,,,,,,,,./stim/p04_syllable_1_lakaduaisto_hit.wav,p04,lakaduaisto,hit,la-ka-duais-to,la-ka-duais-to,la-ka-du-ais-to,la-ka-dua-is-to,-0.395370377,-0.101851852,1,0,0,2.3829,text_option_1,,0,54,54,43,1
5f622aea193f690eebfe422a,63f3cfca20052e4ae7554ebf,6453cbe322426d180ef9503e,2023-05-04_17h15.14.185,ga_syllabified_check,2022.2.5,Win32,60.0276127,,,,,,,,,,,,,,./stim/p06_syllable_1_nhiape_hit.wav,p06,ñiape,hit,nhi-a-pe,ñia-pe,ñi-a-pe, ,0.446296268,-0.103703746,1,0,0,1.7833,text_option_2,,0,55,55,125,1
5f622aea193f690eebfe422a,63f3cfca20052e4ae7554ebf,6453cbe322426d180ef9503e,2023-05-04_17h15.14.185,ga_syllabified_check,2022.2.5,Win32,60.0276127,,,,,,,,,,,,,,./stim/p07_syllable_1_lakafuaisto_hit.wav,p07,lakafuaisto,hit,la-ka-fuais-to,la-ka-fuais-to,la-ka-fu-ais-to,la-ka-fua-is-to,-0.348148134,-0.101851852,1,0,0,4.1499,text_option_1,,0,56,56,147,1
5f622aea193f690eebfe422a,63f3cfca20052e4ae7554ebf,6453cbe322426d180ef9503e,2023-05-04_17h15.14.185,ga_syllabified_check,2022.2.5,Win32,60.0276127,,,,,,,,,,,,,,./stim/p03_syllable_1_paluguato_hit.wav,p03,paluguato,hit,pa-lu-gua,pa-lu-gua-to,pa-lu-gu-a-to, ,-0.363888882,-0.10555557,1,0,0,2.1334,text_option_1,,0,57,57,27,1
5f622aea193f690eebfe422a,63f3cfca20052e4ae7554ebf,6453cbe322426d180ef9503e,2023-05-04_17h15.14.185,ga_syllabified_check,2022.2.5,Win32,60.0276127,,,,,,,,,,,,,,./stim/p06_syllable_1_faluduako_hit.wav,p06,faluduako,hit,fa-lu-dua-ko,fa-lu-dua-ko,fa-lu-du-a-ko, ,-0.352777764,-0.101851852,1,0,0,4.6822,text_option_1,,0,58,58,104,1
5f622aea193f690eebfe422a,63f3cfca20052e4ae7554ebf,6453cbe322426d180ef9503e,2023-05-04_17h15.14.185,ga_syllabified_check,2022.2.5,Win32,60.0276127,,,,,,,,,,,,,,./stim/p04_syllable_1_palufauto_hit.wav,p04,palufauto,hit,pa-lu-fau-to,pa-lu-fau-to,pa-lu-fa-u-to, ,-0.357407393,-0.097222222,1,0,0,1.3995,text_option_1,,0,59,59,60,1
5f622aea193f690eebfe422a,63f3cfca20052e4ae7554ebf,6453cbe322426d180ef9503e,2023-05-04_17h15.14.185,ga_syllabified_check,2022.2.5,Win32,60.0276127,,,,,,,,,,,,,,./stim/p03_syllable_1_lakatuaisto_hit.wav,p03,lakatuaisto,hit,la-ka-tuais-to,la-ka-tuais-to,la-ka-tu-ais-to,la-ka-tua-is-to,-0.39444443,-0.103703746,1,0,0,2.7335,text_option_1,,0,60,60,19,1
5f622aea193f690eebfe422a,63f3cfca20052e4ae7554ebf,6453cbe322426d180ef9503e,2023-05-04_17h15.14.185,ga_syllabified_check,2022.2.5,Win32,60.0276127,,,,,,,,,,,,,,./stim/p03_syllable_1_flauro_hit.wav,p03,flauro,hit,flau-ro,flau-ro,fla-u-ro, ,-0.416666667,-0.104629658,1,0,0,1.2663,text_option_1,,0,61,61,5,1
5f622aea193f690eebfe422a,63f3cfca20052e4ae7554ebf,6453cbe322426d180ef9503e,2023-05-04_17h15.14.185,ga_syllabified_check,2022.2.5,Win32,60.0276127,,,,,,,,,,,,,,./stim/p03_syllable_1_costonhialo_hit.wav,p03,costoñialo,hit,cos-to-nhia-lo,cos-to-ñia-lo,cos-to-ñi-a-lo, ,-0.387962942,-0.109259288,1,0,0,1.8165,text_option_1,,0,62,62,1,1
5f622aea193f690eebfe422a,63f3cfca20052e4ae7554ebf,6453cbe322426d180ef9503e,2023-05-04_17h15.14.185,ga_syllabified_check,2022.2.5,Win32,60.0276127,,,,,,,,,,,,,,./stim/p06_syllable_1_lakatiaisto_hit.wav,p06,lakatiaisto,hit,la-ka-pia-is-to,la-ka-tiais-to,la-ka-ti-ais-to,la-ka-tia-is-to,0.090740769,-0.110185199,1,0,0,4.4175,text_option_3,,0,63,63,120,1
5f622aea193f690eebfe422a,63f3cfca20052e4ae7554ebf,6453cbe322426d180ef9503e,2023-05-04_17h15.14.185,ga_syllabified_check,2022.2.5,Win32,60.0276127,,,,,,,,,,,,,,./stim/p04_syllable_1_manhiala_hit.wav,p04,mañiala,hit,ma-nhia-la,ma-ñia-la,ma-ñi-a-la, ,-0.327777757,-0.10092594,1,0,0,1.518,text_option_1,,0,64,64,55,1
5f622aea193f690eebfe422a,63f3cfca20052e4ae7554ebf,6453cbe322426d180ef9503e,2023-05-04_17h15.14.185,ga_syllabified_check,2022.2.5,Win32,60.0276127,,,,,,,,,,,,,,./stim/p03_syllable_1_lakapuaisto_hit.wav,p03,lakapuaisto,hit,la-ka-puais-to,la-ka-puais-to,la-ka-pu-ais-to,la-ka-pua-is-to,-0.392592571,-0.098148134,1,0,0,2.5657,text_option_1,,0,65,65,17,1
5f622aea193f690eebfe422a,63f3cfca20052e4ae7554ebf,6453cbe322426d180ef9503e,2023-05-04_17h15.14.185,ga_syllabified_check,2022.2.5,Win32,60.0276127,,,,,,,,,,,,,,./stim/p07_syllable_1_lakakiaisto_hit.wav,p07,lakakiaisto,hit,la-ka-kais-to,la-ka-kiais-to,la-ka-ki-ais-to,la-ka-kia-is-to,0.034259302,-0.290740755,1,0,0,5.2494,text_option_other,la-ka-kais-to,0,66,66,150,1
5f622aea193f690eebfe422a,63f3cfca20052e4ae7554ebf,6453cbe322426d180ef9503e,2023-05-04_17h15.14.185,ga_syllabified_check,2022.2.5,Win32,60.0276127,,,,,,,,,,,,,,./stim/p03_syllable_1_falutraigo_hit.wav,p03,falutraigo,hit,fa-lu-trai-go,fa-lu-trai-go,fa-lu-tra-i-go, ,-0.375925912,-0.112037023,1,0,0,1.5834,text_option_1,,0,67,67,4,1
5f622aea193f690eebfe422a,63f3cfca20052e4ae7554ebf,6453cbe322426d180ef9503e,2023-05-04_17h15.14.185,ga_syllabified_check,2022.2.5,Win32,60.0276127,,,,,,,,,,,,,,./stim/p06_syllable_1_costonhialo_hit.wav,p06,costoñialo,hit,cos-to-nhia-lo,cos-to-ñia-lo,cos-to-ñi-a-lo, ,-0.359259252,-0.10092594,1,0,0,2.918,text_option_1,,0,68,68,103,1
5f622aea193f690eebfe422a,63f3cfca20052e4ae7554ebf,6453cbe322426d180ef9503e,2023-05-04_17h15.14.185,ga_syllabified_check,2022.2.5,Win32,60.0276127,,,,,,,,,,,,,,./stim/p08_syllable_1_faluduako_hit.wav,p08,faluduako,hit,fa-lu-duai-ko,fa-lu-dua-ko,fa-lu-du-a-ko, ,0.014814801,-0.300925926,1,0,0,3.7999,text_option_other,fa-lu-duai-ko,0,69,69,172,1
5f622aea193f690eebfe422a,63f3cfca20052e4ae7554ebf,6453cbe322426d180ef9503e,2023-05-04_17h15.14.185,ga_syllabified_check,2022.2.5,Win32,60.0276127,,,,,,,,,,,,,,./stim/p07_syllable_1_palumaisto_hit.wav,p07,palumaisto,hit,pa-lu-mais-to,pa-lu-mais-to,pa-lu-ma-is-to, ,-0.375925912,-0.089814822,1,0,0,3.1665,text_option_1,,0,70,70,164,1
5f622aea193f690eebfe422a,63f3cfca20052e4ae7554ebf,6453cbe322426d180ef9503e,2023-05-04_17h15.14.185,ga_syllabified_check,2022.2.5,Win32,60.0276127,,,,,,,,,,,,,,./stim/p07_syllable_1_lakaguaisto_hit.wav,p07,lakaguaisto,hit,la-ka-guais-to,la-ka-guais-to,la-ka-gu-ais-to,la-ka-gua-is-to,-0.36296297,-0.098148134,1,0,0,2.3164,text_option_1,,0,71,71,149,1
5f622aea193f690eebfe422a,63f3cfca20052e4ae7554ebf,6453cbe322426d180ef9503e,2023-05-04_17h15.14.185,ga_syllabified_check,2022.2.5,Win32,60.0276127,,,,,,,,,,,,,,./stim/p05_syllable_1_lakaduaisto_hit.wav,p05,lakaduaisto,hit,la-ka-dais-to,la-ka-duais-to,la-ka-du-ais-to,la-ka-dua-is-to,0.054629644,-0.308333362,1,0,0,4.7171,text_option_other,la-ka-dais-to,0,72,72,77,1
5f622aea193f690eebfe422a,63f3cfca20052e4ae7554ebf,6453cbe322426d180ef9503e,2023-05-04_17h15.14.185,ga_syllabified_check,2022.2.5,Win32,60.0276127,,,,,,,,,,,,,,./stim/p04_syllable_1_payielo_hit.wav,p04,payielo,hit,pa-yie-lo,pa-yie-lo,pa-yi-e-lo, ,-0.390740748,-0.099074116,1,0,0,1.3669,text_option_1,,0,73,73,64,1
5f622aea193f690eebfe422a,63f3cfca20052e4ae7554ebf,6453cbe322426d180ef9503e,2023-05-04_17h15.14.185,ga_syllabified_check,2022.2.5,Win32,60.0276127,,,,,,,,,,,,,,./stim/p04_syllable_1_rausto_hit.wav,p04,rausto,hit,raus-to,raus-to,ra-us-to, ,-0.390740748,-0.099074116,1,0,0,0.317,text_option_1,,0,74,74,65,1
5f622aea193f690eebfe422a,63f3cfca20052e4ae7554ebf,6453cbe322426d180ef9503e,2023-05-04_17h15.14.185,ga_syllabified_check,2022.2.5,Win32,60.0276127,,,,,,,,,,,,,,./stim/p03_syllable_1_palufauro_hit.wav,p03,palufauro,hit,pa-lu-fau-ro,pa-lu-fau-ro,pa-lu-fa-u-ro, ,-0.36296297,-0.104629658,1,0,0,2.2004,text_option_1,,0,75,75,25,1
5f622aea193f690eebfe422a,63f3cfca20052e4ae7554ebf,6453cbe322426d180ef9503e,2023-05-04_17h15.14.185,ga_syllabified_check,2022.2.5,Win32,60.0276127,,,,,,,,,,,,,,./stim/p07_syllable_1_mebochiana_hit.wav,p07,mebochiana,hit,me-bo-chia-na,me-bo-chia-na,me-bo-chi-a-na, ,-0.355555534,-0.094444487,1,0,0,2.4167,text_option_1,,0,76,76,158,1
5f622aea193f690eebfe422a,63f3cfca20052e4ae7554ebf,6453cbe322426d180ef9503e,2023-05-04_17h15.14.185,ga_syllabified_check,2022.2.5,Win32,60.0276127,,,,,,,,,,,,,,./stim/p08_syllable_1_lakaguaisto_hit.wav,p08,lakaguaisto,hit,la-ka-gu-ais-to,la-ka-guais-to,la-ka-gu-ais-to,la-ka-gua-is-to,0.462037122,-0.101851852,1,0,0,6.5496,text_option_2,,0,77,77,183,1
5f622aea193f690eebfe422a,63f3cfca20052e4ae7554ebf,6453cbe322426d180ef9503e,2023-05-04_17h15.14.185,ga_syllabified_check,2022.2.5,Win32,60.0276127,,,,,,,,,,,,,,./stim/p07_syllable_1_lakabuaisto_hit.wav,p07,lakabuaisto,hit,la-ka-buais-to,la-ka-buais-to,la-ka-bu-ais-to,la-ka-bua-is-to,-0.3675926,-0.107407393,1,0,0,4.1,text_option_1,,0,78,78,143,1
5f622aea193f690eebfe422a,63f3cfca20052e4ae7554ebf,6453cbe322426d180ef9503e,2023-05-04_17h15.14.185,ga_syllabified_check,2022.2.5,Win32,60.0276127,,,,,,,,,,,,,,./stim/p03_syllable_1_lakafiaisto_hit.wav,p03,lakafiaisto,hit,la-ka-fiais-to,la-ka-fiais-to,la-ka-fi-ais-to,la-ka-fia-is-to,-0.393518519,-0.093518504,1,0,0,2.2347,text_option_1,,0,79,79,10,1
5f622aea193f690eebfe422a,63f3cfca20052e4ae7554ebf,6453cbe322426d180ef9503e,2023-05-04_17h15.14.185,ga_syllabified_check,2022.2.5,Win32,60.0276127,,,,,,,,,,,,,,./stim/p07_syllable_1_falutraigo_hit.wav,p07,falutraigo,hit,fa-lu-trai-go,fa-lu-trai-go,fa-lu-tra-i-go, ,-0.405555548,-0.102777764,1,0,0,2.6504,text_option_1,,0,80,80,140,1
5f622aea193f690eebfe422a,63f3cfca20052e4ae7554ebf,6453cbe322426d180ef9503e,2023-05-04_17h15.14.185,ga_syllabified_check,2022.2.5,Win32,60.0276127,,,,,,,,,,,,,,./stim/p05_syllable_1_flauro_hit.wav,p05,flauro,hit,fa-lu-ro,flau-ro,fla-u-ro, ,-0.007407365,-0.296296296,1,0,0,3.3666,text_option_other,fa-lu-ro,0,81,81,73,1
5f622aea193f690eebfe422a,63f3cfca20052e4ae7554ebf,6453cbe322426d180ef9503e,2023-05-04_17h15.14.185,ga_syllabified_check,2022.2.5,Win32,60.0276127,,,,,,,,,,,,,,./stim/p08_syllable_1_lakatiaisto_hit.wav,p08,lakatiaisto,hit,la-ka-ti-as-to,la-ka-tiais-to,la-ka-ti-ais-to,la-ka-tia-is-to,0.027777778,-0.294444473,1,0,0,12.0168,text_option_other,la-ka-ti-as-to,0,82,82,188,1
5f622aea193f690eebfe422a,63f3cfca20052e4ae7554ebf,6453cbe322426d180ef9503e,2023-05-04_17h15.14.185,ga_syllabified_check,2022.2.5,Win32,60.0276127,,,,,,,,,,,,,,./stim/p06_syllable_1_lakaguaisto_hit.wav,p06,lakaguaisto,hit,la-ka-gu-a-is,la-ka-guais-to,la-ka-gu-ais-to,la-ka-gua-is-to,0.011111153,-0.288888931,1,0,0,8.0668,text_option_other,la-ka-gu-a-is-to,0,83,83,115,1
5f622aea193f690eebfe422a,63f3cfca20052e4ae7554ebf,6453cbe322426d180ef9503e,2023-05-04_17h15.14.185,ga_syllabified_check,2022.2.5,Win32,60.0276127,,,,,,,,,,,,,,./stim/p07_syllable_1_paluguato_hit.wav,p07,paluguato,hit,pa-lu-gua-to,pa-lu-gua-to,pa-lu-gu-a-to, ,-0.385185171,-0.102777764,1,0,0,1.883,text_option_1,,0,84,84,163,1
5f622aea193f690eebfe422a,63f3cfca20052e4ae7554ebf,6453cbe322426d180ef9503e,2023-05-04_17h15.14.185,ga_syllabified_check,2022.2.5,Win32,60.0276127,,,,,,,,,,,,,,./stim/p05_syllable_1_lakatuaisto_hit.wav,p05,lakatuaisto,hit,la-ka-tais-to,la-ka-tuais-to,la-ka-tu-ais-to,la-ka-tua-is-to,0.007407436,-0.314814815,1,0,0,4.4664,text_option_other,la-ka-tais-to,0,85,85,87,1
5f622aea193f690eebfe422a,63f3cfca20052e4ae7554ebf,6453cbe322426d180ef9503e,2023-05-04_17h15.14.185,ga_syllabified_check,2022.2.5,Win32,60.0276127,,,,,,,,,,,,,,./stim/p03_syllable_1_lakakuaisto_hit.wav,p03,lakakuaisto,hit,la-ka-kuais-to,la-ka-kuais-to,la-ka-ku-ais-to,la-ka-kua-is-to,-0.342592593,-0.103703746,1,0,0,1.6502,text_option_1,,0,86,86,15,1
5f622aea193f690eebfe422a,63f3cfca20052e4ae7554ebf,6453cbe322426d180ef9503e,2023-05-04_17h15.14.185,ga_syllabified_check,2022.2.5,Win32,60.0276127,,,,,,,,,,,,,,./stim/p06_syllable_1_lakabuaisto_hit.wav,p06,lakabuaisto,hit,la-ka-bu-a-is,la-ka-buais-to,la-ka-bu-ais-to,la-ka-bua-is-to,0.425000085,-0.095370399,1,0,0,6.6834,text_option_2,,0,87,87,109,1
5f622aea193f690eebfe422a,63f3cfca20052e4ae7554ebf,6453cbe322426d180ef9503e,2023-05-04_17h15.14.185,ga_syllabified_check,2022.2.5,Win32,60.0276127,,,,,,,,,,,,,,./stim/p08_syllable_1_paluguato_hit.wav,p08,paluguato,hit,pa-lu-gua-to,pa-lu-gua-to,pa-lu-gu-a-to, ,-0.351851852,-0.091666681,1,0,0,2.4664,text_option_1,,0,88,88,197,1
5f622aea193f690eebfe422a,63f3cfca20052e4ae7554ebf,6453cbe322426d180ef9503e,2023-05-04_17h15.14.185,ga_syllabified_check,2022.2.5,Win32,60.0276127,,,,,,,,,,,,,,./stim/p04_syllable_1_lakafiaisto_hit.wav,p04,lakafiaisto,hit,la-ka-fiais-to,la-ka-fiais-to,la-ka-fi-ais-to,la-ka-fia-is-to,-0.383333312,-0.109259288,1,0,0,2.2179,text_option_1,,0,89,89,44,1
5f622aea193f690eebfe422a,63f3cfca20052e4ae7554ebf,6453cbe322426d180ef9503e,2023-05-04_17h15.14.185,ga_syllabified_check,2022.2.5,Win32,60.0276127,,,,,,,,,,,,,,./stim/p04_syllable_1_lakabiaisto_hit.wav,p04,lakabiaisto,hit,la-ka-biais-to,la-ka-biais-to,la-ka-bi-ais-to,la-ka-bia-is-to,-0.377777771,-0.100000028,1,0,0,1.9009,text_option_1,,0,90,90,40,1
5f622aea193f690eebfe422a,63f3cfca20052e4ae7554ebf,6453cbe322426d180ef9503e,2023-05-04_17h15.14.185,ga_syllabified_check,2022.2.5,Win32,60.0276127,,,,,,,,,,,,,,./stim/p08_syllable_1_lakabuaisto_hit.wav,p08,lakabuaisto,hit,la-ka-bu-ais-to,la-ka-buais-to,la-ka-bu-ais-to,la-ka-bua-is-to,0.381481453,-0.107407393,1,0,0,5.0331,text_option_2,,0,91,91,177,1
5f622aea193f690eebfe422a,63f3cfca20052e4ae7554ebf,6453cbe322426d180ef9503e,2023-05-04_17h15.14.185,ga_syllabified_check,2022.2.5,Win32,60.0276127,,,,,,,,,,,,,,./stim/p05_syllable_1_lakakiaisto_hit.wav,p05,lakakiaisto,hit,la-ka-ki-ais-to,la-ka-kiais-to,la-ka-ki-ais-to,la-ka-kia-is-to,-0.366666653,-0.110185199,1,0,0,2.6508,text_option_1,,0,92,92,82,1
5f622aea193f690eebfe422a,63f3cfca20052e4ae7554ebf,6453cbe322426d180ef9503e,2023-05-04_17h15.14.185,ga_syllabified_check,2022.2.5,Win32,60.0276127,,,,,,,,,,,,,,./stim/p06_syllable_1_ruyiola_hit.wav,p06,ruyiola,hit,ru-yi-o-la,ru-yio-la,ru-yi-o-la, ,0.45185188,-0.108333376,1,0,0,1.9999,text_option_2,,0,93,93,134,1
5f622aea193f690eebfe422a,63f3cfca20052e4ae7554ebf,6453cbe322426d180ef9503e,2023-05-04_17h15.14.185,ga_syllabified_check,2022.2.5,Win32,60.0276127,,,,,,,,,,,,,,./stim/p04_syllable_1_lakagiaisto_hit.wav,p04,lakagiaisto,hit,la-ka-giais-to,la-ka-giais-to,la-ka-gi-ais-to,la-ka-gia-is-to,-0.348148134,-0.107407393,1,0,0,3.3165,text_option_1,,0,94,94,46,1
5f622aea193f690eebfe422a,63f3cfca20052e4ae7554ebf,6453cbe322426d180ef9503e,2023-05-04_17h15.14.185,ga_syllabified_check,2022.2.5,Win32,60.0276127,,,,,,,,,,,,,,./stim/p06_syllable_1_lakabiaisto_hit.wav,p06,lakabiaisto,hit,la-ka-bia-is-to,la-ka-biais-to,la-ka-bi-ais-to,la-ka-bia-is-to,-0.070370356,-0.095370399,1,0,0,5.1346,text_option_3,,0,95,95,108,1
5f622aea193f690eebfe422a,63f3cfca20052e4ae7554ebf,6453cbe322426d180ef9503e,2023-05-04_17h15.14.185,ga_syllabified_check,2022.2.5,Win32,60.0276127,,,,,,,,,,,,,,./stim/p05_syllable_1_lakaguaisto_hit.wav,p05,lakaguaisto,hit,la-ka-gais,la-ka-guais-to,la-ka-gu-ais-to,la-ka-gua-is-to,0.073148162,-0.290740755,1,0,0,5.7998,text_option_other,la-ka-kais-to,0,96,96,81,1
5f622aea193f690eebfe422a,63f3cfca20052e4ae7554ebf,6453cbe322426d180ef9503e,2023-05-04_17h15.14.185,ga_syllabified_check,2022.2.5,Win32,60.0276127,,,,,,,,,,,,,,./stim/p03_syllable_1_lakafuaisto_hit.wav,p03,lakafuaisto,hit,la-ka-fuais-to,la-ka-fuais-to,la-ka-fu-ais-to,la-ka-fua-is-to,-0.412037037,-0.103703746,1,0,0,1.9666,text_option_1,,0,97,97,11,1
5f622aea193f690eebfe422a,63f3cfca20052e4ae7554ebf,6453cbe322426d180ef9503e,2023-05-04_17h15.14.185,ga_syllabified_check,2022.2.5,Win32,60.0276127,,,,,,,,,,,,,,./stim/p07_syllable_1_lakakuaisto_hit.wav,p07,lakakuaisto,hit,la-ka-kuais-to,la-ka-kuais-to,la-ka-ku-ais-to,la-ka-kua-is-to,-0.324999986,-0.104629658,1,0,0,2.4661,text_option_1,,0,98,98,151,1
5f622aea193f690eebfe422a,63f3cfca20052e4ae7554ebf,6453cbe322426d180ef9503e,2023-05-04_17h15.14.185,ga_syllabified_check,2022.2.5,Win32,60.0276127,,,,,,,,,,,,,,./stim/p07_syllable_1_palutrauco_hit.wav,p07,palutrauco,hit,pa-lu-trau-co,pa-lu-trau-co,pa-lu-tra-u-co, ,-0.373148141,-0.09629631,1,0,0,1.5497,text_option_1,,0,99,99,165,1
5f622aea193f690eebfe422a,63f3cfca20052e4ae7554ebf,6453cbe322426d180ef9503e,2023-05-04_17h15.14.185,ga_syllabified_check,2022.2.5,Win32,60.0276127,,,,,,,,,,,,,,./stim/p04_syllable_1_flauro_hit.wav,p04,flauro,hit,flau-ro,flau-ro,fla-u-ro, ,-0.428703697,-0.098148134,1,0,0,0.9998,text_option_1,,0,100,100,39,1
5f622aea193f690eebfe422a,63f3cfca20052e4ae7554ebf,6453cbe322426d180ef9503e,2023-05-04_17h15.14.185,ga_syllabified_check,2022.2.5,Win32,60.0276127,,,,,,,,,,,,,,./stim/p05_syllable_1_lakatiaisto_hit.wav,p05,lakatiaisto,hit,la-ka-ti-ais-to,la-ka-tiais-to,la-ka-ti-ais-to,la-ka-tia-is-to,-0.392592571,-0.10555557,1,0,0,2.8004,text_option_1,,0,101,101,86,1
5f622aea193f690eebfe422a,63f3cfca20052e4ae7554ebf,6453cbe322426d180ef9503e,2023-05-04_17h15.14.185,ga_syllabified_check,2022.2.5,Win32,60.0276127,,,,,,,,,,,,,,./stim/p08_syllable_1_palufauto_hit.wav,p08,palufauto,hit,pa-lu-fau-to,pa-lu-fau-to,pa-lu-fa-u-to, ,-0.365740741,-0.101851852,1,0,0,3.2502,text_option_1,,0,102,102,196,1
5f622aea193f690eebfe422a,63f3cfca20052e4ae7554ebf,6453cbe322426d180ef9503e,2023-05-04_17h15.14.185,ga_syllabified_check,2022.2.5,Win32,60.0276127,,,,,,,,,,,,,,./stim/p06_syllable_1_rausto_hit.wav,p06,rausto,hit,ra-us-to,raus-to,ra-us-to, ,0.372222194,-0.107407393,1,0,0,2.4001,text_option_2,,0,103,103,133,1
5f622aea193f690eebfe422a,63f3cfca20052e4ae7554ebf,6453cbe322426d180ef9503e,2023-05-04_17h15.14.185,ga_syllabified_check,2022.2.5,Win32,60.0276127,,,,,,,,,,,,,,./stim/p05_syllable_1_lakakuaisto_hit.wav,p05,lakakuaisto,hit,la-ka-kais-to,la-ka-kuais-to,la-ka-ku-ais-to,la-ka-kua-is-to,0.062037079,-0.309259273,1,0,0,3.8992,text_option_other,la-ka-kais-to,0,104,104,83,1
5f622aea193f690eebfe422a,63f3cfca20052e4ae7554ebf,6453cbe322426d180ef9503e,2023-05-04_17h15.14.185,ga_syllabified_check,2022.2.5,Win32,60.0276127,,,,,,,,,,,,,,./stim/p05_syllable_1_lakabuaisto_hit.wav,p05,lakabuaisto,hit,la-ka-buais-to,la-ka-buais-to,la-ka-bu-ais-to,la-ka-bua-is-to,-0.396296289,-0.103703746,1,0,0,2.3351,text_option_1,,0,105,105,75,1
5f622aea193f690eebfe422a,63f3cfca20052e4ae7554ebf,6453cbe322426d180ef9503e,2023-05-04_17h15.14.185,ga_syllabified_check,2022.2.5,Win32,60.0276127,,,,,,,,,,,,,,./stim/p06_syllable_1_lliape_hit.wav,p06,lliape,hit,lli-lla-pe,llia-pe,lli-a-pe, ,0.401851937,-0.101851852,1,0,0,1.567,text_option_2,,0,106,106,122,1
5f622aea193f690eebfe422a,63f3cfca20052e4ae7554ebf,6453cbe322426d180ef9503e,2023-05-04_17h15.14.185,ga_syllabified_check,2022.2.5,Win32,60.0276127,,,,,,,,,,,,,,./stim/p03_syllable_1_lakapiaisto_hit.wav,p03,lakapiaisto,hit,la-ka-piais-to,la-ka-piais-to,la-ka-pi-ais-to,la-ka-pia-is-to,-0.341666645,-0.101851852,1,0,0,2.4848,text_option_1,,0,107,107,16,1
5f622aea193f690eebfe422a,63f3cfca20052e4ae7554ebf,6453cbe322426d180ef9503e,2023-05-04_17h15.14.185,ga_syllabified_check,2022.2.5,Win32,60.0276127,,,,,,,,,,,,,,./stim/p04_syllable_1_lakapuaisto_hit.wav,p04,lakapuaisto,hit,la-ka-puais-to,la-ka-puais-to,la-ka-pu-ais-to,la-ka-pua-is-to,-0.361111111,-0.103703746,1,0,0,1.4001,text_option_1,,0,108,108,51,1
5f622aea193f690eebfe422a,63f3cfca20052e4ae7554ebf,6453cbe322426d180ef9503e,2023-05-04_17h15.14.185,ga_syllabified_check,2022.2.5,Win32,60.0276127,,,,,,,,,,,,,,./stim/p07_syllable_1_flauro_hit.wav,p07,flauro,hit,flau-ro,flau-ro,fla-u-ro, ,-0.37962963,-0.108333376,1,0,0,1.2001,text_option_1,,0,109,109,141,1
5f622aea193f690eebfe422a,63f3cfca20052e4ae7554ebf,6453cbe322426d180ef9503e,2023-05-04_17h15.14.185,ga_syllabified_check,2022.2.5,Win32,60.0276127,,,,,,,,,,,,,,./stim/p04_syllable_1_lakatiaisto_hit.wav,p04,lakatiaisto,hit,la-ka-kiais-to,la-ka-tiais-to,la-ka-ti-ais-to,la-ka-tia-is-to,-0.36296297,-0.111111111,1,0,0,2.1996,text_option_1,,0,110,110,52,1
5f622aea193f690eebfe422a,63f3cfca20052e4ae7554ebf,6453cbe322426d180ef9503e,2023-05-04_17h15.14.185,ga_syllabified_check,2022.2.5,Win32,60.0276127,,,,,,,,,,,,,,./stim/p08_syllable_1_chiaba_hit.wav,p08,chiaba,hit,chi-a-ba,chia-ba,chi-a-ba, ,0.415740826,-0.111111111,1,0,0,2.0001,text_option_2,,0,111,111,170,1
5f622aea193f690eebfe422a,63f3cfca20052e4ae7554ebf,6453cbe322426d180ef9503e,2023-05-04_17h15.14.185,ga_syllabified_check,2022.2.5,Win32,60.0276127,,,,,,,,,,,,,,./stim/p05_syllable_1_ruyiola_hit.wav,p05,ruyiola,hit,ru-yio-la,ru-yio-la,ru-yi-o-la, ,-0.383333312,-0.104629658,1,0,0,1.85,text_option_1,,0,112,112,100,1
5f622aea193f690eebfe422a,63f3cfca20052e4ae7554ebf,6453cbe322426d180ef9503e,2023-05-04_17h15.14.185,ga_syllabified_check,2022.2.5,Win32,60.0276127,,,,,,,,,,,,,,./stim/p07_syllable_1_lakabiaisto_hit.wav,p07,lakabiaisto,hit,la-ka-bais-to,la-ka-biais-to,la-ka-bi-ais-to,la-ka-bia-is-to,0.012037065,-0.301851838,1,0,0,3.6165,text_option_other,la-ka-bais-to,0,113,113,142,1
5f622aea193f690eebfe422a,63f3cfca20052e4ae7554ebf,6453cbe322426d180ef9503e,2023-05-04_17h15.14.185,ga_syllabified_check,2022.2.5,Win32,60.0276127,,,,,,,,,,,,,,./stim/p07_syllable_1_palufauro_hit.wav,p07,palufauro,hit,pa-lu-fau-ro,pa-lu-fau-ro,pa-lu-fa-u-ro, ,-0.350925905,-0.102777764,1,0,0,1.7171,text_option_1,,0,114,114,161,1
5f622aea193f690eebfe422a,63f3cfca20052e4ae7554ebf,6453cbe322426d180ef9503e,2023-05-04_17h15.14.185,ga_syllabified_check,2022.2.5,Win32,60.0276127,,,,,,,,,,,,,,./stim/p08_syllable_1_falufaisto_hit.wav,p08,falufaisto,hit,fa-lu-fais-to,fa-lu-fais-to,fa-lu-fa-is-to, ,-0.396296289,-0.099074116,1,0,0,2.7334,text_option_1,,0,115,115,173,1
5f622aea193f690eebfe422a,63f3cfca20052e4ae7554ebf,6453cbe322426d180ef9503e,2023-05-04_17h15.14.185,ga_syllabified_check,2022.2.5,Win32,60.0276127,,,,,,,,,,,,,,./stim/p05_syllable_1_lakadiaisto_hit.wav,p05,lakadiaisto,hit,la-ka-di-ais-to,la-ka-diais-to,la-ka-di-ais-to,la-ka-dia-is-to,-0.373148141,-0.102777764,1,0,0,3.8175,text_option_1,,0,116,116,76,1
5f622aea193f690eebfe422a,63f3cfca20052e4ae7554ebf,6453cbe322426d180ef9503e,2023-05-04_17h15.14.185,ga_syllabified_check,2022.2.5,Win32,60.0276127,,,,,,,,,,,,,,./stim/p04_syllable_1_lakakiaisto_hit.wav,p04,lakakiaisto,hit,la-ka-kiais-to,la-ka-kiais-to,la-ka-ki-ais-to,la-ka-kia-is-to,-0.393518519,-0.104629658,1,0,0,4.5501,text_option_1,,0,117,117,48,1
5f622aea193f690eebfe422a,63f3cfca20052e4ae7554ebf,6453cbe322426d180ef9503e,2023-05-04_17h15.14.185,ga_syllabified_check,2022.2.5,Win32,60.0276127,,,,,,,,,,,,,,./stim/p05_syllable_1_nhiape_hit.wav,p05,ñiape,hit,nhia-pe,ñia-pe,ñi-a-pe, ,-0.390740748,-0.10092594,1,0,0,2.3006,text_option_1,,0,118,118,91,1
5f622aea193f690eebfe422a,63f3cfca20052e4ae7554ebf,6453cbe322426d180ef9503e,2023-05-04_17h15.14.185,ga_syllabified_check,2022.2.5,Win32,60.0276127,,,,,,,,,,,,,,./stim/p06_syllable_1_paluguato_hit.wav,p06,paluguato,hit,pa-lu-gua-to,pa-lu-gua-to,pa-lu-gu-a-to, ,-0.359259252,-0.106481481,1,0,0,2.8335,text_option_1,,0,119,119,129,1
5f622aea193f690eebfe422a,63f3cfca20052e4ae7554ebf,6453cbe322426d180ef9503e,2023-05-04_17h15.14.185,ga_syllabified_check,2022.2.5,Win32,60.0276127,,,,,,,,,,,,,,./stim/p04_syllable_1_palufauro_hit.wav,p04,palufauro,hit,pa-lu-fau-ro,pa-lu-fau-ro,pa-lu-fa-u-ro, ,-0.39907406,-0.106481481,1,0,0,4.2503,text_option_1,,0,120,120,59,1
5f622aea193f690eebfe422a,63f3cfca20052e4ae7554ebf,6453cbe322426d180ef9503e,2023-05-04_17h15.14.185,ga_syllabified_check,2022.2.5,Win32,60.0276127,,,,,,,,,,,,,,./stim/p05_syllable_1_lakafiaisto_hit.wav,p05,lakafiaisto,hit,la-ka-fi-ais-to,la-ka-fiais-to,la-ka-fi-ais-to,la-ka-fia-is-to,0.395370342,-0.108333376,1,0,0,4.8501,text_option_2,,0,121,121,78,1
5f622aea193f690eebfe422a,63f3cfca20052e4ae7554ebf,6453cbe322426d180ef9503e,2023-05-04_17h15.14.185,ga_syllabified_check,2022.2.5,Win32,60.0276127,,,,,,,,,,,,,,./stim/p05_syllable_1_palufauro_hit.wav,p05,palufauro,hit,pa-lu-fau-ro,pa-lu-fau-ro,pa-lu-fa-u-ro, ,-0.347222222,-0.114814829,1,0,0,2.9338,text_option_1,,0,122,122,93,1
5f622aea193f690eebfe422a,63f3cfca20052e4ae7554ebf,6453cbe322426d180ef9503e,2023-05-04_17h15.14.185,ga_syllabified_check,2022.2.5,Win32,60.0276127,,,,,,,,,,,,,,./stim/p06_syllable_1_manhiala_hit.wav,p06,mañiala,hit,ma-nhi-a-la,ma-ñia-la,ma-ñi-a-la, ,0.454629686,-0.107407393,1,0,0,2.2838,text_option_2,,0,123,123,123,1
5f622aea193f690eebfe422a,63f3cfca20052e4ae7554ebf,6453cbe322426d180ef9503e,2023-05-04_17h15.14.185,ga_syllabified_check,2022.2.5,Win32,60.0276127,,,,,,,,,,,,,,./stim/p05_syllable_1_manhiala_hit.wav,p05,mañiala,hit,ma-nhia-la,ma-ñia-la,ma-ñi-a-la, ,-0.362037023,-0.104629658,1,0,0,3.5667,text_option_1,,0,124,124,89,1
5f622aea193f690eebfe422a,63f3cfca20052e4ae7554ebf,6453cbe322426d180ef9503e,2023-05-04_17h15.14.185,ga_syllabified_check,2022.2.5,Win32,60.0276127,,,,,,,,,,,,,,./stim/p07_syllable_1_lakatiaisto_hit.wav,p07,lakatiaisto,hit,la-ka-tiai-sto,la-ka-tiais-to,la-ka-ti-ais-to,la-ka-tia-is-to,-0.331481474,-0.10555557,1,0,0,10.9674,text_option_1,,0,125,125,154,1
5f622aea193f690eebfe422a,63f3cfca20052e4ae7554ebf,6453cbe322426d180ef9503e,2023-05-04_17h15.14.185,ga_syllabified_check,2022.2.5,Win32,60.0276127,,,,,,,,,,,,,,./stim/p08_syllable_1_lakafiaisto_hit.wav,p08,lakafiaisto,hit,la-ka-fi-as-to,la-ka-fiais-to,la-ka-fi-ais-to,la-ka-fia-is-to,0.062962991,-0.303703732,1,0,0,7.7833,text_option_other,la-ka-fi-as-to,0,126,126,180,1
5f622aea193f690eebfe422a,63f3cfca20052e4ae7554ebf,6453cbe322426d180ef9503e,2023-05-04_17h15.14.185,ga_syllabified_check,2022.2.5,Win32,60.0276127,,,,,,,,,,,,,,./stim/p07_syllable_1_lakafiaisto_hit.wav,p07,lakafiaisto,hit,la-ka-fiais-to,la-ka-fiais-to,la-ka-fi-ais-to,la-ka-fia-is-to,-0.350925905,-0.108333376,1,0,0,2.0671,text_option_1,,0,127,127,146,1
5f622aea193f690eebfe422a,63f3cfca20052e4ae7554ebf,6453cbe322426d180ef9503e,2023-05-04_17h15.14.185,ga_syllabified_check,2022.2.5,Win32,60.0276127,,,,,,,,,,,,,,./stim/p04_syllable_1_pachialo_hit.wav,p04,pachialo,hit,pa-chia-lo,pa-chia-lo,pa-chi-a-lo, ,-0.375,-0.100000028,1,0,0,1.2658,text_option_1,,0,128,128,58,1
5f622aea193f690eebfe422a,63f3cfca20052e4ae7554ebf,6453cbe322426d180ef9503e,2023-05-04_17h15.14.185,ga_syllabified_check,2022.2.5,Win32,60.0276127,,,,,,,,,,,,,,./stim/p08_syllable_1_manhiala_hit.wav,p08,mañiala,hit,ma-nhia-la,ma-ñia-la,ma-ñi-a-la, ,-0.377777771,-0.103703746,1,0,0,2.7674,text_option_1,,0,129,129,191,1
5f622aea193f690eebfe422a,63f3cfca20052e4ae7554ebf,6453cbe322426d180ef9503e,2023-05-04_17h15.14.185,ga_syllabified_check,2022.2.5,Win32,60.0276127,,,,,,,,,,,,,,./stim/p03_syllable_1_ruyiola_hit.wav,p03,ruyiola,hit,ru-yio-la,ru-yio-la,ru-yi-o-la, ,-0.412962949,-0.10092594,1,0,0,1.3663,text_option_1,,0,130,130,32,1
5f622aea193f690eebfe422a,63f3cfca20052e4ae7554ebf,6453cbe322426d180ef9503e,2023-05-04_17h15.14.185,ga_syllabified_check,2022.2.5,Win32,60.0276127,,,,,,,,,,,,,,./stim/p03_syllable_1_lliape_hit.wav,p03,lliape,hit,llia,llia-pe,lli-a-pe, ,-0.400000007,-0.099074116,1,0,0,1.2833,text_option_1,,0,131,131,20,1
5f622aea193f690eebfe422a,63f3cfca20052e4ae7554ebf,6453cbe322426d180ef9503e,2023-05-04_17h15.14.185,ga_syllabified_check,2022.2.5,Win32,60.0276127,,,,,,,,,,,,,,./stim/p03_syllable_1_chiaba_hit.wav,p03,chiaba,hit,chia-ba,chia-ba,chi-a-ba, ,-0.409259266,-0.101851852,1,0,0,1.0495,text_option_1,,0,132,132,0,1
5f622aea193f690eebfe422a,63f3cfca20052e4ae7554ebf,6453cbe322426d180ef9503e,2023-05-04_17h15.14.185,ga_syllabified_check,2022.2.5,Win32,60.0276127,,,,,,,,,,,,,,./stim/p04_syllable_1_lakatuaisto_hit.wav,p04,lakatuaisto,hit,la-ka-kuais-to,la-ka-tuais-to,la-ka-tu-ais-to,la-ka-tua-is-to,-0.377777771,-0.100000028,1,0,0,2.0665,text_option_1,,0,133,133,53,1
5f622aea193f690eebfe422a,63f3cfca20052e4ae7554ebf,6453cbe322426d180ef9503e,2023-05-04_17h15.14.185,ga_syllabified_check,2022.2.5,Win32,60.0276127,,,,,,,,,,,,,,./stim/p06_syllable_1_lakapuaisto_hit.wav,p06,lakapuaisto,hit,la-ka-pu-a-is,la-ka-puais-to,la-ka-pu-ais-to,la-ka-pua-is-to,0.02870369,-0.308333362,1,0,0,9.0836,text_option_other,la-ka-pu-a-is-to,0,134,134,119,1
5f622aea193f690eebfe422a,63f3cfca20052e4ae7554ebf,6453cbe322426d180ef9503e,2023-05-04_17h15.14.185,ga_syllabified_check,2022.2.5,Win32,60.0276127,,,,,,,,,,,,,,./stim/p07_syllable_1_rausto_hit.wav,p07,rausto,hit,raus-to,raus-to,ra-us-to, ,-0.400925919,-0.108333376,1,0,0,1.3337,text_option_1,,0,135,135,167,1
5f622aea193f690eebfe422a,63f3cfca20052e4ae7554ebf,6453cbe322426d180ef9503e,2023-05-04_17h15.14.185,ga_syllabified_check,2022.2.5,Win32,60.0276127,,,,,,,,,,,,,,./stim/p04_syllable_1_mebochiana_hit.wav,p04,mebochiana,hit,me-bo-chia-na,me-bo-chia-na,me-bo-chi-a-na, ,-0.360185164,-0.098148134,1,0,0,1.6664,text_option_1,,0,136,136,56,1
5f622aea193f690eebfe422a,63f3cfca20052e4ae7554ebf,6453cbe322426d180ef9503e,2023-05-04_17h15.14.185,ga_syllabified_check,2022.2.5,Win32,60.0276127,,,,,,,,,,,,,,./stim/p08_syllable_1_palutrauco_hit.wav,p08,palutrauco,hit,pa-lu-trau-ko,pa-lu-trau-co,pa-lu-tra-u-co, ,-0.368518511,-0.092592593,1,0,0,2.5685,text_option_1,,0,137,137,199,1
5f622aea193f690eebfe422a,63f3cfca20052e4ae7554ebf,6453cbe322426d180ef9503e,2023-05-04_17h15.14.185,ga_syllabified_check,2022.2.5,Win32,60.0276127,,,,,,,,,,,,,,./stim/p06_syllable_1_lakapiaisto_hit.wav,p06,lakapiaisto,hit,la-ka-pia-is-to,la-ka-piais-to,la-ka-pi-ais-to,la-ka-pia-is-to,0.049074102,-0.108333376,1,0,0,5.1503,text_option_3,,0,138,138,118,1
5f622aea193f690eebfe422a,63f3cfca20052e4ae7554ebf,6453cbe322426d180ef9503e,2023-05-04_17h15.14.185,ga_syllabified_check,2022.2.5,Win32,60.0276127,,,,,,,,,,,,,,./stim/p03_syllable_1_faluduako_hit.wav,p03,faluduako,hit,fa-lu-dua-ko,fa-lu-dua-ko,fa-lu-du-a-ko, ,-0.396296289,-0.110185199,1,0,0,1.3999,text_option_1,,0,139,139,2,1
5f622aea193f690eebfe422a,63f3cfca20052e4ae7554ebf,6453cbe322426d180ef9503e,2023-05-04_17h15.14.185,ga_syllabified_check,2022.2.5,Win32,60.0276127,,,,,,,,,,,,,,./stim/p06_syllable_1_lakakuaisto_hit.wav,p06,lakakuaisto,hit,la-ka-ku-a-is,la-ka-kuais-to,la-ka-ku-ais-to,la-ka-kua-is-to,0.082407422,-0.10092594,1,0,0,4.2831,text_option_3,,0,140,140,117,1
5f622aea193f690eebfe422a,63f3cfca20052e4ae7554ebf,6453cbe322426d180ef9503e,2023-05-04_17h15.14.185,ga_syllabified_check,2022.2.5,Win32,60.0276127,,,,,,,,,,,,,,./stim/p05_syllable_1_tuliafo_hit.wav,p05,tuliafo,hit,tu-lai-fo,tu-lia-fo,tu-li-a-fo, ,-0.38703703,-0.108333376,1,0,0,2.1167,text_option_1,,0,141,141,101,1
5f622aea193f690eebfe422a,63f3cfca20052e4ae7554ebf,6453cbe322426d180ef9503e,2023-05-04_17h15.14.185,ga_syllabified_check,2022.2.5,Win32,60.0276127,,,,,,,,,,,,,,./stim/p03_syllable_1_payielo_hit.wav,p03,payielo,hit,pa-yie-lo,pa-yie-lo,pa-yi-e-lo, ,-0.410185178,-0.10555557,1,0,0,2.4681,text_option_1,,0,142,142,30,1
5f622aea193f690eebfe422a,63f3cfca20052e4ae7554ebf,6453cbe322426d180ef9503e,2023-05-04_17h15.14.185,ga_syllabified_check,2022.2.5,Win32,60.0276127,,,,,,,,,,,,,,./stim/p03_syllable_1_falufaisto_hit.wav,p03,falufaisto,hit,fa-lu-fais-to,fa-lu-fais-to,fa-lu-fa-is-to, ,-0.384259259,-0.103703746,1,0,0,1.8832,text_option_1,,0,143,143,3,1
5f622aea193f690eebfe422a,63f3cfca20052e4ae7554ebf,6453cbe322426d180ef9503e,2023-05-04_17h15.14.185,ga_syllabified_check,2022.2.5,Win32,60.0276127,,,,,,,,,,,,,,./stim/p07_syllable_1_tuliafo_hit.wav,p07,tuliafo,hit,tu-lia-fo,tu-lia-fo,tu-li-a-fo, ,-0.396296289,-0.099074116,1,0,0,1.3005,text_option_1,,0,144,144,169,1
5f622aea193f690eebfe422a,63f3cfca20052e4ae7554ebf,6453cbe322426d180ef9503e,2023-05-04_17h15.14.185,ga_syllabified_check,2022.2.5,Win32,60.0276127,,,,,,,,,,,,,,./stim/p04_syllable_1_palumaisto_hit.wav,p04,palumaisto,hit,pa-lu-mais-to,pa-lu-mais-to,pa-lu-ma-is-to, ,-0.373148141,-0.112963005,1,0,0,1.4667,text_option_1,,0,145,145,62,1
5f622aea193f690eebfe422a,63f3cfca20052e4ae7554ebf,6453cbe322426d180ef9503e,2023-05-04_17h15.14.185,ga_syllabified_check,2022.2.5,Win32,60.0276127,,,,,,,,,,,,,,./stim/p08_syllable_1_flauro_hit.wav,p08,flauro,hit,flau-ro,flau-ro,fla-u-ro, ,-0.422222208,-0.114814829,1,0,0,1.1834,text_option_1,,0,146,146,175,1
5f622aea193f690eebfe422a,63f3cfca20052e4ae7554ebf,6453cbe322426d180ef9503e,2023-05-04_17h15.14.185,ga_syllabified_check,2022.2.5,Win32,60.0276127,,,,,,,,,,,,,,./stim/p08_syllable_1_lakafuaisto_hit.wav,p08,lakafuaisto,hit,la-ka-fju-ais-to,la-ka-fuais-to,la-ka-fu-ais-to,la-ka-fua-is-to,0.010185171,-0.112963005,1,0,0,5.7662,text_option_3,,0,147,147,181,1
5f622aea193f690eebfe422a,63f3cfca20052e4ae7554ebf,6453cbe322426d180ef9503e,2023-05-04_17h15.14.185,ga_syllabified_check,2022.2.5,Win32,60.0276127,,,,,,,,,,,,,,./stim/p08_syllable_1_lakapiaisto_hit.wav,p08,lakapiaisto,hit,la-ka-pi-as-to,la-ka-piais-to,la-ka-pi-ais-to,la-ka-pia-is-to,0.435185185,-0.112037023,1,0,0,6.6,text_option_2,,0,148,148,186,1
5f622aea193f690eebfe422a,63f3cfca20052e4ae7554ebf,6453cbe322426d180ef9503e,2023-05-04_17h15.14.185,ga_syllabified_check,2022.2.5,Win32,60.0276127,,,,,,,,,,,,,,./stim/p05_syllable_1_palumaisto_hit.wav,p05,palumaisto,hit,pa-lu-mais-to,pa-lu-mais-to,pa-lu-ma-is-to, ,-0.302777785,-0.107407393,1,0,0,2.2013,text_option_1,,0,149,149,96,1
5f622aea193f690eebfe422a,63f3cfca20052e4ae7554ebf,6453cbe322426d180ef9503e,2023-05-04_17h15.14.185,ga_syllabified_check,2022.2.5,Win32,60.0276127,,,,,,,,,,,,,,./stim/p05_syllable_1_faluduako_hit.wav,p05,faluduako,hit,fa-lu-ba-ko,fa-lu-dua-ko,fa-lu-du-a-ko, ,-0.398148148,-0.109259288,1,0,0,3.2662,text_option_1,,0,150,150,70,1
5f622aea193f690eebfe422a,63f3cfca20052e4ae7554ebf,6453cbe322426d180ef9503e,2023-05-04_17h15.14.185,ga_syllabified_check,2022.2.5,Win32,60.0276127,,,,,,,,,,,,,,./stim/p08_syllable_1_palumaisto_hit.wav,p08,palumaisto,hit,pa-lu-mais-to,pa-lu-mais-to,pa-lu-ma-is-to, ,-0.377777771,-0.095370399,1,0,0,2.6498,text_option_1,,0,151,151,198,1
5f622aea193f690eebfe422a,63f3cfca20052e4ae7554ebf,6453cbe322426d180ef9503e,2023-05-04_17h15.14.185,ga_syllabified_check,2022.2.5,Win32,60.0276127,,,,,,,,,,,,,,./stim/p08_syllable_1_pachialo_hit.wav,p08,pachialo,hit,pa-chi-ja-lo,pa-chia-lo,pa-chi-a-lo, ,0.393518519,-0.10092594,1,0,0,2.6999,text_option_2,,0,152,152,194,1
5f622aea193f690eebfe422a,63f3cfca20052e4ae7554ebf,6453cbe322426d180ef9503e,2023-05-04_17h15.14.185,ga_syllabified_check,2022.2.5,Win32,60.0276127,,,,,,,,,,,,,,./stim/p06_syllable_1_falufaisto_hit.wav,p06,falufaisto,hit,fa-lu-fa-is-to,fa-lu-fais-to,fa-lu-fa-is-to, ,0.406481566,-0.108333376,1,0,0,2.9336,text_option_2,,0,153,153,105,1
5f622aea193f690eebfe422a,63f3cfca20052e4ae7554ebf,6453cbe322426d180ef9503e,2023-05-04_17h15.14.185,ga_syllabified_check,2022.2.5,Win32,60.0276127,,,,,,,,,,,,,,./stim/p07_syllable_1_palufauto_hit.wav,p07,palufauto,hit,pa-lu-fau-to,pa-lu-fau-to,pa-lu-fa-u-to, ,-0.365740741,-0.106481481,1,0,0,2.4335,text_option_1,,0,154,154,162,1
5f622aea193f690eebfe422a,63f3cfca20052e4ae7554ebf,6453cbe322426d180ef9503e,2023-05-04_17h15.14.185,ga_syllabified_check,2022.2.5,Win32,60.0276127,,,,,,,,,,,,,,./stim/p04_syllable_1_falufaisto_hit.wav,p04,falufaisto,hit,fa-lu-fais-to,fa-lu-fais-to,fa-lu-fa-is-to, ,-0.377777771,-0.104629658,1,0,0,1.4834,text_option_1,,0,155,155,37,1
5f622aea193f690eebfe422a,63f3cfca20052e4ae7554ebf,6453cbe322426d180ef9503e,2023-05-04_17h15.14.185,ga_syllabified_check,2022.2.5,Win32,60.0276127,,,,,,,,,,,,,,./stim/p06_syllable_1_lakaduaisto_hit.wav,p06,lakaduaisto,hit,la-ka-du-a-is,la-ka-duais-to,la-ka-du-ais-to,la-ka-dua-is-to,0.060185185,-0.303703732,1,0,0,10.133,text_option_other,la-ku-du-a-is-to,0,156,156,111,1
5f622aea193f690eebfe422a,63f3cfca20052e4ae7554ebf,6453cbe322426d180ef9503e,2023-05-04_17h15.14.185,ga_syllabified_check,2022.2.5,Win32,60.0276127,,,,,,,,,,,,,,./stim/p06_syllable_1_chiaba_hit.wav,p06,chiaba,hit,chi-a-ba,chia-ba,chi-a-ba, ,-0.41574072,-0.113888917,1,0,0,1.8494,text_option_1,,0,157,157,102,1
5f622aea193f690eebfe422a,63f3cfca20052e4ae7554ebf,6453cbe322426d180ef9503e,2023-05-04_17h15.14.185,ga_syllabified_check,2022.2.5,Win32,60.0276127,,,,,,,,,,,,,,./stim/p04_syllable_1_lakadiaisto_hit.wav,p04,lakadiaisto,hit,la-ka-dias-to,la-ka-diais-to,la-ka-di-ais-to,la-ka-dia-is-to,-0.369444423,-0.091666681,1,0,0,1.8173,text_option_1,,0,158,158,42,1
5f622aea193f690eebfe422a,63f3cfca20052e4ae7554ebf,6453cbe322426d180ef9503e,2023-05-04_17h15.14.185,ga_syllabified_check,2022.2.5,Win32,60.0276127,,,,,,,,,,,,,,./stim/p07_syllable_1_manhiala_hit.wav,p07,mañiala,hit,ma-nhia-la,ma-ñia-la,ma-ñi-a-la, ,-0.387962942,-0.10555557,1,0,0,1.6339,text_option_1,,0,159,159,157,1
5f622aea193f690eebfe422a,63f3cfca20052e4ae7554ebf,6453cbe322426d180ef9503e,2023-05-04_17h15.14.185,ga_syllabified_check,2022.2.5,Win32,60.0276127,,,,,,,,,,,,,,./stim/p06_syllable_1_lakadiaisto_hit.wav,p06,lakadiaisto,hit,la-ka-dia-is-to,la-ka-diais-to,la-ka-di-ais-to,la-ka-dia-is-to,0.018518519,-0.10092594,1,0,0,4.2663,text_option_3,,0,160,160,110,1
5f622aea193f690eebfe422a,63f3cfca20052e4ae7554ebf,6453cbe322426d180ef9503e,2023-05-04_17h15.14.185,ga_syllabified_check,2022.2.5,Win32,60.0276127,,,,,,,,,,,,,,./stim/p08_syllable_1_lakakiaisto_hit.wav,p08,lakakiaisto,hit,la-ka-ki-jas-to,la-ka-kiais-to,la-ka-ki-ais-to,la-ka-kia-is-to,0.075925968,-0.309259273,1,0,0,8.436,text_option_other,la-ka-ki-as-to,0,161,161,184,1
5f622aea193f690eebfe422a,63f3cfca20052e4ae7554ebf,6453cbe322426d180ef9503e,2023-05-04_17h15.14.185,ga_syllabified_check,2022.2.5,Win32,60.0276127,,,,,,,,,,,,,,./stim/p03_syllable_1_manhiala_hit.wav,p03,mañiala,hit,ma-nhia-la,ma-ñia-la,ma-ñi-a-la, ,-0.371296282,-0.102777764,1,0,0,1.2707,text_option_1,,0,162,162,21,1
5f622aea193f690eebfe422a,63f3cfca20052e4ae7554ebf,6453cbe322426d180ef9503e,2023-05-04_17h15.14.185,ga_syllabified_check,2022.2.5,Win32,60.0276127,,,,,,,,,,,,,,./stim/p06_syllable_1_lakafiaisto_hit.wav,p06,lakafiaisto,hit,la-ka-fia-is-to,la-ka-fiais-to,la-ka-fi-ais-to,la-ka-fia-is-to,0.017592607,-0.107407393,1,0,0,4.8615,text_option_3,,0,163,163,112,1
5f622aea193f690eebfe422a,63f3cfca20052e4ae7554ebf,6453cbe322426d180ef9503e,2023-05-04_17h15.14.185,ga_syllabified_check,2022.2.5,Win32,60.0276127,,,,,,,,,,,,,,./stim/p03_syllable_1_lakadiaisto_hit.wav,p03,lakadiaisto,hit,la-ka-diais-to,la-ka-diais-to,la-ka-di-ais-to,la-ka-dia-is-to,-0.383333312,-0.107407393,1,0,0,2.2718,text_option_1,,0,164,164,8,1
5f622aea193f690eebfe422a,63f3cfca20052e4ae7554ebf,6453cbe322426d180ef9503e,2023-05-04_17h15.14.185,ga_syllabified_check,2022.2.5,Win32,60.0276127,,,,,,,,,,,,,,./stim/p06_syllable_1_mebochiana_hit.wav,p06,mebochiana,hit,me-bo-shi-a-na,me-bo-chia-na,me-bo-chi-a-na, ,0.376851824,-0.101851852,1,0,0,3.717,text_option_2,,0,165,165,124,1
5f622aea193f690eebfe422a,63f3cfca20052e4ae7554ebf,6453cbe322426d180ef9503e,2023-05-04_17h15.14.185,ga_syllabified_check,2022.2.5,Win32,60.0276127,,,,,,,,,,,,,,./stim/p05_syllable_1_lakapiaisto_hit.wav,p05,lakapiaisto,hit,la-ka-pais-to,la-ka-piais-to,la-ka-pi-ais-to,la-ka-pia-is-to,0.022222236,-0.299074102,1,0,0,5.5391,text_option_other,la-ka-pais-to,0,166,166,84,1
5f622aea193f690eebfe422a,63f3cfca20052e4ae7554ebf,6453cbe322426d180ef9503e,2023-05-04_17h15.14.185,ga_syllabified_check,2022.2.5,Win32,60.0276127,,,,,,,,,,,,,,./stim/p06_syllable_1_lakagiaisto_hit.wav,p06,lakagiaisto,hit,la-ka-gia-is-to,la-ka-giais-to,la-ka-gi-ais-to,la-ka-gia-is-to,0.046296296,-0.101851852,1,0,0,4.2156,text_option_3,,0,167,167,114,1
5f622aea193f690eebfe422a,63f3cfca20052e4ae7554ebf,6453cbe322426d180ef9503e,2023-05-04_17h15.14.185,ga_syllabified_check,2022.2.5,Win32,60.0276127,,,,,,,,,,,,,,./stim/p06_syllable_1_palutrauco_hit.wav,p06,palutrauco,hit,pa-lu-tra-u-co,pa-lu-trau-co,pa-lu-tra-u-co, ,0.452777863,-0.107407393,1,0,0,2.8728,text_option_2,,0,168,168,131,1
5f622aea193f690eebfe422a,63f3cfca20052e4ae7554ebf,6453cbe322426d180ef9503e,2023-05-04_17h15.14.185,ga_syllabified_check,2022.2.5,Win32,60.0276127,,,,,,,,,,,,,,./stim/p08_syllable_1_lakakuaisto_hit.wav,p08,lakakuaisto,hit,la-ka-ku-ais-to,la-ka-kuais-to,la-ka-ku-ais-to,la-ka-kua-is-to,0.381481453,-0.113888917,1,0,0,5.9002,text_option_2,,0,169,169,185,1
5f622aea193f690eebfe422a,63f3cfca20052e4ae7554ebf,6453cbe322426d180ef9503e,2023-05-04_17h15.14.185,ga_syllabified_check,2022.2.5,Win32,60.0276127,,,,,,,,,,,,,,./stim/p05_syllable_1_palufauto_hit.wav,p05,palufauto,hit,pa-lu-fau-to,pa-lu-fau-to,pa-lu-fa-u-to, ,-0.311111097,-0.115740741,1,0,0,1.933,text_option_1,,0,170,170,94,1
5f622aea193f690eebfe422a,63f3cfca20052e4ae7554ebf,6453cbe322426d180ef9503e,2023-05-04_17h15.14.185,ga_syllabified_check,2022.2.5,Win32,60.0276127,,,,,,,,,,,,,,./stim/p06_syllable_1_falutraigo_hit.wav,p06,falutraigo,hit,fa-lu-tra-i-go,fa-lu-trai-go,fa-lu-tra-i-go, ,0.346296381,-0.091666681,1,0,0,4.016,text_option_2,,0,171,171,106,1
5f622aea193f690eebfe422a,63f3cfca20052e4ae7554ebf,6453cbe322426d180ef9503e,2023-05-04_17h15.14.185,ga_syllabified_check,2022.2.5,Win32,60.0276127,,,,,,,,,,,,,,./stim/p04_syllable_1_lakaguaisto_hit.wav,p04,lakaguaisto,hit,la-ka-guais-to,la-ka-guais-to,la-ka-gu-ais-to,la-ka-gua-is-to,-0.359259252,-0.103703746,1,0,0,2.1852,text_option_1,,0,172,172,47,1
5f622aea193f690eebfe422a,63f3cfca20052e4ae7554ebf,6453cbe322426d180ef9503e,2023-05-04_17h15.14.185,ga_syllabified_check,2022.2.5,Win32,60.0276127,,,,,,,,,,,,,,./stim/p08_syllable_1_lakaduaisto_hit.wav,p08,lakaduaisto,hit,la-ka-du-ais-to,la-ka-duais-to,la-ka-du-ais-to,la-ka-dua-is-to,0.362037094,-0.089814822,1,0,0,4.7661,text_option_2,,0,173,173,179,1
5f622aea193f690eebfe422a,63f3cfca20052e4ae7554ebf,6453cbe322426d180ef9503e,2023-05-04_17h15.14.185,ga_syllabified_check,2022.2.5,Win32,60.0276127,,,,,,,,,,,,,,./stim/p05_syllable_1_lliape_hit.wav,p05,lliape,hit,liai-pe,llia-pe,lli-a-pe, ,0,-0.297222208,1,0,0,2.8886,text_option_other,llai-pe,0,174,174,88,1
5f622aea193f690eebfe422a,63f3cfca20052e4ae7554ebf,6453cbe322426d180ef9503e,2023-05-04_17h15.14.185,ga_syllabified_check,2022.2.5,Win32,60.0276127,,,,,,,,,,,,,,./stim/p06_syllable_1_payielo_hit.wav,p06,payielo,hit,pa-yi-e-lo,pa-yie-lo,pa-yi-e-lo, ,0.450000057,-0.104629658,1,0,0,2.5849,text_option_2,,0,175,175,132,1
5f622aea193f690eebfe422a,63f3cfca20052e4ae7554ebf,6453cbe322426d180ef9503e,2023-05-04_17h15.14.185,ga_syllabified_check,2022.2.5,Win32,60.0276127,,,,,,,,,,,,,,./stim/p08_syllable_1_costonhialo_hit.wav,p08,costoñialo,hit,cos-to-nhia-lo,cos-to-ñia-lo,cos-to-ñi-a-lo, ,-0.361111111,-0.107407393,1,0,0,3.0328,text_option_1,,0,176,176,171,1
5f622aea193f690eebfe422a,63f3cfca20052e4ae7554ebf,6453cbe322426d180ef9503e,2023-05-04_17h15.14.185,ga_syllabified_check,2022.2.5,Win32,60.0276127,,,,,,,,,,,,,,./stim/p06_syllable_1_tuliafo_hit.wav,p06,tuliafo,hit,tu-li-a-fo,tu-lia-fo,tu-li-a-fo, ,0.404629601,-0.10555557,1,0,0,1.9492,text_option_2,,0,177,177,135,1
5f622aea193f690eebfe422a,63f3cfca20052e4ae7554ebf,6453cbe322426d180ef9503e,2023-05-04_17h15.14.185,ga_syllabified_check,2022.2.5,Win32,60.0276127,,,,,,,,,,,,,,./stim/p05_syllable_1_lakabiaisto_hit.wav,p05,lakabiaisto,hit,la-ka-bi-ais-to,la-ka-biais-to,la-ka-bi-ais-to,la-ka-bia-is-to,0.436111168,-0.108333376,1,0,0,5.643,text_option_2,,0,178,178,74,1
5f622aea193f690eebfe422a,63f3cfca20052e4ae7554ebf,6453cbe322426d180ef9503e,2023-05-04_17h15.14.185,ga_syllabified_check,2022.2.5,Win32,60.0276127,,,,,,,,,,,,,,./stim/p05_syllable_1_falutraigo_hit.wav,p05,falutraigo,hit,fa-lu-trai-go,fa-lu-trai-go,fa-lu-tra-i-go, ,-0.39166666,-0.104629658,1,0,0,1.999,text_option_1,,0,179,179,72,1
5f622aea193f690eebfe422a,63f3cfca20052e4ae7554ebf,6453cbe322426d180ef9503e,2023-05-04_17h15.14.185,ga_syllabified_check,2022.2.5,Win32,60.0276127,,,,,,,,,,,,,,./stim/p07_syllable_1_payielo_hit.wav,p07,payielo,hit,pa-yie-lo,pa-yie-lo,pa-yi-e-lo, ,-0.400925919,-0.10555557,1,0,0,1.5228,text_option_1,,0,180,180,166,1
5f622aea193f690eebfe422a,63f3cfca20052e4ae7554ebf,6453cbe322426d180ef9503e,2023-05-04_17h15.14.185,ga_syllabified_check,2022.2.5,Win32,60.0276127,,,,,,,,,,,,,,./stim/p05_syllable_1_mebochiana_hit.wav,p05,mebochiana,hit,me-cho-chai-na,me-bo-chia-na,me-bo-chi-a-na, ,0.031481496,-0.306481467,1,0,0,3.1499,text_option_other,me-cho-cha-na,0,181,181,90,1
5f622aea193f690eebfe422a,63f3cfca20052e4ae7554ebf,6453cbe322426d180ef9503e,2023-05-04_17h15.14.185,ga_syllabified_check,2022.2.5,Win32,60.0276127,,,,,,,,,,,,,,./stim/p07_syllable_1_chiaba_hit.wav,p07,chiaba,hit,chia-ba,chia-ba,chi-a-ba, ,-0.362037023,-0.108333376,1,0,0,0.9006,text_option_1,,0,182,182,136,1
5f622aea193f690eebfe422a,63f3cfca20052e4ae7554ebf,6453cbe322426d180ef9503e,2023-05-04_17h15.14.185,ga_syllabified_check,2022.2.5,Win32,60.0276127,,,,,,,,,,,,,,./stim/p08_syllable_1_nhiape_hit.wav,p08,ñiape,hit,ni-a-pe,ñia-pe,ñi-a-pe, ,0.41851849,-0.104629658,1,0,0,1.7513,text_option_2,,0,183,183,193,1
5f622aea193f690eebfe422a,63f3cfca20052e4ae7554ebf,6453cbe322426d180ef9503e,2023-05-04_17h15.14.185,ga_syllabified_check,2022.2.5,Win32,60.0276127,,,,,,,,,,,,,,./stim/p08_syllable_1_palufauro_hit.wav,p08,palufauro,hit,pa-lu-fau-ro,pa-lu-fau-ro,pa-lu-fa-u-ro, ,-0.347222222,-0.10555557,1,0,0,3.8442,text_option_1,,0,184,184,195,1
5f622aea193f690eebfe422a,63f3cfca20052e4ae7554ebf,6453cbe322426d180ef9503e,2023-05-04_17h15.14.185,ga_syllabified_check,2022.2.5,Win32,60.0276127,,,,,,,,,,,,,,./stim/p03_syllable_1_nhiape_hit.wav,p03,ñiape,hit,nhia-pe,ñia-pe,ñi-a-pe, ,-0.387962942,-0.100000028,1,0,0,0.8936,text_option_1,,0,185,185,23,1
5f622aea193f690eebfe422a,63f3cfca20052e4ae7554ebf,6453cbe322426d180ef9503e,2023-05-04_17h15.14.185,ga_syllabified_check,2022.2.5,Win32,60.0276127,,,,,,,,,,,,,,./stim/p07_syllable_1_pachialo_hit.wav,p07,pachialo,hit,pa-cha-lo,pa-chia-lo,pa-chi-a-lo, ,-0.351851852,-0.093518504,1,0,0,2.4115,text_option_1,,0,186,186,160,1
5f622aea193f690eebfe422a,63f3cfca20052e4ae7554ebf,6453cbe322426d180ef9503e,2023-05-04_17h15.14.185,ga_syllabified_check,2022.2.5,Win32,60.0276127,,,,,,,,,,,,,,./stim/p03_syllable_1_lakabiaisto_hit.wav,p03,lakabiaisto,hit,la-ka-biais-to,la-ka-biais-to,la-ka-bi-ais-to,la-ka-bia-is-to,-0.359259252,-0.102777764,1,0,0,1.8769,text_option_1,,0,187,187,6,1
5f622aea193f690eebfe422a,63f3cfca20052e4ae7554ebf,6453cbe322426d180ef9503e,2023-05-04_17h15.14.185,ga_syllabified_check,2022.2.5,Win32,60.0276127,,,,,,,,,,,,,,./stim/p05_syllable_1_rausto_hit.wav,p05,rausto,hit,raus-to,raus-to,ra-us-to, ,-0.359259252,-0.102777764,1,0,0,0.2657,text_option_1,,0,188,188,99,1
5f622aea193f690eebfe422a,63f3cfca20052e4ae7554ebf,6453cbe322426d180ef9503e,2023-05-04_17h15.14.185,ga_syllabified_check,2022.2.5,Win32,60.0276127,,,,,,,,,,,,,,./stim/p04_syllable_1_lakapiaisto_hit.wav,p04,lakapiaisto,hit,la-ka-piais-to,la-ka-piais-to,la-ka-pi-ais-to,la-ka-pia-is-to,-0.349999993,-0.101851852,1,0,0,1.778,text_option_1,,0,189,189,50,1
5f622aea193f690eebfe422a,63f3cfca20052e4ae7554ebf,6453cbe322426d180ef9503e,2023-05-04_17h15.14.185,ga_syllabified_check,2022.2.5,Win32,60.0276127,,,,,,,,,,,,,,./stim/p05_syllable_1_lakagiaisto_hit.wav,p05,lakagiaisto,hit,la-ka-ki-ais-to,la-ka-giais-to,la-ka-gi-ais-to,la-ka-gia-is-to,-0.355555534,-0.108333376,1,0,0,2.7995,text_option_1,,0,190,190,80,1
5f622aea193f690eebfe422a,63f3cfca20052e4ae7554ebf,6453cbe322426d180ef9503e,2023-05-04_17h15.14.185,ga_syllabified_check,2022.2.5,Win32,60.0276127,,,,,,,,,,,,,,./stim/p03_syllable_1_palutrauco_hit.wav,p03,palutrauco,hit,pa-lu-trau-co,pa-lu-trau-co,pa-lu-tra-u-co, ,-0.324999986,-0.095370399,1,0,0,1.3993,text_option_1,,0,191,191,29,1
5f622aea193f690eebfe422a,63f3cfca20052e4ae7554ebf,6453cbe322426d180ef9503e,2023-05-04_17h15.14.185,ga_syllabified_check,2022.2.5,Win32,60.0276127,,,,,,,,,,,,,,./stim/p07_syllable_1_ruyiola_hit.wav,p07,ruyiola,hit,ru-yio-la,ru-yio-la,ru-yi-o-la, ,-0.402777778,-0.109259288,1,0,0,1.1141,text_option_1,,0,192,192,168,1
5f622aea193f690eebfe422a,63f3cfca20052e4ae7554ebf,6453cbe322426d180ef9503e,2023-05-04_17h15.14.185,ga_syllabified_check,2022.2.5,Win32,60.0276127,,,,,,,,,,,,,,./stim/p04_syllable_1_paluguato_hit.wav,p04,paluguato,hit,pa-lu-gua,pa-lu-gua-to,pa-lu-gu-a-to, ,0.07222225,-0.301851838,1,0,0,4.6145,text_option_other,pa-lu-gua,0,193,193,61,1
5f622aea193f690eebfe422a,63f3cfca20052e4ae7554ebf,6453cbe322426d180ef9503e,2023-05-04_17h15.14.185,ga_syllabified_check,2022.2.5,Win32,60.0276127,,,,,,,,,,,,,,./stim/p06_syllable_1_lakafuaisto_hit.wav,p06,lakafuaisto,hit,la-ka-fu-a-is,la-ka-fuais-to,la-ka-fu-ais-to,la-ka-fua-is-to,0.059259273,-0.116666653,1,0,0,7.151,text_option_3,,0,194,194,113,1
5f622aea193f690eebfe422a,63f3cfca20052e4ae7554ebf,6453cbe322426d180ef9503e,2023-05-04_17h15.14.185,ga_syllabified_check,2022.2.5,Win32,60.0276127,,,,,,,,,,,,,,./stim/p04_syllable_1_nhiape_hit.wav,p04,ñiape,hit,nhia-pe,ñia-pe,ñi-a-pe, ,-0.390740748,-0.118518547,1,0,0,0.8502,text_option_1,,0,195,195,57,1
5f622aea193f690eebfe422a,63f3cfca20052e4ae7554ebf,6453cbe322426d180ef9503e,2023-05-04_17h15.14.185,ga_syllabified_check,2022.2.5,Win32,60.0276127,,,,,,,,,,,,,,./stim/p03_syllable_1_tuliafo_hit.wav,p03,tuliafo,hit,tu-lia-fo,tu-lia-fo,tu-li-a-fo, ,-0.390740748,-0.118518547,1,0,0,1.1345,text_option_1,,0,196,196,33,1
5f622aea193f690eebfe422a,63f3cfca20052e4ae7554ebf,6453cbe322426d180ef9503e,2023-05-04_17h15.14.185,ga_syllabified_check,2022.2.5,Win32,60.0276127,,,,,,,,,,,,,,./stim/p06_syllable_1_palumaisto_hit.wav,p06,palumaisto,hit,pa-lu-ma-is-to,pa-lu-mais-to,pa-lu-ma-is-to, ,0.410185213,-0.113888917,1,0,0,3.9338,text_option_2,,0,197,197,130,1
5f622aea193f690eebfe422a,63f3cfca20052e4ae7554ebf,6453cbe322426d180ef9503e,2023-05-04_17h15.14.185,ga_syllabified_check,2022.2.5,Win32,60.0276127,,,,,,,,,,,,,,./stim/p03_syllable_1_lakaguaisto_hit.wav,p03,lakaguaisto,hit,la-ka-guais-to,la-ka-guais-to,la-ka-gu-ais-to,la-ka-gua-is-to,-0.349074081,-0.095370399,1,0,0,2.9141,text_option_1,,0,198,198,13,1
5f622aea193f690eebfe422a,63f3cfca20052e4ae7554ebf,6453cbe322426d180ef9503e,2023-05-04_17h15.14.185,ga_syllabified_check,2022.2.5,Win32,60.0276127,,,,,,,,,,,,,,./stim/p08_syllable_1_lakapuaisto_hit.wav,p08,lakapuaisto,hit,la-ka-pu-as-to,la-ka-puais-to,la-ka-pu-ais-to,la-ka-pua-is-to,0.014814801,-0.309259273,1,0,0,6.9662,text_option_other,la-ka-pu-as-to,0,199,199,187,1
5f622aea193f690eebfe422a,63f3cfca20052e4ae7554ebf,6453cbe322426d180ef9503e,2023-05-04_17h15.14.185,ga_syllabified_check,2022.2.5,Win32,60.0276127,,,,,,,,,,,,,,./stim/p05_syllable_1_lakafuaisto_hit.wav,p05,lakafuaisto,hit,la-ka-fais-to,la-ka-fuais-to,la-ka-fu-ais-to,la-ka-fua-is-to,0.041666667,-0.300000014,1,0,0,3.0339,text_option_other,la-ka-fais-to,0,200,200,79,1
5f622aea193f690eebfe422a,63f3cfca20052e4ae7554ebf,6453cbe322426d180ef9503e,2023-05-04_17h15.14.185,ga_syllabified_check,2022.2.5,Win32,60.0276127,,,,,,,,,,,,,,./stim/p05_syllable_1_palutrauco_hit.wav,p05,palutrauco,hit,pa-lu-trai-co,pa-lu-trau-co,pa-lu-tra-u-co, ,0.030555584,-0.301851838,1,0,0,3.9342,text_option_other,pa-lu-trai-co,0,201,201,97,1
5f622aea193f690eebfe422a,63f3cfca20052e4ae7554ebf,6453cbe322426d180ef9503e,2023-05-04_17h15.14.185,ga_syllabified_check,2022.2.5,Win32,60.0276127,,,,,,,,,,,,,,./stim/p05_syllable_1_chiaba_hit.wav,p05,chiaba,hit,chia-ba,chia-ba,chi-a-ba, ,0.025925954,-0.305555556,1,0,0,1.6499,text_option_other,chai-ba,0,202,202,68,1
5f622aea193f690eebfe422a,63f3cfca20052e4ae7554ebf,6453cbe322426d180ef9503e,2023-05-04_17h15.14.185,ga_syllabified_check,2022.2.5,Win32,60.0276127,,,,,,,,,,,,,,./stim/p07_syllable_1_costonhialo_hit.wav,p07,costoñialo,hit,cos-to-nhia-lo,cos-to-ñia-lo,cos-to-ñi-a-lo, ,-0.349074081,-0.109259288,1,0,0,2.3276,text_option_1,,0,203,203,137,1
5f622aea193f690eebfe422a,63f3cfca20052e4ae7554ebf,6453cbe322426d180ef9503e,2023-05-04_17h15.14.185,ga_syllabified_check,2022.2.5,Win32,60.0276127,,,,,,,,,,,,,,,,,,,,,,,,,,,,,,,,,,
