participant,study,session,date,expName,psychopyVersion,OS,frameRate,mouse_practice.x,mouse_practice.y,mouse_practice.leftButton,mouse_practice.midButton,mouse_practice.rightButton,mouse_practice.time,mouse_practice.clicked_name,textbox_followup_practice.text,trials_practice.thisRepN,trials_practice.thisTrialN,trials_practice.thisN,trials_practice.thisIndex,trials_practice.ran,file_path,id,item,status,response,op1,op2,op3,mouse.x,mouse.y,mouse.leftButton,mouse.midButton,mouse.rightButton,mouse.time,mouse.clicked_name,textbox_followup.text,trials.thisRepN,trials.thisTrialN,trials.thisN,trials.thisIndex,trials.ran
5f6677f7035c6c267ea50fed,63f3cfca20052e4ae7554ebf,6453cba451d54e749fcc0a00,2023-05-04_17h14.07.767,ga_syllabified_check,2022.2.5,Win32,59.56635692,,,,,,,,,,,,,,,,,,,,,,,,,,,,,,,,,,
5f6677f7035c6c267ea50fed,63f3cfca20052e4ae7554ebf,6453cba451d54e749fcc0a00,2023-05-04_17h14.07.767,ga_syllabified_check,2022.2.5,Win32,59.56635692,-0.446472197,-0.108018069,1,0,0,3.6001,text_option_1_practice,,0,0,0,0,1,./stim/p03_syllable_1_liamo_hit.wav,p03,liamo,hit,lia-mo,lia-mo,li-a-mo, ,,,,,,,,,,,,,
5f6677f7035c6c267ea50fed,63f3cfca20052e4ae7554ebf,6453cba451d54e749fcc0a00,2023-05-04_17h14.07.767,ga_syllabified_check,2022.2.5,Win32,59.56635692,-0.37706374,-0.093210964,1,0,0,1.1168,text_option_1_practice,,0,1,1,1,1,./stim/p05_syllable_1_matio_hit.wav,p05,matio,hit,ma-tio,ma-tio,ma-ti-o, ,,,,,,,,,,,,,
5f6677f7035c6c267ea50fed,63f3cfca20052e4ae7554ebf,6453cba451d54e749fcc0a00,2023-05-04_17h14.07.767,ga_syllabified_check,2022.2.5,Win32,59.56635692,-0.358554814,-0.109868979,1,0,0,2.6333,text_option_1_practice,,0,2,2,2,1,./stim/p08_syllable_1_liamo_hit.wav,p08,liamo,hit,ja-mo,lia-mo,li-a-mo, ,,,,,,,,,,,,,
5f6677f7035c6c267ea50fed,63f3cfca20052e4ae7554ebf,6453cba451d54e749fcc0a00,2023-05-04_17h14.07.767,ga_syllabified_check,2022.2.5,Win32,59.56635692,,,,,,,,,,,,,,,,,,,,,,,,,,,,,,,,,,
5f6677f7035c6c267ea50fed,63f3cfca20052e4ae7554ebf,6453cba451d54e749fcc0a00,2023-05-04_17h14.07.767,ga_syllabified_check,2022.2.5,Win32,59.56635692,,,,,,,,,,,,,,./stim/p05_syllable_1_lakafiaisto_hit.wav,p05,lakafiaisto,hit,la-ka-fi-ais-to,la-ka-fiais-to,la-ka-fi-ais-to,la-ka-fia-is-to,0.01810177,-0.108943524,1,0,0,4.0005,text_option_3,,0,0,0,78,1
5f6677f7035c6c267ea50fed,63f3cfca20052e4ae7554ebf,6453cba451d54e749fcc0a00,2023-05-04_17h14.07.767,ga_syllabified_check,2022.2.5,Win32,59.56635692,,,,,,,,,,,,,,./stim/p03_syllable_1_pachialo_hit.wav,p03,pachialo,hit,pa-chia-lo,pa-chia-lo,pa-chi-a-lo, ,-0.437217734,-0.104316308,1,0,0,3.4877,text_option_1,,0,1,1,24,1
5f6677f7035c6c267ea50fed,63f3cfca20052e4ae7554ebf,6453cba451d54e749fcc0a00,2023-05-04_17h14.07.767,ga_syllabified_check,2022.2.5,Win32,59.56635692,,,,,,,,,,,,,,./stim/p05_syllable_1_pachialo_hit.wav,p05,pachialo,hit,pan-chia-lo,pa-chia-lo,pa-chi-a-lo, ,0.428074386,-0.108943524,1,0,0,4.5086,text_option_2,,0,2,2,92,1
5f6677f7035c6c267ea50fed,63f3cfca20052e4ae7554ebf,6453cba451d54e749fcc0a00,2023-05-04_17h14.07.767,ga_syllabified_check,2022.2.5,Win32,59.56635692,,,,,,,,,,,,,,./stim/p07_syllable_1_mebochiana_hit.wav,p07,mebochiana,hit,me-bo-chia-na,me-bo-chia-na,me-bo-chi-a-na, ,-0.313207926,-0.109868979,1,0,0,4.2003,text_option_1,,0,3,3,158,1
5f6677f7035c6c267ea50fed,63f3cfca20052e4ae7554ebf,6453cba451d54e749fcc0a00,2023-05-04_17h14.07.767,ga_syllabified_check,2022.2.5,Win32,59.56635692,,,,,,,,,,,,,,./stim/p08_syllable_1_lakatiaisto_hit.wav,p08,lakatiaisto,hit,la-ka-ti-as-to,la-ka-tiais-to,la-ka-ti-ais-to,la-ka-tia-is-to,-0.340045889,-0.108943524,1,0,0,8.3834,text_option_1,,0,4,4,188,1
5f6677f7035c6c267ea50fed,63f3cfca20052e4ae7554ebf,6453cba451d54e749fcc0a00,2023-05-04_17h14.07.767,ga_syllabified_check,2022.2.5,Win32,59.56635692,,,,,,,,,,,,,,./stim/p04_syllable_1_lakagiaisto_hit.wav,p04,lakagiaisto,hit,la-ka-giais-to,la-ka-giais-to,la-ka-gi-ais-to,la-ka-gia-is-to,-0.328940545,-0.110794435,1,0,0,3.4667,text_option_1,,0,5,5,46,1
5f6677f7035c6c267ea50fed,63f3cfca20052e4ae7554ebf,6453cba451d54e749fcc0a00,2023-05-04_17h14.07.767,ga_syllabified_check,2022.2.5,Win32,59.56635692,,,,,,,,,,,,,,./stim/p08_syllable_1_manhiala_hit.wav,p08,mañiala,hit,ma-nhia-la,ma-ñia-la,ma-ñi-a-la, ,-0.349300322,-0.11171989,1,0,0,2.8668,text_option_1,,0,6,6,191,1
5f6677f7035c6c267ea50fed,63f3cfca20052e4ae7554ebf,6453cba451d54e749fcc0a00,2023-05-04_17h14.07.767,ga_syllabified_check,2022.2.5,Win32,59.56635692,,,,,,,,,,,,,,./stim/p07_syllable_1_lakabuaisto_hit.wav,p07,lakabuaisto,hit,la-ka-buais-to,la-ka-buais-to,la-ka-bu-ais-to,la-ka-bua-is-to,-0.346524016,-0.097838181,1,0,0,3.1839,text_option_1,,0,7,7,143,1
5f6677f7035c6c267ea50fed,63f3cfca20052e4ae7554ebf,6453cba451d54e749fcc0a00,2023-05-04_17h14.07.767,ga_syllabified_check,2022.2.5,Win32,59.56635692,,,,,,,,,,,,,,./stim/p03_syllable_1_faluduako_hit.wav,p03,faluduako,hit,fa-lu-dua-ko,fa-lu-dua-ko,fa-lu-du-a-ko, ,-0.322462418,-0.101539942,1,0,0,1.6834,text_option_1,,0,8,8,2,1
5f6677f7035c6c267ea50fed,63f3cfca20052e4ae7554ebf,6453cba451d54e749fcc0a00,2023-05-04_17h14.07.767,ga_syllabified_check,2022.2.5,Win32,59.56635692,,,,,,,,,,,,,,./stim/p04_syllable_1_costonhialo_hit.wav,p04,costoñialo,hit,cos-to-nhia-lo,cos-to-ñia-lo,cos-to-ñi-a-lo, ,-0.333567762,-0.100614487,1,0,0,3.2,text_option_1,,0,9,9,35,1
5f6677f7035c6c267ea50fed,63f3cfca20052e4ae7554ebf,6453cba451d54e749fcc0a00,2023-05-04_17h14.07.767,ga_syllabified_check,2022.2.5,Win32,59.56635692,,,,,,,,,,,,,,./stim/p08_syllable_1_lakabiaisto_hit.wav,p08,lakabiaisto,hit,la-ka-bi-as-to,la-ka-biais-to,la-ka-bi-ais-to,la-ka-bia-is-to,0.435477909,-0.106167218,1,0,0,9.429,text_option_2,,0,10,10,176,1
5f6677f7035c6c267ea50fed,63f3cfca20052e4ae7554ebf,6453cba451d54e749fcc0a00,2023-05-04_17h14.07.767,ga_syllabified_check,2022.2.5,Win32,59.56635692,,,,,,,,,,,,,,./stim/p06_syllable_1_paluguato_hit.wav,p06,paluguato,hit,pa-lu-gua-to,pa-lu-gua-to,pa-lu-gu-a-to, ,-0.401125338,-0.09598727,1,0,0,3.2791,text_option_1,,0,11,11,129,1
5f6677f7035c6c267ea50fed,63f3cfca20052e4ae7554ebf,6453cba451d54e749fcc0a00,2023-05-04_17h14.07.767,ga_syllabified_check,2022.2.5,Win32,59.56635692,,,,,,,,,,,,,,./stim/p04_syllable_1_lakafuaisto_hit.wav,p04,lakafuaisto,hit,la-ka-fuais-to,la-ka-fuais-to,la-ka-fu-ais-to,la-ka-fua-is-to,-0.322462418,-0.105241763,1,0,0,3.1628,text_option_1,,0,12,12,45,1
5f6677f7035c6c267ea50fed,63f3cfca20052e4ae7554ebf,6453cba451d54e749fcc0a00,2023-05-04_17h14.07.767,ga_syllabified_check,2022.2.5,Win32,59.56635692,,,,,,,,,,,,,,./stim/p03_syllable_1_lakatiaisto_hit.wav,p03,lakatiaisto,hit,la-ka-tiais-to,la-ka-tiais-to,la-ka-ti-ais-to,la-ka-tia-is-to,-0.330791396,-0.110794435,1,0,0,4.9835,text_option_1,,0,13,13,18,1
5f6677f7035c6c267ea50fed,63f3cfca20052e4ae7554ebf,6453cba451d54e749fcc0a00,2023-05-04_17h14.07.767,ga_syllabified_check,2022.2.5,Win32,59.56635692,,,,,,,,,,,,,,./stim/p07_syllable_1_lakadiaisto_hit.wav,p07,lakadiaisto,hit,la-ka-dia-is-to,la-ka-diais-to,la-ka-di-ais-to,la-ka-dia-is-to,-0.045754044,-0.104316308,1,0,0,3.8334,text_option_3,,0,14,14,144,1
5f6677f7035c6c267ea50fed,63f3cfca20052e4ae7554ebf,6453cba451d54e749fcc0a00,2023-05-04_17h14.07.767,ga_syllabified_check,2022.2.5,Win32,59.56635692,,,,,,,,,,,,,,./stim/p03_syllable_1_lakatuaisto_hit.wav,p03,lakatuaisto,hit,la-ka-tuais-to,la-ka-tuais-to,la-ka-tu-ais-to,la-ka-tua-is-to,-0.359480269,-0.104316308,1,0,0,2.9586,text_option_1,,0,15,15,19,1
5f6677f7035c6c267ea50fed,63f3cfca20052e4ae7554ebf,6453cba451d54e749fcc0a00,2023-05-04_17h14.07.767,ga_syllabified_check,2022.2.5,Win32,59.56635692,,,,,,,,,,,,,,./stim/p07_syllable_1_paluguato_hit.wav,p07,paluguato,hit,pa-lu-gua-to,pa-lu-gua-to,pa-lu-gu-a-to, ,-0.353927598,-0.097838181,1,0,0,3.0836,text_option_1,,0,16,16,163,1
5f6677f7035c6c267ea50fed,63f3cfca20052e4ae7554ebf,6453cba451d54e749fcc0a00,2023-05-04_17h14.07.767,ga_syllabified_check,2022.2.5,Win32,59.56635692,,,,,,,,,,,,,,./stim/p08_syllable_1_palutrauco_hit.wav,p08,palutrauco,hit,pa-lu-trau-ko,pa-lu-trau-co,pa-lu-tra-u-co, ,-0.321536963,-0.108943524,1,0,0,2.6499,text_option_1,,0,17,17,199,1
5f6677f7035c6c267ea50fed,63f3cfca20052e4ae7554ebf,6453cba451d54e749fcc0a00,2023-05-04_17h14.07.767,ga_syllabified_check,2022.2.5,Win32,59.56635692,,,,,,,,,,,,,,./stim/p03_syllable_1_palutrauco_hit.wav,p03,palutrauco,hit,pa-lu-trau-co,pa-lu-trau-co,pa-lu-tra-u-co, ,-0.328940545,-0.11171989,1,0,0,1.2668,text_option_1,,0,18,18,29,1
5f6677f7035c6c267ea50fed,63f3cfca20052e4ae7554ebf,6453cba451d54e749fcc0a00,2023-05-04_17h14.07.767,ga_syllabified_check,2022.2.5,Win32,59.56635692,,,,,,,,,,,,,,./stim/p07_syllable_1_lakatuaisto_hit.wav,p07,lakatuaisto,hit,la-ka-tuais-to,la-ka-tuais-to,la-ka-tu-ais-to,la-ka-tua-is-to,-0.330791396,-0.107092614,1,0,0,2.5832,text_option_1,,0,19,19,155,1
5f6677f7035c6c267ea50fed,63f3cfca20052e4ae7554ebf,6453cba451d54e749fcc0a00,2023-05-04_17h14.07.767,ga_syllabified_check,2022.2.5,Win32,59.56635692,,,,,,,,,,,,,,./stim/p07_syllable_1_palumaisto_hit.wav,p07,palumaisto,hit,pa-lu-mais-to,pa-lu-mais-to,pa-lu-ma-is-to, ,-0.303028037,-0.105241763,1,0,0,3.1124,text_option_1,,0,20,20,164,1
5f6677f7035c6c267ea50fed,63f3cfca20052e4ae7554ebf,6453cba451d54e749fcc0a00,2023-05-04_17h14.07.767,ga_syllabified_check,2022.2.5,Win32,59.56635692,,,,,,,,,,,,,,./stim/p05_syllable_1_chiaba_hit.wav,p05,chiaba,hit,chia-ba,chia-ba,chi-a-ba, ,0.357740503,-0.115421651,1,0,0,3.9961,text_option_2,,0,21,21,68,1
5f6677f7035c6c267ea50fed,63f3cfca20052e4ae7554ebf,6453cba451d54e749fcc0a00,2023-05-04_17h14.07.767,ga_syllabified_check,2022.2.5,Win32,59.56635692,,,,,,,,,,,,,,./stim/p05_syllable_1_lakaguaisto_hit.wav,p05,lakaguaisto,hit,la-ka-gais,la-ka-guais-to,la-ka-gu-ais-to,la-ka-gua-is-to,-0.458502996,-0.097838181,1,0,0,4.4501,text_option_1,,0,22,22,81,1
5f6677f7035c6c267ea50fed,63f3cfca20052e4ae7554ebf,6453cba451d54e749fcc0a00,2023-05-04_17h14.07.767,ga_syllabified_check,2022.2.5,Win32,59.56635692,,,,,,,,,,,,,,./stim/p03_syllable_1_payielo_hit.wav,p03,payielo,hit,pa-yie-lo,pa-yie-lo,pa-yi-e-lo, ,-0.4048271,-0.099689091,1,0,0,2.0666,text_option_1,,0,23,23,30,1
5f6677f7035c6c267ea50fed,63f3cfca20052e4ae7554ebf,6453cba451d54e749fcc0a00,2023-05-04_17h14.07.767,ga_syllabified_check,2022.2.5,Win32,59.56635692,,,,,,,,,,,,,,./stim/p04_syllable_1_manhiala_hit.wav,p04,mañiala,hit,ma-nhia-la,ma-ñia-la,ma-ñi-a-la, ,-0.407603435,-0.112645345,1,0,0,1.4707,text_option_1,,0,24,24,55,1
5f6677f7035c6c267ea50fed,63f3cfca20052e4ae7554ebf,6453cba451d54e749fcc0a00,2023-05-04_17h14.07.767,ga_syllabified_check,2022.2.5,Win32,59.56635692,,,,,,,,,,,,,,./stim/p04_syllable_1_lakakuaisto_hit.wav,p04,lakakuaisto,hit,la-ka-kuais-to,la-ka-kuais-to,la-ka-ku-ais-to,la-ka-kua-is-to,-0.383541867,-0.109868979,1,0,0,3.0834,text_option_1,,0,25,25,49,1
5f6677f7035c6c267ea50fed,63f3cfca20052e4ae7554ebf,6453cba451d54e749fcc0a00,2023-05-04_17h14.07.767,ga_syllabified_check,2022.2.5,Win32,59.56635692,,,,,,,,,,,,,,./stim/p06_syllable_1_falufaisto_hit.wav,p06,falufaisto,hit,fa-lu-fa-is-to,fa-lu-fais-to,fa-lu-fa-is-to, ,0.340156974,-0.109868979,1,0,0,2.6833,text_option_2,,0,26,26,105,1
5f6677f7035c6c267ea50fed,63f3cfca20052e4ae7554ebf,6453cba451d54e749fcc0a00,2023-05-04_17h14.07.767,ga_syllabified_check,2022.2.5,Win32,59.56635692,,,,,,,,,,,,,,./stim/p06_syllable_1_lakabiaisto_hit.wav,p06,lakabiaisto,hit,la-ka-bia-is-to,la-ka-biais-to,la-ka-bi-ais-to,la-ka-bia-is-to,0.006070971,-0.098763636,1,0,0,5.5833,text_option_3,,0,27,27,108,1
5f6677f7035c6c267ea50fed,63f3cfca20052e4ae7554ebf,6453cba451d54e749fcc0a00,2023-05-04_17h14.07.767,ga_syllabified_check,2022.2.5,Win32,59.56635692,,,,,,,,,,,,,,./stim/p04_syllable_1_flauro_hit.wav,p04,flauro,hit,flau-ro,flau-ro,fla-u-ro, ,-0.440919496,-0.097838181,1,0,0,1.3665,text_option_1,,0,28,28,39,1
5f6677f7035c6c267ea50fed,63f3cfca20052e4ae7554ebf,6453cba451d54e749fcc0a00,2023-05-04_17h14.07.767,ga_syllabified_check,2022.2.5,Win32,59.56635692,,,,,,,,,,,,,,./stim/p08_syllable_1_lakatuaisto_hit.wav,p08,lakatuaisto,hit,la-ka-tu-i-jis,la-ka-tuais-to,la-ka-tu-ais-to,la-ka-tua-is-to,-0.067039277,-0.117272562,1,0,0,6.7,text_option_3,,0,29,29,189,1
5f6677f7035c6c267ea50fed,63f3cfca20052e4ae7554ebf,6453cba451d54e749fcc0a00,2023-05-04_17h14.07.767,ga_syllabified_check,2022.2.5,Win32,59.56635692,,,,,,,,,,,,,,./stim/p06_syllable_1_tuliafo_hit.wav,p06,tuliafo,hit,tu-li-a-fo,tu-lia-fo,tu-li-a-fo, ,0.404012788,-0.101539942,1,0,0,1.9,text_option_2,,0,30,30,135,1
5f6677f7035c6c267ea50fed,63f3cfca20052e4ae7554ebf,6453cba451d54e749fcc0a00,2023-05-04_17h14.07.767,ga_syllabified_check,2022.2.5,Win32,59.56635692,,,,,,,,,,,,,,./stim/p05_syllable_1_manhiala_hit.wav,p05,mañiala,hit,ma-nhia-la,ma-ñia-la,ma-ñi-a-la, ,0.411416312,-0.107092614,1,0,0,2.7335,text_option_2,,0,31,31,89,1
5f6677f7035c6c267ea50fed,63f3cfca20052e4ae7554ebf,6453cba451d54e749fcc0a00,2023-05-04_17h14.07.767,ga_syllabified_check,2022.2.5,Win32,59.56635692,,,,,,,,,,,,,,./stim/p03_syllable_1_lakaguaisto_hit.wav,p03,lakaguaisto,hit,la-ka-guais-to,la-ka-guais-to,la-ka-gu-ais-to,la-ka-gua-is-to,-0.333567762,-0.100614487,1,0,0,1.9669,text_option_1,,0,32,32,13,1
5f6677f7035c6c267ea50fed,63f3cfca20052e4ae7554ebf,6453cba451d54e749fcc0a00,2023-05-04_17h14.07.767,ga_syllabified_check,2022.2.5,Win32,59.56635692,,,,,,,,,,,,,,./stim/p05_syllable_1_lakabuaisto_hit.wav,p05,lakabuaisto,hit,la-ka-buais-to,la-ka-buais-to,la-ka-bu-ais-to,la-ka-bua-is-to,-0.32801509,-0.108018069,1,0,0,1.6,text_option_1,,0,33,33,75,1
5f6677f7035c6c267ea50fed,63f3cfca20052e4ae7554ebf,6453cba451d54e749fcc0a00,2023-05-04_17h14.07.767,ga_syllabified_check,2022.2.5,Win32,59.56635692,,,,,,,,,,,,,,./stim/p08_syllable_1_costonhialo_hit.wav,p08,costoñialo,hit,cos-to-nhia-lo,cos-to-ñia-lo,cos-to-ñi-a-lo, ,-0.397423547,-0.09598727,1,0,0,2.1167,text_option_1,,0,34,34,171,1
5f6677f7035c6c267ea50fed,63f3cfca20052e4ae7554ebf,6453cba451d54e749fcc0a00,2023-05-04_17h14.07.767,ga_syllabified_check,2022.2.5,Win32,59.56635692,,,,,,,,,,,,,,./stim/p08_syllable_1_lliape_hit.wav,p08,lliape,hit,li-a-pe,llia-pe,lli-a-pe, ,0.372547667,-0.106167218,1,0,0,2.0334,text_option_2,,0,35,35,190,1
5f6677f7035c6c267ea50fed,63f3cfca20052e4ae7554ebf,6453cba451d54e749fcc0a00,2023-05-04_17h14.07.767,ga_syllabified_check,2022.2.5,Win32,59.56635692,,,,,,,,,,,,,,./stim/p03_syllable_1_nhiape_hit.wav,p03,ñiape,hit,nhia-pe,ñia-pe,ñi-a-pe, ,-0.397423547,-0.101539942,1,0,0,0.95,text_option_1,,0,36,36,23,1
5f6677f7035c6c267ea50fed,63f3cfca20052e4ae7554ebf,6453cba451d54e749fcc0a00,2023-05-04_17h14.07.767,ga_syllabified_check,2022.2.5,Win32,59.56635692,,,,,,,,,,,,,,./stim/p06_syllable_1_lakatuaisto_hit.wav,p06,lakatuaisto,hit,la-ka-tu-a-is,la-ka-tuais-to,la-ka-tu-ais-to,la-ka-tua-is-to,-0.027245119,-0.302361761,1,0,0,6.8665,text_option_other,la-ka-tu-a-is-to,0,37,37,121,1
5f6677f7035c6c267ea50fed,63f3cfca20052e4ae7554ebf,6453cba451d54e749fcc0a00,2023-05-04_17h14.07.767,ga_syllabified_check,2022.2.5,Win32,59.56635692,,,,,,,,,,,,,,./stim/p06_syllable_1_palutrauco_hit.wav,p06,palutrauco,hit,pa-lu-tra-u-co,pa-lu-trau-co,pa-lu-tra-u-co, ,0.352187773,-0.107092614,1,0,0,2.6636,text_option_2,,0,38,38,131,1
5f6677f7035c6c267ea50fed,63f3cfca20052e4ae7554ebf,6453cba451d54e749fcc0a00,2023-05-04_17h14.07.767,ga_syllabified_check,2022.2.5,Win32,59.56635692,,,,,,,,,,,,,,./stim/p07_syllable_1_lakaguaisto_hit.wav,p07,lakaguaisto,hit,la-ka-guais-to,la-ka-guais-to,la-ka-gu-ais-to,la-ka-gua-is-to,-0.360405783,-0.109868979,1,0,0,4.1133,text_option_1,,0,39,39,149,1
5f6677f7035c6c267ea50fed,63f3cfca20052e4ae7554ebf,6453cba451d54e749fcc0a00,2023-05-04_17h14.07.767,ga_syllabified_check,2022.2.5,Win32,59.56635692,,,,,,,,,,,,,,./stim/p05_syllable_1_lakabiaisto_hit.wav,p05,lakabiaisto,hit,la-ka-bi-ais-to,la-ka-biais-to,la-ka-bi-ais-to,la-ka-bia-is-to,-0.331716851,-0.098763636,1,0,0,3.3003,text_option_1,,0,40,40,74,1
5f6677f7035c6c267ea50fed,63f3cfca20052e4ae7554ebf,6453cba451d54e749fcc0a00,2023-05-04_17h14.07.767,ga_syllabified_check,2022.2.5,Win32,59.56635692,,,,,,,,,,,,,,./stim/p05_syllable_1_rausto_hit.wav,p05,rausto,hit,raus-to,raus-to,ra-us-to, ,-0.341896799,-0.101539942,1,0,0,2.2,text_option_1,,0,41,41,99,1
5f6677f7035c6c267ea50fed,63f3cfca20052e4ae7554ebf,6453cba451d54e749fcc0a00,2023-05-04_17h14.07.767,ga_syllabified_check,2022.2.5,Win32,59.56635692,,,,,,,,,,,,,,./stim/p06_syllable_1_palufauto_hit.wav,p06,palufauto,hit,pa-lu-fau-to,pa-lu-fau-to,pa-lu-fa-u-to, ,-0.429814152,-0.114496196,1,0,0,3.0501,text_option_1,,0,42,42,128,1
5f6677f7035c6c267ea50fed,63f3cfca20052e4ae7554ebf,6453cba451d54e749fcc0a00,2023-05-04_17h14.07.767,ga_syllabified_check,2022.2.5,Win32,59.56635692,,,,,,,,,,,,,,./stim/p04_syllable_1_lakatiaisto_hit.wav,p04,lakatiaisto,hit,la-ka-kiais-to,la-ka-tiais-to,la-ka-ti-ais-to,la-ka-tia-is-to,-0.324313328,-0.094136419,1,0,0,1.2961,text_option_1,,0,43,43,52,1
5f6677f7035c6c267ea50fed,63f3cfca20052e4ae7554ebf,6453cba451d54e749fcc0a00,2023-05-04_17h14.07.767,ga_syllabified_check,2022.2.5,Win32,59.56635692,,,,,,,,,,,,,,./stim/p04_syllable_1_paluguato_hit.wav,p04,paluguato,hit,pa-lu-gua,pa-lu-gua-to,pa-lu-gu-a-to, ,-0.349300322,-0.108018069,1,0,0,5.2295,text_option_1,,0,44,44,61,1
5f6677f7035c6c267ea50fed,63f3cfca20052e4ae7554ebf,6453cba451d54e749fcc0a00,2023-05-04_17h14.07.767,ga_syllabified_check,2022.2.5,Win32,59.56635692,,,,,,,,,,,,,,./stim/p06_syllable_1_flauro_hit.wav,p06,flauro,hit,fla-u-ro,flau-ro,fla-u-ro, ,0.367920392,-0.122825233,1,0,0,1.9333,text_option_2,,0,45,45,107,1
5f6677f7035c6c267ea50fed,63f3cfca20052e4ae7554ebf,6453cba451d54e749fcc0a00,2023-05-04_17h14.07.767,ga_syllabified_check,2022.2.5,Win32,59.56635692,,,,,,,,,,,,,,./stim/p03_syllable_1_rausto_hit.wav,p03,rausto,hit,raus-to,raus-to,ra-us-to, ,-0.398349002,-0.104316308,1,0,0,2.4669,text_option_1,,0,46,46,31,1
5f6677f7035c6c267ea50fed,63f3cfca20052e4ae7554ebf,6453cba451d54e749fcc0a00,2023-05-04_17h14.07.767,ga_syllabified_check,2022.2.5,Win32,59.56635692,,,,,,,,,,,,,,./stim/p06_syllable_1_faluduako_hit.wav,p06,faluduako,hit,fa-lu-dua-ko,fa-lu-dua-ko,fa-lu-du-a-ko, ,0.43917973,-0.103390852,1,0,0,3.2625,text_option_2,,0,47,47,104,1
5f6677f7035c6c267ea50fed,63f3cfca20052e4ae7554ebf,6453cba451d54e749fcc0a00,2023-05-04_17h14.07.767,ga_syllabified_check,2022.2.5,Win32,59.56635692,,,,,,,,,,,,,,./stim/p08_syllable_1_ruyiola_hit.wav,p08,ruyiola,hit,ru-yio-la,ru-yio-la,ru-yi-o-la, ,-0.415007018,-0.090434599,1,0,0,1.7168,text_option_1,,0,48,48,202,1
5f6677f7035c6c267ea50fed,63f3cfca20052e4ae7554ebf,6453cba451d54e749fcc0a00,2023-05-04_17h14.07.767,ga_syllabified_check,2022.2.5,Win32,59.56635692,,,,,,,,,,,,,,./stim/p04_syllable_1_palufauro_hit.wav,p04,palufauro,hit,pa-lu-fau-ro,pa-lu-fau-ro,pa-lu-fa-u-ro, ,-0.422410629,-0.091360054,1,0,0,2.5501,text_option_1,,0,49,49,59,1
5f6677f7035c6c267ea50fed,63f3cfca20052e4ae7554ebf,6453cba451d54e749fcc0a00,2023-05-04_17h14.07.767,ga_syllabified_check,2022.2.5,Win32,59.56635692,,,,,,,,,,,,,,./stim/p03_syllable_1_chiaba_hit.wav,p03,chiaba,hit,chia-ba,chia-ba,chi-a-ba, ,-0.366883793,-0.103390852,1,0,0,5.167,text_option_1,,0,50,50,0,1
5f6677f7035c6c267ea50fed,63f3cfca20052e4ae7554ebf,6453cba451d54e749fcc0a00,2023-05-04_17h14.07.767,ga_syllabified_check,2022.2.5,Win32,59.56635692,,,,,,,,,,,,,,./stim/p03_syllable_1_palumaisto_hit.wav,p03,palumaisto,hit,pa-lu-mais-to,pa-lu-mais-to,pa-lu-ma-is-to, ,-0.352076687,-0.099689091,1,0,0,1.6,text_option_1,,0,51,51,28,1
5f6677f7035c6c267ea50fed,63f3cfca20052e4ae7554ebf,6453cba451d54e749fcc0a00,2023-05-04_17h14.07.767,ga_syllabified_check,2022.2.5,Win32,59.56635692,,,,,,,,,,,,,,./stim/p08_syllable_1_lakafuaisto_hit.wav,p08,lakafuaisto,hit,la-ka-fju-ais-to,la-ka-fuais-to,la-ka-fu-ais-to,la-ka-fua-is-to,0.024579897,-0.108018069,1,0,0,5.1833,text_option_3,,0,52,52,181,1
5f6677f7035c6c267ea50fed,63f3cfca20052e4ae7554ebf,6453cba451d54e749fcc0a00,2023-05-04_17h14.07.767,ga_syllabified_check,2022.2.5,Win32,59.56635692,,,,,,,,,,,,,,./stim/p07_syllable_1_costonhialo_hit.wav,p07,costoñialo,hit,cos-to-nhia-lo,cos-to-ñia-lo,cos-to-ñi-a-lo, ,-0.427037816,-0.083031016,1,0,0,2.3667,text_option_1,,0,53,53,137,1
5f6677f7035c6c267ea50fed,63f3cfca20052e4ae7554ebf,6453cba451d54e749fcc0a00,2023-05-04_17h14.07.767,ga_syllabified_check,2022.2.5,Win32,59.56635692,,,,,,,,,,,,,,./stim/p08_syllable_1_mebochiana_hit.wav,p08,mebochiana,hit,me-bo-chi-a-na,me-bo-chia-na,me-bo-chi-a-na, ,0.321648107,-0.102465397,1,0,0,2.4833,text_option_2,,0,54,54,192,1
5f6677f7035c6c267ea50fed,63f3cfca20052e4ae7554ebf,6453cba451d54e749fcc0a00,2023-05-04_17h14.07.767,ga_syllabified_check,2022.2.5,Win32,59.56635692,,,,,,,,,,,,,,./stim/p05_syllable_1_faluduako_hit.wav,p05,faluduako,hit,fa-lu-ba-ko,fa-lu-dua-ko,fa-lu-du-a-ko, ,-0.402050764,-0.107092614,1,0,0,1.8,text_option_1,,0,55,55,70,1
5f6677f7035c6c267ea50fed,63f3cfca20052e4ae7554ebf,6453cba451d54e749fcc0a00,2023-05-04_17h14.07.767,ga_syllabified_check,2022.2.5,Win32,59.56635692,,,,,,,,,,,,,,./stim/p04_syllable_1_lakadiaisto_hit.wav,p04,lakadiaisto,hit,la-ka-dias-to,la-ka-diais-to,la-ka-di-ais-to,la-ka-dia-is-to,-0.320611508,-0.106167218,1,0,0,2.3166,text_option_1,,0,56,56,42,1
5f6677f7035c6c267ea50fed,63f3cfca20052e4ae7554ebf,6453cba451d54e749fcc0a00,2023-05-04_17h14.07.767,ga_syllabified_check,2022.2.5,Win32,59.56635692,,,,,,,,,,,,,,./stim/p07_syllable_1_falutraigo_hit.wav,p07,falutraigo,hit,fa-lu-trai-go,fa-lu-trai-go,fa-lu-tra-i-go, ,-0.331716851,-0.112645345,1,0,0,2.6499,text_option_1,,0,57,57,140,1
5f6677f7035c6c267ea50fed,63f3cfca20052e4ae7554ebf,6453cba451d54e749fcc0a00,2023-05-04_17h14.07.767,ga_syllabified_check,2022.2.5,Win32,59.56635692,,,,,,,,,,,,,,./stim/p03_syllable_1_tuliafo_hit.wav,p03,tuliafo,hit,tu-lia-fo,tu-lia-fo,tu-li-a-fo, ,-0.361331121,-0.093210964,1,0,0,2.0835,text_option_1,,0,58,58,33,1
5f6677f7035c6c267ea50fed,63f3cfca20052e4ae7554ebf,6453cba451d54e749fcc0a00,2023-05-04_17h14.07.767,ga_syllabified_check,2022.2.5,Win32,59.56635692,,,,,,,,,,,,,,./stim/p05_syllable_1_falufaisto_hit.wav,p05,falufaisto,hit,fa-lu-fais-to,fa-lu-fais-to,fa-lu-fa-is-to, ,-0.37336192,-0.102465397,1,0,0,1.9834,text_option_1,,0,59,59,71,1
5f6677f7035c6c267ea50fed,63f3cfca20052e4ae7554ebf,6453cba451d54e749fcc0a00,2023-05-04_17h14.07.767,ga_syllabified_check,2022.2.5,Win32,59.56635692,,,,,,,,,,,,,,./stim/p03_syllable_1_falufaisto_hit.wav,p03,falufaisto,hit,fa-lu-fais-to,fa-lu-fais-to,fa-lu-fa-is-to, ,-0.374287375,-0.094136419,1,0,0,1.4335,text_option_1,,0,60,60,3,1
5f6677f7035c6c267ea50fed,63f3cfca20052e4ae7554ebf,6453cba451d54e749fcc0a00,2023-05-04_17h14.07.767,ga_syllabified_check,2022.2.5,Win32,59.56635692,,,,,,,,,,,,,,./stim/p08_syllable_1_faluduako_hit.wav,p08,faluduako,hit,fa-lu-duai-ko,fa-lu-dua-ko,fa-lu-du-a-ko, ,-0.34374765,-0.098763636,1,0,0,4.7001,text_option_1,,0,61,61,172,1
5f6677f7035c6c267ea50fed,63f3cfca20052e4ae7554ebf,6453cba451d54e749fcc0a00,2023-05-04_17h14.07.767,ga_syllabified_check,2022.2.5,Win32,59.56635692,,,,,,,,,,,,,,./stim/p07_syllable_1_chiaba_hit.wav,p07,chiaba,hit,chia-ba,chia-ba,chi-a-ba, ,-0.352076687,-0.102465397,1,0,0,1.2666,text_option_1,,0,62,62,136,1
5f6677f7035c6c267ea50fed,63f3cfca20052e4ae7554ebf,6453cba451d54e749fcc0a00,2023-05-04_17h14.07.767,ga_syllabified_check,2022.2.5,Win32,59.56635692,,,,,,,,,,,,,,./stim/p04_syllable_1_faluduako_hit.wav,p04,faluduako,hit,fa-lu-dua-ko,fa-lu-dua-ko,fa-lu-du-a-ko, ,-0.371511068,-0.100614487,1,0,0,0.9834,text_option_1,,0,63,63,36,1
5f6677f7035c6c267ea50fed,63f3cfca20052e4ae7554ebf,6453cba451d54e749fcc0a00,2023-05-04_17h14.07.767,ga_syllabified_check,2022.2.5,Win32,59.56635692,,,,,,,,,,,,,,./stim/p05_syllable_1_palufauro_hit.wav,p05,palufauro,hit,pa-lu-fau-ro,pa-lu-fau-ro,pa-lu-fa-u-ro, ,-0.40667801,-0.11171989,1,0,0,2.6411,text_option_1,,0,64,64,93,1
5f6677f7035c6c267ea50fed,63f3cfca20052e4ae7554ebf,6453cba451d54e749fcc0a00,2023-05-04_17h14.07.767,ga_syllabified_check,2022.2.5,Win32,59.56635692,,,,,,,,,,,,,,./stim/p08_syllable_1_nhiape_hit.wav,p08,ñiape,hit,ni-a-pe,ñia-pe,ñi-a-pe, ,0.403087333,-0.11171989,1,0,0,1.0667,text_option_2,,0,65,65,193,1
5f6677f7035c6c267ea50fed,63f3cfca20052e4ae7554ebf,6453cba451d54e749fcc0a00,2023-05-04_17h14.07.767,ga_syllabified_check,2022.2.5,Win32,59.56635692,,,,,,,,,,,,,,./stim/p07_syllable_1_falufaisto_hit.wav,p07,falufaisto,hit,fa-lu-fais-to,fa-lu-fais-to,fa-lu-fa-is-to, ,-0.358554814,-0.113570741,1,0,0,2.5998,text_option_1,,0,66,66,139,1
5f6677f7035c6c267ea50fed,63f3cfca20052e4ae7554ebf,6453cba451d54e749fcc0a00,2023-05-04_17h14.07.767,ga_syllabified_check,2022.2.5,Win32,59.56635692,,,,,,,,,,,,,,./stim/p03_syllable_1_lakakiaisto_hit.wav,p03,lakakiaisto,hit,la-ka-kiais-to,la-ka-kiais-to,la-ka-ki-ais-to,la-ka-kia-is-to,-0.338194978,-0.106167218,1,0,0,2.0838,text_option_1,,0,67,67,14,1
5f6677f7035c6c267ea50fed,63f3cfca20052e4ae7554ebf,6453cba451d54e749fcc0a00,2023-05-04_17h14.07.767,ga_syllabified_check,2022.2.5,Win32,59.56635692,,,,,,,,,,,,,,./stim/p07_syllable_1_flauro_hit.wav,p07,flauro,hit,flau-ro,flau-ro,fla-u-ro, ,-0.349300322,-0.103390852,1,0,0,1.1166,text_option_1,,0,68,68,141,1
5f6677f7035c6c267ea50fed,63f3cfca20052e4ae7554ebf,6453cba451d54e749fcc0a00,2023-05-04_17h14.07.767,ga_syllabified_check,2022.2.5,Win32,59.56635692,,,,,,,,,,,,,,./stim/p07_syllable_1_lakapuaisto_hit.wav,p07,lakapuaisto,hit,la-ka-puais-to,la-ka-puais-to,la-ka-pu-ais-to,la-ka-pua-is-to,-0.339120433,-0.100614487,1,0,0,3.1,text_option_1,,0,69,69,153,1
5f6677f7035c6c267ea50fed,63f3cfca20052e4ae7554ebf,6453cba451d54e749fcc0a00,2023-05-04_17h14.07.767,ga_syllabified_check,2022.2.5,Win32,59.56635692,,,,,,,,,,,,,,./stim/p03_syllable_1_lakafiaisto_hit.wav,p03,lakafiaisto,hit,la-ka-fiais-to,la-ka-fiais-to,la-ka-fi-ais-to,la-ka-fia-is-to,-0.367809248,-0.103390852,1,0,0,2.0833,text_option_1,,0,70,70,10,1
5f6677f7035c6c267ea50fed,63f3cfca20052e4ae7554ebf,6453cba451d54e749fcc0a00,2023-05-04_17h14.07.767,ga_syllabified_check,2022.2.5,Win32,59.56635692,,,,,,,,,,,,,,./stim/p07_syllable_1_palutrauco_hit.wav,p07,palutrauco,hit,pa-lu-trau-co,pa-lu-trau-co,pa-lu-tra-u-co, ,-0.353002143,-0.099689091,1,0,0,1.7999,text_option_1,,0,71,71,165,1
5f6677f7035c6c267ea50fed,63f3cfca20052e4ae7554ebf,6453cba451d54e749fcc0a00,2023-05-04_17h14.07.767,ga_syllabified_check,2022.2.5,Win32,59.56635692,,,,,,,,,,,,,,./stim/p07_syllable_1_lakapiaisto_hit.wav,p07,lakapiaisto,hit,la-ka-pia-sto,la-ka-piais-to,la-ka-pi-ais-to,la-ka-pia-is-to,-0.324313328,-0.108943524,1,0,0,4.9836,text_option_1,,0,72,72,152,1
5f6677f7035c6c267ea50fed,63f3cfca20052e4ae7554ebf,6453cba451d54e749fcc0a00,2023-05-04_17h14.07.767,ga_syllabified_check,2022.2.5,Win32,59.56635692,,,,,,,,,,,,,,./stim/p03_syllable_1_lakagiaisto_hit.wav,p03,lakagiaisto,hit,la-ka-giais-to,la-ka-giais-to,la-ka-gi-ais-to,la-ka-gia-is-to,-0.319686053,-0.102465397,1,0,0,4.4167,text_option_1,,0,73,73,12,1
5f6677f7035c6c267ea50fed,63f3cfca20052e4ae7554ebf,6453cba451d54e749fcc0a00,2023-05-04_17h14.07.767,ga_syllabified_check,2022.2.5,Win32,59.56635692,,,,,,,,,,,,,,./stim/p06_syllable_1_mebochiana_hit.wav,p06,mebochiana,hit,me-bo-shi-a-na,me-bo-chia-na,me-bo-chi-a-na, ,0.357740503,-0.114496196,1,0,0,3.4499,text_option_2,,0,74,74,124,1
5f6677f7035c6c267ea50fed,63f3cfca20052e4ae7554ebf,6453cba451d54e749fcc0a00,2023-05-04_17h14.07.767,ga_syllabified_check,2022.2.5,Win32,59.56635692,,,,,,,,,,,,,,./stim/p07_syllable_1_lliape_hit.wav,p07,lliape,hit,lliai-pe,llia-pe,lli-a-pe, ,0.043088823,-0.309765343,1,0,0,4.3502,text_option_other,lliai-pe,0,75,75,156,1
5f6677f7035c6c267ea50fed,63f3cfca20052e4ae7554ebf,6453cba451d54e749fcc0a00,2023-05-04_17h14.07.767,ga_syllabified_check,2022.2.5,Win32,59.56635692,,,,,,,,,,,,,,./stim/p05_syllable_1_ruyiola_hit.wav,p05,ruyiola,hit,ru-yio-la,ru-yio-la,ru-yi-o-la, ,-0.408528891,-0.106167218,1,0,0,1.2332,text_option_1,,0,76,76,100,1
5f6677f7035c6c267ea50fed,63f3cfca20052e4ae7554ebf,6453cba451d54e749fcc0a00,2023-05-04_17h14.07.767,ga_syllabified_check,2022.2.5,Win32,59.56635692,,,,,,,,,,,,,,./stim/p05_syllable_1_lakagiaisto_hit.wav,p05,lakagiaisto,hit,la-ka-ki-ais-to,la-ka-giais-to,la-ka-gi-ais-to,la-ka-gia-is-to,-0.341896799,-0.109868979,1,0,0,1.9667,text_option_1,,0,77,77,80,1
5f6677f7035c6c267ea50fed,63f3cfca20052e4ae7554ebf,6453cba451d54e749fcc0a00,2023-05-04_17h14.07.767,ga_syllabified_check,2022.2.5,Win32,59.56635692,,,,,,,,,,,,,,./stim/p05_syllable_1_lakakiaisto_hit.wav,p05,lakakiaisto,hit,la-ka-ki-ais-to,la-ka-kiais-to,la-ka-ki-ais-to,la-ka-kia-is-to,-0.334493217,-0.108943524,1,0,0,1.5168,text_option_1,,0,78,78,82,1
5f6677f7035c6c267ea50fed,63f3cfca20052e4ae7554ebf,6453cba451d54e749fcc0a00,2023-05-04_17h14.07.767,ga_syllabified_check,2022.2.5,Win32,59.56635692,,,,,,,,,,,,,,./stim/p04_syllable_1_falufaisto_hit.wav,p04,falufaisto,hit,fa-lu-fais-to,fa-lu-fais-to,fa-lu-fa-is-to, ,-0.365958396,-0.11171989,1,0,0,1.1334,text_option_1,,0,79,79,37,1
5f6677f7035c6c267ea50fed,63f3cfca20052e4ae7554ebf,6453cba451d54e749fcc0a00,2023-05-04_17h14.07.767,ga_syllabified_check,2022.2.5,Win32,59.56635692,,,,,,,,,,,,,,./stim/p04_syllable_1_lliape_hit.wav,p04,lliape,hit,lia-pe,llia-pe,lli-a-pe, ,-0.402976219,-0.105241763,1,0,0,1.0166,text_option_1,,0,80,80,54,1
5f6677f7035c6c267ea50fed,63f3cfca20052e4ae7554ebf,6453cba451d54e749fcc0a00,2023-05-04_17h14.07.767,ga_syllabified_check,2022.2.5,Win32,59.56635692,,,,,,,,,,,,,,./stim/p07_syllable_1_manhiala_hit.wav,p07,mañiala,hit,ma-nhia-la,ma-ñia-la,ma-ñi-a-la, ,-0.376138285,-0.108943524,1,0,0,1.4666,text_option_1,,0,81,81,157,1
5f6677f7035c6c267ea50fed,63f3cfca20052e4ae7554ebf,6453cba451d54e749fcc0a00,2023-05-04_17h14.07.767,ga_syllabified_check,2022.2.5,Win32,59.56635692,,,,,,,,,,,,,,./stim/p06_syllable_1_lakatiaisto_hit.wav,p06,lakatiaisto,hit,la-ka-pia-is-to,la-ka-tiais-to,la-ka-ti-ais-to,la-ka-tia-is-to,0.081957526,-0.103390852,1,0,0,4.2002,text_option_3,,0,82,82,120,1
5f6677f7035c6c267ea50fed,63f3cfca20052e4ae7554ebf,6453cba451d54e749fcc0a00,2023-05-04_17h14.07.767,ga_syllabified_check,2022.2.5,Win32,59.56635692,,,,,,,,,,,,,,./stim/p08_syllable_1_payielo_hit.wav,p08,payielo,hit,pa-yie-lo,pa-yie-lo,pa-yi-e-lo, ,-0.37336192,-0.104316308,1,0,0,1.8166,text_option_1,,0,83,83,200,1
5f6677f7035c6c267ea50fed,63f3cfca20052e4ae7554ebf,6453cba451d54e749fcc0a00,2023-05-04_17h14.07.767,ga_syllabified_check,2022.2.5,Win32,59.56635692,,,,,,,,,,,,,,./stim/p05_syllable_1_falutraigo_hit.wav,p05,falutraigo,hit,fa-lu-trai-go,fa-lu-trai-go,fa-lu-tra-i-go, ,-0.390945391,-0.114496196,1,0,0,2.5332,text_option_1,,0,84,84,72,1
5f6677f7035c6c267ea50fed,63f3cfca20052e4ae7554ebf,6453cba451d54e749fcc0a00,2023-05-04_17h14.07.767,ga_syllabified_check,2022.2.5,Win32,59.56635692,,,,,,,,,,,,,,./stim/p04_syllable_1_rausto_hit.wav,p04,rausto,hit,raus-to,raus-to,ra-us-to, ,-0.382616412,-0.109868979,1,0,0,0.5332,text_option_1,,0,85,85,65,1
5f6677f7035c6c267ea50fed,63f3cfca20052e4ae7554ebf,6453cba451d54e749fcc0a00,2023-05-04_17h14.07.767,ga_syllabified_check,2022.2.5,Win32,59.56635692,,,,,,,,,,,,,,./stim/p06_syllable_1_manhiala_hit.wav,p06,mañiala,hit,ma-nhi-a-la,ma-ñia-la,ma-ñi-a-la, ,0.391056534,-0.115421651,1,0,0,1.9168,text_option_2,,0,86,86,123,1
5f6677f7035c6c267ea50fed,63f3cfca20052e4ae7554ebf,6453cba451d54e749fcc0a00,2023-05-04_17h14.07.767,ga_syllabified_check,2022.2.5,Win32,59.56635692,,,,,,,,,,,,,,./stim/p04_syllable_1_payielo_hit.wav,p04,payielo,hit,pa-yie-lo,pa-yie-lo,pa-yi-e-lo, ,-0.384467322,-0.098763636,1,0,0,1.0835,text_option_1,,0,87,87,64,1
5f6677f7035c6c267ea50fed,63f3cfca20052e4ae7554ebf,6453cba451d54e749fcc0a00,2023-05-04_17h14.07.767,ga_syllabified_check,2022.2.5,Win32,59.56635692,,,,,,,,,,,,,,./stim/p05_syllable_1_lliape_hit.wav,p05,lliape,hit,liai-pe,llia-pe,lli-a-pe, ,-0.021692447,-0.302361761,1,0,0,1.6335,text_option_other,llai-pe,0,88,88,88,1
5f6677f7035c6c267ea50fed,63f3cfca20052e4ae7554ebf,6453cba451d54e749fcc0a00,2023-05-04_17h14.07.767,ga_syllabified_check,2022.2.5,Win32,59.56635692,,,,,,,,,,,,,,./stim/p03_syllable_1_costonhialo_hit.wav,p03,costoñialo,hit,cos-to-nhia-lo,cos-to-ñia-lo,cos-to-ñi-a-lo, ,-0.340971344,-0.103390852,1,0,0,1.8333,text_option_1,,0,89,89,1,1
5f6677f7035c6c267ea50fed,63f3cfca20052e4ae7554ebf,6453cba451d54e749fcc0a00,2023-05-04_17h14.07.767,ga_syllabified_check,2022.2.5,Win32,59.56635692,,,,,,,,,,,,,,./stim/p06_syllable_1_nhiape_hit.wav,p06,ñiape,hit,nhi-a-pe,ñia-pe,ñi-a-pe, ,0.414192677,-0.117272562,1,0,0,1.5498,text_option_2,,0,90,90,125,1
5f6677f7035c6c267ea50fed,63f3cfca20052e4ae7554ebf,6453cba451d54e749fcc0a00,2023-05-04_17h14.07.767,ga_syllabified_check,2022.2.5,Win32,59.56635692,,,,,,,,,,,,,,./stim/p03_syllable_1_lakaduaisto_hit.wav,p03,lakaduaisto,hit,la-ka-duais-to,la-ka-duais-to,la-ka-du-ais-to,la-ka-dua-is-to,-0.362256576,-0.089509143,1,0,0,1.8667,text_option_1,,0,91,91,9,1
5f6677f7035c6c267ea50fed,63f3cfca20052e4ae7554ebf,6453cba451d54e749fcc0a00,2023-05-04_17h14.07.767,ga_syllabified_check,2022.2.5,Win32,59.56635692,,,,,,,,,,,,,,./stim/p04_syllable_1_lakapuaisto_hit.wav,p04,lakapuaisto,hit,la-ka-puais-to,la-ka-puais-to,la-ka-pu-ais-to,la-ka-pua-is-to,-0.32801509,-0.09598727,1,0,0,0.9501,text_option_1,,0,92,92,51,1
5f6677f7035c6c267ea50fed,63f3cfca20052e4ae7554ebf,6453cba451d54e749fcc0a00,2023-05-04_17h14.07.767,ga_syllabified_check,2022.2.5,Win32,59.56635692,,,,,,,,,,,,,,./stim/p08_syllable_1_pachialo_hit.wav,p08,pachialo,hit,pa-chi-ja-lo,pa-chia-lo,pa-chi-a-lo, ,0.470644851,-0.097838181,1,0,0,1.9333,text_option_2,,0,93,93,194,1
5f6677f7035c6c267ea50fed,63f3cfca20052e4ae7554ebf,6453cba451d54e749fcc0a00,2023-05-04_17h14.07.767,ga_syllabified_check,2022.2.5,Win32,59.56635692,,,,,,,,,,,,,,./stim/p05_syllable_1_lakatiaisto_hit.wav,p05,lakatiaisto,hit,la-ka-ti-ais-to,la-ka-tiais-to,la-ka-ti-ais-to,la-ka-tia-is-to,0.411416312,-0.108018069,1,0,0,5.8668,text_option_2,,0,94,94,86,1
5f6677f7035c6c267ea50fed,63f3cfca20052e4ae7554ebf,6453cba451d54e749fcc0a00,2023-05-04_17h14.07.767,ga_syllabified_check,2022.2.5,Win32,59.56635692,,,,,,,,,,,,,,./stim/p04_syllable_1_pachialo_hit.wav,p04,pachialo,hit,pa-chia-lo,pa-chia-lo,pa-chi-a-lo, ,-0.394647211,-0.092285509,1,0,0,1.2001,text_option_1,,0,95,95,58,1
5f6677f7035c6c267ea50fed,63f3cfca20052e4ae7554ebf,6453cba451d54e749fcc0a00,2023-05-04_17h14.07.767,ga_syllabified_check,2022.2.5,Win32,59.56635692,,,,,,,,,,,,,,./stim/p06_syllable_1_falutraigo_hit.wav,p06,falutraigo,hit,fa-lu-tra-i-go,fa-lu-trai-go,fa-lu-tra-i-go, ,0.410490857,-0.103390852,1,0,0,3.9832,text_option_2,,0,96,96,106,1
5f6677f7035c6c267ea50fed,63f3cfca20052e4ae7554ebf,6453cba451d54e749fcc0a00,2023-05-04_17h14.07.767,ga_syllabified_check,2022.2.5,Win32,59.56635692,,,,,,,,,,,,,,./stim/p07_syllable_1_payielo_hit.wav,p07,payielo,hit,pa-yie-lo,pa-yie-lo,pa-yi-e-lo, ,-0.40667801,-0.093210964,1,0,0,2.1,text_option_1,,0,97,97,166,1
5f6677f7035c6c267ea50fed,63f3cfca20052e4ae7554ebf,6453cba451d54e749fcc0a00,2023-05-04_17h14.07.767,ga_syllabified_check,2022.2.5,Win32,59.56635692,,,,,,,,,,,,,,./stim/p06_syllable_1_pachialo_hit.wav,p06,pachialo,hit,pa-shi-a-lo,pa-chia-lo,pa-chi-a-lo, ,0.363293116,-0.109868979,1,0,0,1.3667,text_option_2,,0,98,98,126,1
5f6677f7035c6c267ea50fed,63f3cfca20052e4ae7554ebf,6453cba451d54e749fcc0a00,2023-05-04_17h14.07.767,ga_syllabified_check,2022.2.5,Win32,59.56635692,,,,,,,,,,,,,,./stim/p03_syllable_1_falutraigo_hit.wav,p03,falutraigo,hit,fa-lu-trai-go,fa-lu-trai-go,fa-lu-tra-i-go, ,-0.365032941,-0.09598727,1,0,0,1.6332,text_option_1,,0,99,99,4,1
5f6677f7035c6c267ea50fed,63f3cfca20052e4ae7554ebf,6453cba451d54e749fcc0a00,2023-05-04_17h14.07.767,ga_syllabified_check,2022.2.5,Win32,59.56635692,,,,,,,,,,,,,,./stim/p08_syllable_1_palufauto_hit.wav,p08,palufauto,hit,pa-lu-fau-to,pa-lu-fau-to,pa-lu-fa-u-to, ,-0.357629359,-0.114496196,1,0,0,2.9668,text_option_1,,0,100,100,196,1
5f6677f7035c6c267ea50fed,63f3cfca20052e4ae7554ebf,6453cba451d54e749fcc0a00,2023-05-04_17h14.07.767,ga_syllabified_check,2022.2.5,Win32,59.56635692,,,,,,,,,,,,,,./stim/p05_syllable_1_palumaisto_hit.wav,p05,palumaisto,hit,pa-lu-mais-to,pa-lu-mais-to,pa-lu-ma-is-to, ,-0.381690957,-0.102465397,1,0,0,2.1,text_option_1,,0,101,101,96,1
5f6677f7035c6c267ea50fed,63f3cfca20052e4ae7554ebf,6453cba451d54e749fcc0a00,2023-05-04_17h14.07.767,ga_syllabified_check,2022.2.5,Win32,59.56635692,,,,,,,,,,,,,,./stim/p06_syllable_1_costonhialo_hit.wav,p06,costoñialo,hit,cos-to-nhia-lo,cos-to-ñia-lo,cos-to-ñi-a-lo, ,-0.37336192,-0.110794435,1,0,0,4.7832,text_option_1,,0,102,102,103,1
5f6677f7035c6c267ea50fed,63f3cfca20052e4ae7554ebf,6453cba451d54e749fcc0a00,2023-05-04_17h14.07.767,ga_syllabified_check,2022.2.5,Win32,59.56635692,,,,,,,,,,,,,,./stim/p03_syllable_1_lliape_hit.wav,p03,lliape,hit,llia,llia-pe,lli-a-pe, ,-0.382616412,-0.110794435,1,0,0,1.9331,text_option_1,,0,103,103,20,1
5f6677f7035c6c267ea50fed,63f3cfca20052e4ae7554ebf,6453cba451d54e749fcc0a00,2023-05-04_17h14.07.767,ga_syllabified_check,2022.2.5,Win32,59.56635692,,,,,,,,,,,,,,./stim/p05_syllable_1_nhiape_hit.wav,p05,ñiape,hit,nhia-pe,ñia-pe,ñi-a-pe, ,-0.37336192,-0.110794435,1,0,0,0.75,text_option_1,,0,104,104,91,1
5f6677f7035c6c267ea50fed,63f3cfca20052e4ae7554ebf,6453cba451d54e749fcc0a00,2023-05-04_17h14.07.767,ga_syllabified_check,2022.2.5,Win32,59.56635692,,,,,,,,,,,,,,./stim/p08_syllable_1_flauro_hit.wav,p08,flauro,hit,flau-ro,flau-ro,fla-u-ro, ,-0.376138285,-0.113570741,1,0,0,1.2667,text_option_1,,0,105,105,175,1
5f6677f7035c6c267ea50fed,63f3cfca20052e4ae7554ebf,6453cba451d54e749fcc0a00,2023-05-04_17h14.07.767,ga_syllabified_check,2022.2.5,Win32,59.56635692,,,,,,,,,,,,,,./stim/p07_syllable_1_pachialo_hit.wav,p07,pachialo,hit,pa-cha-lo,pa-chia-lo,pa-chi-a-lo, ,-0.376138285,-0.108943524,1,0,0,1.717,text_option_1,,0,106,106,160,1
5f6677f7035c6c267ea50fed,63f3cfca20052e4ae7554ebf,6453cba451d54e749fcc0a00,2023-05-04_17h14.07.767,ga_syllabified_check,2022.2.5,Win32,59.56635692,,,,,,,,,,,,,,./stim/p05_syllable_1_lakadiaisto_hit.wav,p05,lakadiaisto,hit,la-ka-di-ais-to,la-ka-diais-to,la-ka-di-ais-to,la-ka-dia-is-to,-0.355778449,-0.096912725,1,0,0,2.5834,text_option_1,,0,107,107,76,1
5f6677f7035c6c267ea50fed,63f3cfca20052e4ae7554ebf,6453cba451d54e749fcc0a00,2023-05-04_17h14.07.767,ga_syllabified_check,2022.2.5,Win32,59.56635692,,,,,,,,,,,,,,./stim/p08_syllable_1_rausto_hit.wav,p08,rausto,hit,raus-to,raus-to,ra-us-to, ,-0.369660158,-0.106167218,1,0,0,1.5665,text_option_1,,0,108,108,201,1
5f6677f7035c6c267ea50fed,63f3cfca20052e4ae7554ebf,6453cba451d54e749fcc0a00,2023-05-04_17h14.07.767,ga_syllabified_check,2022.2.5,Win32,59.56635692,,,,,,,,,,,,,,./stim/p03_syllable_1_lakapiaisto_hit.wav,p03,lakapiaisto,hit,la-ka-piais-to,la-ka-piais-to,la-ka-pi-ais-to,la-ka-pia-is-to,-0.336344127,-0.110794435,1,0,0,1.6499,text_option_1,,0,109,109,16,1
5f6677f7035c6c267ea50fed,63f3cfca20052e4ae7554ebf,6453cba451d54e749fcc0a00,2023-05-04_17h14.07.767,ga_syllabified_check,2022.2.5,Win32,59.56635692,,,,,,,,,,,,,,./stim/p06_syllable_1_lakafiaisto_hit.wav,p06,lakafiaisto,hit,la-ka-fia-is-to,la-ka-fiais-to,la-ka-fi-ais-to,la-ka-fia-is-to,-0.020766992,-0.099689091,1,0,0,3.7668,text_option_3,,0,110,110,112,1
5f6677f7035c6c267ea50fed,63f3cfca20052e4ae7554ebf,6453cba451d54e749fcc0a00,2023-05-04_17h14.07.767,ga_syllabified_check,2022.2.5,Win32,59.56635692,,,,,,,,,,,,,,./stim/p06_syllable_1_lakapiaisto_hit.wav,p06,lakapiaisto,hit,la-ka-pia-is-to,la-ka-piais-to,la-ka-pi-ais-to,la-ka-pia-is-to,-0.035574097,-0.105241763,1,0,0,4.9669,text_option_3,,0,111,111,118,1
5f6677f7035c6c267ea50fed,63f3cfca20052e4ae7554ebf,6453cba451d54e749fcc0a00,2023-05-04_17h14.07.767,ga_syllabified_check,2022.2.5,Win32,59.56635692,,,,,,,,,,,,,,./stim/p05_syllable_1_flauro_hit.wav,p05,flauro,hit,fa-lu-ro,flau-ro,fla-u-ro, ,-0.016139775,-0.283852835,1,0,0,1.6835,text_option_other,fal-lu-ro,0,112,112,73,1
5f6677f7035c6c267ea50fed,63f3cfca20052e4ae7554ebf,6453cba451d54e749fcc0a00,2023-05-04_17h14.07.767,ga_syllabified_check,2022.2.5,Win32,59.56635692,,,,,,,,,,,,,,./stim/p06_syllable_1_lakapuaisto_hit.wav,p06,lakapuaisto,hit,la-ka-pu-a-is,la-ka-puais-to,la-ka-pu-ais-to,la-ka-pua-is-to,-0.017065171,-0.306063464,1,0,0,5.4623,text_option_other,la-ka-pu-a-is-to,0,113,113,119,1
5f6677f7035c6c267ea50fed,63f3cfca20052e4ae7554ebf,6453cba451d54e749fcc0a00,2023-05-04_17h14.07.767,ga_syllabified_check,2022.2.5,Win32,59.56635692,,,,,,,,,,,,,,./stim/p04_syllable_1_palumaisto_hit.wav,p04,palumaisto,hit,pa-lu-mais-to,pa-lu-mais-to,pa-lu-ma-is-to, ,-0.352076687,-0.108943524,1,0,0,1.579,text_option_1,,0,114,114,62,1
5f6677f7035c6c267ea50fed,63f3cfca20052e4ae7554ebf,6453cba451d54e749fcc0a00,2023-05-04_17h14.07.767,ga_syllabified_check,2022.2.5,Win32,59.56635692,,,,,,,,,,,,,,./stim/p06_syllable_1_lakakiaisto_hit.wav,p06,lakakiaisto,hit,la-ka-kia-is-to,la-ka-kiais-to,la-ka-ki-ais-to,la-ka-kia-is-to,0.013474553,-0.105241763,1,0,0,4.3001,text_option_3,,0,115,115,116,1
5f6677f7035c6c267ea50fed,63f3cfca20052e4ae7554ebf,6453cba451d54e749fcc0a00,2023-05-04_17h14.07.767,ga_syllabified_check,2022.2.5,Win32,59.56635692,,,,,,,,,,,,,,./stim/p04_syllable_1_ruyiola_hit.wav,p04,ruyiola,hit,ru-yio-la,ru-yio-la,ru-yi-o-la, ,-0.357629359,-0.105241763,1,0,0,1.029,text_option_1,,0,116,116,66,1
5f6677f7035c6c267ea50fed,63f3cfca20052e4ae7554ebf,6453cba451d54e749fcc0a00,2023-05-04_17h14.07.767,ga_syllabified_check,2022.2.5,Win32,59.56635692,,,,,,,,,,,,,,./stim/p05_syllable_1_lakakuaisto_hit.wav,p05,lakakuaisto,hit,la-ka-kais-to,la-ka-kuais-to,la-ka-ku-ais-to,la-ka-kua-is-to,-0.359480269,-0.105241763,1,0,0,3.4294,text_option_1,,0,117,117,83,1
5f6677f7035c6c267ea50fed,63f3cfca20052e4ae7554ebf,6453cba451d54e749fcc0a00,2023-05-04_17h14.07.767,ga_syllabified_check,2022.2.5,Win32,59.56635692,,,,,,,,,,,,,,./stim/p06_syllable_1_palufauro_hit.wav,p06,palufauro,hit,pa-lu-fau-ro,pa-lu-fau-ro,pa-lu-fa-u-ro, ,0.39198199,-0.109868979,1,0,0,4.1836,text_option_2,,0,118,118,127,1
5f6677f7035c6c267ea50fed,63f3cfca20052e4ae7554ebf,6453cba451d54e749fcc0a00,2023-05-04_17h14.07.767,ga_syllabified_check,2022.2.5,Win32,59.56635692,,,,,,,,,,,,,,./stim/p05_syllable_1_tuliafo_hit.wav,p05,tuliafo,hit,tu-lai-fo,tu-lia-fo,tu-li-a-fo, ,-0.390945391,-0.103390852,1,0,0,5.6166,text_option_1,,0,119,119,101,1
5f6677f7035c6c267ea50fed,63f3cfca20052e4ae7554ebf,6453cba451d54e749fcc0a00,2023-05-04_17h14.07.767,ga_syllabified_check,2022.2.5,Win32,59.56635692,,,,,,,,,,,,,,./stim/p03_syllable_1_manhiala_hit.wav,p03,mañiala,hit,ma-nhia-la,ma-ñia-la,ma-ñi-a-la, ,-0.351151232,-0.102465397,1,0,0,1.5501,text_option_1,,0,120,120,21,1
5f6677f7035c6c267ea50fed,63f3cfca20052e4ae7554ebf,6453cba451d54e749fcc0a00,2023-05-04_17h14.07.767,ga_syllabified_check,2022.2.5,Win32,59.56635692,,,,,,,,,,,,,,./stim/p08_syllable_1_lakabuaisto_hit.wav,p08,lakabuaisto,hit,la-ka-bu-ais-to,la-ka-buais-to,la-ka-bu-ais-to,la-ka-bua-is-to,0.379951191,-0.108018069,1,0,0,3.825,text_option_2,,0,121,121,177,1
5f6677f7035c6c267ea50fed,63f3cfca20052e4ae7554ebf,6453cba451d54e749fcc0a00,2023-05-04_17h14.07.767,ga_syllabified_check,2022.2.5,Win32,59.56635692,,,,,,,,,,,,,,./stim/p04_syllable_1_lakatuaisto_hit.wav,p04,lakatuaisto,hit,la-ka-kuais-to,la-ka-tuais-to,la-ka-tu-ais-to,la-ka-tua-is-to,-0.371511068,-0.103390852,1,0,0,1.3544,text_option_1,,0,122,122,53,1
5f6677f7035c6c267ea50fed,63f3cfca20052e4ae7554ebf,6453cba451d54e749fcc0a00,2023-05-04_17h14.07.767,ga_syllabified_check,2022.2.5,Win32,59.56635692,,,,,,,,,,,,,,./stim/p07_syllable_1_palufauto_hit.wav,p07,palufauto,hit,pa-lu-fau-to,pa-lu-fau-to,pa-lu-fa-u-to, ,-0.357629359,-0.108943524,1,0,0,2.0205,text_option_1,,0,123,123,162,1
5f6677f7035c6c267ea50fed,63f3cfca20052e4ae7554ebf,6453cba451d54e749fcc0a00,2023-05-04_17h14.07.767,ga_syllabified_check,2022.2.5,Win32,59.56635692,,,,,,,,,,,,,,./stim/p03_syllable_1_flauro_hit.wav,p03,flauro,hit,flau-ro,flau-ro,fla-u-ro, ,-0.379840047,-0.108943524,1,0,0,0.9167,text_option_1,,0,124,124,5,1
5f6677f7035c6c267ea50fed,63f3cfca20052e4ae7554ebf,6453cba451d54e749fcc0a00,2023-05-04_17h14.07.767,ga_syllabified_check,2022.2.5,Win32,59.56635692,,,,,,,,,,,,,,./stim/p06_syllable_1_payielo_hit.wav,p06,payielo,hit,pa-yi-e-lo,pa-yie-lo,pa-yi-e-lo, ,0.352187773,-0.112645345,1,0,0,2.0289,text_option_2,,0,125,125,132,1
5f6677f7035c6c267ea50fed,63f3cfca20052e4ae7554ebf,6453cba451d54e749fcc0a00,2023-05-04_17h14.07.767,ga_syllabified_check,2022.2.5,Win32,59.56635692,,,,,,,,,,,,,,./stim/p08_syllable_1_paluguato_hit.wav,p08,paluguato,hit,pa-lu-gua-to,pa-lu-gua-to,pa-lu-gu-a-to, ,-0.386318174,-0.099689091,1,0,0,2.0166,text_option_1,,0,126,126,197,1
5f6677f7035c6c267ea50fed,63f3cfca20052e4ae7554ebf,6453cba451d54e749fcc0a00,2023-05-04_17h14.07.767,ga_syllabified_check,2022.2.5,Win32,59.56635692,,,,,,,,,,,,,,./stim/p04_syllable_1_nhiape_hit.wav,p04,ñiape,hit,nhia-pe,ñia-pe,ñi-a-pe, ,-0.415932473,-0.113570741,1,0,0,0.4582,text_option_1,,0,127,127,57,1
5f6677f7035c6c267ea50fed,63f3cfca20052e4ae7554ebf,6453cba451d54e749fcc0a00,2023-05-04_17h14.07.767,ga_syllabified_check,2022.2.5,Win32,59.56635692,,,,,,,,,,,,,,./stim/p06_syllable_1_lakagiaisto_hit.wav,p06,lakagiaisto,hit,la-ka-gia-is-to,la-ka-giais-to,la-ka-gi-ais-to,la-ka-gia-is-to,0.032908876,-0.105241763,1,0,0,4.1957,text_option_3,,0,128,128,114,1
5f6677f7035c6c267ea50fed,63f3cfca20052e4ae7554ebf,6453cba451d54e749fcc0a00,2023-05-04_17h14.07.767,ga_syllabified_check,2022.2.5,Win32,59.56635692,,,,,,,,,,,,,,./stim/p04_syllable_1_mebochiana_hit.wav,p04,mebochiana,hit,me-bo-chia-na,me-bo-chia-na,me-bo-chi-a-na, ,-0.388169084,-0.099689091,1,0,0,1.8291,text_option_1,,0,129,129,56,1
5f6677f7035c6c267ea50fed,63f3cfca20052e4ae7554ebf,6453cba451d54e749fcc0a00,2023-05-04_17h14.07.767,ga_syllabified_check,2022.2.5,Win32,59.56635692,,,,,,,,,,,,,,./stim/p07_syllable_1_lakakuaisto_hit.wav,p07,lakakuaisto,hit,la-ka-kuais-to,la-ka-kuais-to,la-ka-ku-ais-to,la-ka-kua-is-to,-0.325238724,-0.104316308,1,0,0,2.3,text_option_1,,0,130,130,151,1
5f6677f7035c6c267ea50fed,63f3cfca20052e4ae7554ebf,6453cba451d54e749fcc0a00,2023-05-04_17h14.07.767,ga_syllabified_check,2022.2.5,Win32,59.56635692,,,,,,,,,,,,,,./stim/p06_syllable_1_chiaba_hit.wav,p06,chiaba,hit,chi-a-ba,chia-ba,chi-a-ba, ,0.424372566,-0.101539942,1,0,0,2.2333,text_option_2,,0,131,131,102,1
5f6677f7035c6c267ea50fed,63f3cfca20052e4ae7554ebf,6453cba451d54e749fcc0a00,2023-05-04_17h14.07.767,ga_syllabified_check,2022.2.5,Win32,59.56635692,,,,,,,,,,,,,,./stim/p05_syllable_1_mebochiana_hit.wav,p05,mebochiana,hit,me-cho-chai-na,me-bo-chia-na,me-bo-chi-a-na, ,0.0005183,-0.31439256,1,0,0,3.2831,text_option_other,me-cho-cha-na,0,132,132,90,1
5f6677f7035c6c267ea50fed,63f3cfca20052e4ae7554ebf,6453cba451d54e749fcc0a00,2023-05-04_17h14.07.767,ga_syllabified_check,2022.2.5,Win32,59.56635692,,,,,,,,,,,,,,./stim/p04_syllable_1_palutrauco_hit.wav,p04,palutrauco,hit,pa-lu-trau-co,pa-lu-trau-co,pa-lu-tra-u-co, ,-0.442770406,-0.094136419,1,0,0,1.0834,text_option_1,,0,133,133,63,1
5f6677f7035c6c267ea50fed,63f3cfca20052e4ae7554ebf,6453cba451d54e749fcc0a00,2023-05-04_17h14.07.767,ga_syllabified_check,2022.2.5,Win32,59.56635692,,,,,,,,,,,,,,./stim/p03_syllable_1_ruyiola_hit.wav,p03,ruyiola,hit,ru-yio-la,ru-yio-la,ru-yi-o-la, ,-0.355778449,-0.108943524,1,0,0,1.0958,text_option_1,,0,134,134,32,1
5f6677f7035c6c267ea50fed,63f3cfca20052e4ae7554ebf,6453cba451d54e749fcc0a00,2023-05-04_17h14.07.767,ga_syllabified_check,2022.2.5,Win32,59.56635692,,,,,,,,,,,,,,./stim/p08_syllable_1_lakakiaisto_hit.wav,p08,lakakiaisto,hit,la-ka-ki-jas-to,la-ka-kiais-to,la-ka-ki-ais-to,la-ka-kia-is-to,0.066224966,-0.110794435,1,0,0,10.1833,text_option_3,,0,135,135,184,1
5f6677f7035c6c267ea50fed,63f3cfca20052e4ae7554ebf,6453cba451d54e749fcc0a00,2023-05-04_17h14.07.767,ga_syllabified_check,2022.2.5,Win32,59.56635692,,,,,,,,,,,,,,./stim/p07_syllable_1_lakabiaisto_hit.wav,p07,lakabiaisto,hit,la-ka-bais-to,la-ka-biais-to,la-ka-bi-ais-to,la-ka-bia-is-to,-0.34374765,-0.083956472,1,0,0,8.7377,text_option_1,,0,136,136,142,1
5f6677f7035c6c267ea50fed,63f3cfca20052e4ae7554ebf,6453cba451d54e749fcc0a00,2023-05-04_17h14.07.767,ga_syllabified_check,2022.2.5,Win32,59.56635692,,,,,,,,,,,,,,./stim/p07_syllable_1_lakaduaisto_hit.wav,p07,lakaduaisto,hit,la-ka-duais-to,la-ka-duais-to,la-ka-du-ais-to,la-ka-dua-is-to,-0.323387873,-0.103390852,1,0,0,1.9001,text_option_1,,0,137,137,145,1
5f6677f7035c6c267ea50fed,63f3cfca20052e4ae7554ebf,6453cba451d54e749fcc0a00,2023-05-04_17h14.07.767,ga_syllabified_check,2022.2.5,Win32,59.56635692,,,,,,,,,,,,,,./stim/p05_syllable_1_lakapuaisto_hit.wav,p05,lakapuaisto,hit,la-ka-pais-to,la-ka-puais-to,la-ka-pu-ais-to,la-ka-pua-is-to,-0.30025173,-0.110794435,1,0,0,5.75,text_option_1,,0,138,138,85,1
5f6677f7035c6c267ea50fed,63f3cfca20052e4ae7554ebf,6453cba451d54e749fcc0a00,2023-05-04_17h14.07.767,ga_syllabified_check,2022.2.5,Win32,59.56635692,,,,,,,,,,,,,,./stim/p05_syllable_1_payielo_hit.wav,p05,payielo,hit,pai-yu-we-lo,pa-yie-lo,pa-yi-e-lo, ,-0.392796301,-0.102465397,1,0,0,1.9834,text_option_1,,0,139,139,98,1
5f6677f7035c6c267ea50fed,63f3cfca20052e4ae7554ebf,6453cba451d54e749fcc0a00,2023-05-04_17h14.07.767,ga_syllabified_check,2022.2.5,Win32,59.56635692,,,,,,,,,,,,,,./stim/p08_syllable_1_chiaba_hit.wav,p08,chiaba,hit,chi-a-ba,chia-ba,chi-a-ba, ,0.359591413,-0.096912725,1,0,0,1.0498,text_option_2,,0,140,140,170,1
5f6677f7035c6c267ea50fed,63f3cfca20052e4ae7554ebf,6453cba451d54e749fcc0a00,2023-05-04_17h14.07.767,ga_syllabified_check,2022.2.5,Win32,59.56635692,,,,,,,,,,,,,,./stim/p05_syllable_1_costonhialo_hit.wav,p05,costoñialo,hit,cos-to-nhia-lo,cos-to-ñia-lo,cos-to-ñi-a-lo, ,-0.333567762,-0.100614487,1,0,0,2.3333,text_option_1,,0,141,141,69,1
5f6677f7035c6c267ea50fed,63f3cfca20052e4ae7554ebf,6453cba451d54e749fcc0a00,2023-05-04_17h14.07.767,ga_syllabified_check,2022.2.5,Win32,59.56635692,,,,,,,,,,,,,,./stim/p06_syllable_1_lliape_hit.wav,p06,lliape,hit,lli-lla-pe,llia-pe,lli-a-pe, ,0.412341767,-0.109868979,1,0,0,1.2501,text_option_2,,0,142,142,122,1
5f6677f7035c6c267ea50fed,63f3cfca20052e4ae7554ebf,6453cba451d54e749fcc0a00,2023-05-04_17h14.07.767,ga_syllabified_check,2022.2.5,Win32,59.56635692,,,,,,,,,,,,,,./stim/p04_syllable_1_chiaba_hit.wav,p04,chiaba,hit,chia-ba,chia-ba,chi-a-ba, ,-0.409454346,-0.090434599,1,0,0,0.6999,text_option_1,,0,143,143,34,1
5f6677f7035c6c267ea50fed,63f3cfca20052e4ae7554ebf,6453cba451d54e749fcc0a00,2023-05-04_17h14.07.767,ga_syllabified_check,2022.2.5,Win32,59.56635692,,,,,,,,,,,,,,./stim/p08_syllable_1_lakagiaisto_hit.wav,p08,lakagiaisto,hit,la-ka-gi-jas-to,la-ka-giais-to,la-ka-gi-ais-to,la-ka-gia-is-to,-0.012437954,-0.104316308,1,0,0,3.7001,text_option_3,,0,144,144,182,1
5f6677f7035c6c267ea50fed,63f3cfca20052e4ae7554ebf,6453cba451d54e749fcc0a00,2023-05-04_17h14.07.767,ga_syllabified_check,2022.2.5,Win32,59.56635692,,,,,,,,,,,,,,./stim/p03_syllable_1_lakapuaisto_hit.wav,p03,lakapuaisto,hit,la-ka-puais-to,la-ka-puais-to,la-ka-pu-ais-to,la-ka-pua-is-to,-0.308580709,-0.104316308,1,0,0,1.8165,text_option_1,,0,145,145,17,1
5f6677f7035c6c267ea50fed,63f3cfca20052e4ae7554ebf,6453cba451d54e749fcc0a00,2023-05-04_17h14.07.767,ga_syllabified_check,2022.2.5,Win32,59.56635692,,,,,,,,,,,,,,./stim/p03_syllable_1_mebochiana_hit.wav,p03,mebochiana,hit,me-bo-chia-na,me-bo-chia-na,me-bo-chi-a-na, ,-0.306729799,-0.110794435,1,0,0,1.65,text_option_1,,0,146,146,22,1
5f6677f7035c6c267ea50fed,63f3cfca20052e4ae7554ebf,6453cba451d54e749fcc0a00,2023-05-04_17h14.07.767,ga_syllabified_check,2022.2.5,Win32,59.56635692,,,,,,,,,,,,,,./stim/p06_syllable_1_lakabuaisto_hit.wav,p06,lakabuaisto,hit,la-ka-bu-a-is,la-ka-buais-to,la-ka-bu-ais-to,la-ka-bua-is-to,0.37624937,-0.117272562,1,0,0,4.2668,text_option_2,,0,147,147,109,1
5f6677f7035c6c267ea50fed,63f3cfca20052e4ae7554ebf,6453cba451d54e749fcc0a00,2023-05-04_17h14.07.767,ga_syllabified_check,2022.2.5,Win32,59.56635692,,,,,,,,,,,,,,./stim/p03_syllable_1_palufauto_hit.wav,p03,palufauto,hit,pa-lu-fau,pa-lu-fau-to,pa-lu-fa-u-to, ,-0.395572666,-0.108943524,1,0,0,2.1835,text_option_1,,0,148,148,26,1
5f6677f7035c6c267ea50fed,63f3cfca20052e4ae7554ebf,6453cba451d54e749fcc0a00,2023-05-04_17h14.07.767,ga_syllabified_check,2022.2.5,Win32,59.56635692,,,,,,,,,,,,,,./stim/p08_syllable_1_lakadiaisto_hit.wav,p08,lakadiaisto,hit,la-ka-di-jas-to,la-ka-diais-to,la-ka-di-ais-to,la-ka-dia-is-to,-0.328940545,-0.088583688,1,0,0,6.7501,text_option_1,,0,149,149,178,1
5f6677f7035c6c267ea50fed,63f3cfca20052e4ae7554ebf,6453cba451d54e749fcc0a00,2023-05-04_17h14.07.767,ga_syllabified_check,2022.2.5,Win32,59.56635692,,,,,,,,,,,,,,./stim/p05_syllable_1_lakatuaisto_hit.wav,p05,lakatuaisto,hit,la-ka-tais-to,la-ka-tuais-to,la-ka-tu-ais-to,la-ka-tua-is-to,-0.290071783,-0.102465397,1,0,0,3.5501,text_option_1,,0,150,150,87,1
5f6677f7035c6c267ea50fed,63f3cfca20052e4ae7554ebf,6453cba451d54e749fcc0a00,2023-05-04_17h14.07.767,ga_syllabified_check,2022.2.5,Win32,59.56635692,,,,,,,,,,,,,,./stim/p06_syllable_1_lakafuaisto_hit.wav,p06,lakafuaisto,hit,la-ka-fu-a-is,la-ka-fuais-to,la-ka-fu-ais-to,la-ka-fua-is-to,0.301288212,-0.106167218,1,0,0,5.75,text_option_2,,0,151,151,113,1
5f6677f7035c6c267ea50fed,63f3cfca20052e4ae7554ebf,6453cba451d54e749fcc0a00,2023-05-04_17h14.07.767,ga_syllabified_check,2022.2.5,Win32,59.56635692,,,,,,,,,,,,,,./stim/p07_syllable_1_nhiape_hit.wav,p07,ñiape,hit,nhia-pe,ñia-pe,ñi-a-pe, ,-0.40667801,-0.105241763,1,0,0,1.75,text_option_1,,0,152,152,159,1
5f6677f7035c6c267ea50fed,63f3cfca20052e4ae7554ebf,6453cba451d54e749fcc0a00,2023-05-04_17h14.07.767,ga_syllabified_check,2022.2.5,Win32,59.56635692,,,,,,,,,,,,,,./stim/p08_syllable_1_palumaisto_hit.wav,p08,palumaisto,hit,pa-lu-mais-to,pa-lu-mais-to,pa-lu-ma-is-to, ,-0.310431619,-0.116347106,1,0,0,2.1001,text_option_1,,0,153,153,198,1
5f6677f7035c6c267ea50fed,63f3cfca20052e4ae7554ebf,6453cba451d54e749fcc0a00,2023-05-04_17h14.07.767,ga_syllabified_check,2022.2.5,Win32,59.56635692,,,,,,,,,,,,,,./stim/p05_syllable_1_palutrauco_hit.wav,p05,palutrauco,hit,pa-lu-trai-co,pa-lu-trau-co,pa-lu-tra-u-co, ,-0.331716851,-0.110794435,1,0,0,1.6999,text_option_1,,0,154,154,97,1
5f6677f7035c6c267ea50fed,63f3cfca20052e4ae7554ebf,6453cba451d54e749fcc0a00,2023-05-04_17h14.07.767,ga_syllabified_check,2022.2.5,Win32,59.56635692,,,,,,,,,,,,,,./stim/p06_syllable_1_lakaguaisto_hit.wav,p06,lakaguaisto,hit,la-ka-gu-a-is,la-ka-guais-to,la-ka-gu-ais-to,la-ka-gua-is-to,0.37439846,-0.114496196,1,0,0,5.8166,text_option_2,,0,155,155,115,1
5f6677f7035c6c267ea50fed,63f3cfca20052e4ae7554ebf,6453cba451d54e749fcc0a00,2023-05-04_17h14.07.767,ga_syllabified_check,2022.2.5,Win32,59.56635692,,,,,,,,,,,,,,./stim/p08_syllable_1_lakafiaisto_hit.wav,p08,lakafiaisto,hit,la-ka-fi-as-to,la-ka-fiais-to,la-ka-fi-ais-to,la-ka-fia-is-to,-0.399274428,-0.09598727,1,0,0,4.4664,text_option_1,,0,156,156,180,1
5f6677f7035c6c267ea50fed,63f3cfca20052e4ae7554ebf,6453cba451d54e749fcc0a00,2023-05-04_17h14.07.767,ga_syllabified_check,2022.2.5,Win32,59.56635692,,,,,,,,,,,,,,./stim/p04_syllable_1_lakapiaisto_hit.wav,p04,lakapiaisto,hit,la-ka-piais-to,la-ka-piais-to,la-ka-pi-ais-to,la-ka-pia-is-to,-0.336344127,-0.110794435,1,0,0,2.3501,text_option_1,,0,157,157,50,1
5f6677f7035c6c267ea50fed,63f3cfca20052e4ae7554ebf,6453cba451d54e749fcc0a00,2023-05-04_17h14.07.767,ga_syllabified_check,2022.2.5,Win32,59.56635692,,,,,,,,,,,,,,./stim/p03_syllable_1_lakafuaisto_hit.wav,p03,lakafuaisto,hit,la-ka-fuais-to,la-ka-fuais-to,la-ka-fu-ais-to,la-ka-fua-is-to,-0.334493217,-0.100614487,1,0,0,3,text_option_1,,0,158,158,11,1
5f6677f7035c6c267ea50fed,63f3cfca20052e4ae7554ebf,6453cba451d54e749fcc0a00,2023-05-04_17h14.07.767,ga_syllabified_check,2022.2.5,Win32,59.56635692,,,,,,,,,,,,,,./stim/p06_syllable_1_palumaisto_hit.wav,p06,palumaisto,hit,pa-lu-ma-is-to,pa-lu-mais-to,pa-lu-ma-is-to, ,0.345709704,-0.114496196,1,0,0,3.2168,text_option_2,,0,159,159,130,1
5f6677f7035c6c267ea50fed,63f3cfca20052e4ae7554ebf,6453cba451d54e749fcc0a00,2023-05-04_17h14.07.767,ga_syllabified_check,2022.2.5,Win32,59.56635692,,,,,,,,,,,,,,./stim/p07_syllable_1_rausto_hit.wav,p07,rausto,hit,raus-to,raus-to,ra-us-to, ,-0.357629359,-0.097838181,1,0,0,1.4498,text_option_1,,0,160,160,167,1
5f6677f7035c6c267ea50fed,63f3cfca20052e4ae7554ebf,6453cba451d54e749fcc0a00,2023-05-04_17h14.07.767,ga_syllabified_check,2022.2.5,Win32,59.56635692,,,,,,,,,,,,,,./stim/p07_syllable_1_faluduako_hit.wav,p07,faluduako,hit,fa-lu-dua-ko,fa-lu-dua-ko,fa-lu-du-a-ko, ,-0.340971344,-0.100614487,1,0,0,2.35,text_option_1,,0,161,161,138,1
5f6677f7035c6c267ea50fed,63f3cfca20052e4ae7554ebf,6453cba451d54e749fcc0a00,2023-05-04_17h14.07.767,ga_syllabified_check,2022.2.5,Win32,59.56635692,,,,,,,,,,,,,,./stim/p08_syllable_1_lakaguaisto_hit.wav,p08,lakaguaisto,hit,la-ka-gu-ais-to,la-ka-guais-to,la-ka-gu-ais-to,la-ka-gua-is-to,0.404012788,-0.101539942,1,0,0,4.0841,text_option_2,,0,162,162,183,1
5f6677f7035c6c267ea50fed,63f3cfca20052e4ae7554ebf,6453cba451d54e749fcc0a00,2023-05-04_17h14.07.767,ga_syllabified_check,2022.2.5,Win32,59.56635692,,,,,,,,,,,,,,./stim/p07_syllable_1_palufauro_hit.wav,p07,palufauro,hit,pa-lu-fau-ro,pa-lu-fau-ro,pa-lu-fa-u-ro, ,-0.355778449,-0.102465397,1,0,0,1.3834,text_option_1,,0,163,163,161,1
5f6677f7035c6c267ea50fed,63f3cfca20052e4ae7554ebf,6453cba451d54e749fcc0a00,2023-05-04_17h14.07.767,ga_syllabified_check,2022.2.5,Win32,59.56635692,,,,,,,,,,,,,,./stim/p06_syllable_1_ruyiola_hit.wav,p06,ruyiola,hit,ru-yi-o-la,ru-yio-la,ru-yi-o-la, ,0.367920392,-0.098763636,1,0,0,1.6835,text_option_2,,0,164,164,134,1
5f6677f7035c6c267ea50fed,63f3cfca20052e4ae7554ebf,6453cba451d54e749fcc0a00,2023-05-04_17h14.07.767,ga_syllabified_check,2022.2.5,Win32,59.56635692,,,,,,,,,,,,,,./stim/p08_syllable_1_falutraigo_hit.wav,p08,falutraigo,hit,fa-lu-trai-go,fa-lu-trai-go,fa-lu-tra-i-go, ,-0.331716851,-0.11171989,1,0,0,2.9666,text_option_1,,0,165,165,174,1
5f6677f7035c6c267ea50fed,63f3cfca20052e4ae7554ebf,6453cba451d54e749fcc0a00,2023-05-04_17h14.07.767,ga_syllabified_check,2022.2.5,Win32,59.56635692,,,,,,,,,,,,,,./stim/p07_syllable_1_lakagiaisto_hit.wav,p07,lakagiaisto,hit,la-ka-gais-to,la-ka-giais-to,la-ka-gi-ais-to,la-ka-gia-is-to,-0.37336192,-0.098763636,1,0,0,4.3837,text_option_1,,0,166,166,148,1
5f6677f7035c6c267ea50fed,63f3cfca20052e4ae7554ebf,6453cba451d54e749fcc0a00,2023-05-04_17h14.07.767,ga_syllabified_check,2022.2.5,Win32,59.56635692,,,,,,,,,,,,,,./stim/p04_syllable_1_palufauto_hit.wav,p04,palufauto,hit,pa-lu-fau-to,pa-lu-fau-to,pa-lu-fa-u-to, ,-0.319686053,-0.119123413,1,0,0,1.0835,text_option_1,,0,167,167,60,1
5f6677f7035c6c267ea50fed,63f3cfca20052e4ae7554ebf,6453cba451d54e749fcc0a00,2023-05-04_17h14.07.767,ga_syllabified_check,2022.2.5,Win32,59.56635692,,,,,,,,,,,,,,./stim/p07_syllable_1_tuliafo_hit.wav,p07,tuliafo,hit,tu-lia-fo,tu-lia-fo,tu-li-a-fo, ,-0.348374984,-0.108943524,1,0,0,1.5668,text_option_1,,0,168,168,169,1
5f6677f7035c6c267ea50fed,63f3cfca20052e4ae7554ebf,6453cba451d54e749fcc0a00,2023-05-04_17h14.07.767,ga_syllabified_check,2022.2.5,Win32,59.56635692,,,,,,,,,,,,,,./stim/p08_syllable_1_palufauro_hit.wav,p08,palufauro,hit,pa-lu-fau-ro,pa-lu-fau-ro,pa-lu-fa-u-ro, ,-0.350225777,-0.099689091,1,0,0,2.6668,text_option_1,,0,169,169,195,1
5f6677f7035c6c267ea50fed,63f3cfca20052e4ae7554ebf,6453cba451d54e749fcc0a00,2023-05-04_17h14.07.767,ga_syllabified_check,2022.2.5,Win32,59.56635692,,,,,,,,,,,,,,./stim/p08_syllable_1_falufaisto_hit.wav,p08,falufaisto,hit,fa-lu-fais-to,fa-lu-fais-to,fa-lu-fa-is-to, ,-0.361331121,-0.108018069,1,0,0,1.9332,text_option_1,,0,170,170,173,1
5f6677f7035c6c267ea50fed,63f3cfca20052e4ae7554ebf,6453cba451d54e749fcc0a00,2023-05-04_17h14.07.767,ga_syllabified_check,2022.2.5,Win32,59.56635692,,,,,,,,,,,,,,./stim/p04_syllable_1_lakakiaisto_hit.wav,p04,lakakiaisto,hit,la-ka-kiais-to,la-ka-kiais-to,la-ka-ki-ais-to,la-ka-kia-is-to,-0.031872335,-0.097838181,1,0,0,5.4168,text_option_3,,0,171,171,48,1
5f6677f7035c6c267ea50fed,63f3cfca20052e4ae7554ebf,6453cba451d54e749fcc0a00,2023-05-04_17h14.07.767,ga_syllabified_check,2022.2.5,Win32,59.56635692,,,,,,,,,,,,,,./stim/p07_syllable_1_lakatiaisto_hit.wav,p07,lakatiaisto,hit,la-ka-tiai-sto,la-ka-tiais-to,la-ka-ti-ais-to,la-ka-tia-is-to,-0.321536963,-0.102465397,1,0,0,4.4667,text_option_1,,0,172,172,154,1
5f6677f7035c6c267ea50fed,63f3cfca20052e4ae7554ebf,6453cba451d54e749fcc0a00,2023-05-04_17h14.07.767,ga_syllabified_check,2022.2.5,Win32,59.56635692,,,,,,,,,,,,,,./stim/p04_syllable_1_lakabuaisto_hit.wav,p04,lakabuaisto,hit,la-ka-buais-to,la-ka-buais-to,la-ka-bu-ais-to,la-ka-bua-is-to,-0.290997238,-0.108018069,1,0,0,1.9666,text_option_1,,0,173,173,41,1
5f6677f7035c6c267ea50fed,63f3cfca20052e4ae7554ebf,6453cba451d54e749fcc0a00,2023-05-04_17h14.07.767,ga_syllabified_check,2022.2.5,Win32,59.56635692,,,,,,,,,,,,,,./stim/p05_syllable_1_palufauto_hit.wav,p05,palufauto,hit,pa-lu-fau-to,pa-lu-fau-to,pa-lu-fa-u-to, ,-0.340971344,-0.105241763,1,0,0,0.9667,text_option_1,,0,174,174,94,1
5f6677f7035c6c267ea50fed,63f3cfca20052e4ae7554ebf,6453cba451d54e749fcc0a00,2023-05-04_17h14.07.767,ga_syllabified_check,2022.2.5,Win32,59.56635692,,,,,,,,,,,,,,./stim/p06_syllable_1_rausto_hit.wav,p06,rausto,hit,ra-us-to,raus-to,ra-us-to, ,0.380876646,-0.116347106,1,0,0,1.8165,text_option_2,,0,175,175,133,1
5f6677f7035c6c267ea50fed,63f3cfca20052e4ae7554ebf,6453cba451d54e749fcc0a00,2023-05-04_17h14.07.767,ga_syllabified_check,2022.2.5,Win32,59.56635692,,,,,,,,,,,,,,./stim/p06_syllable_1_lakakuaisto_hit.wav,p06,lakakuaisto,hit,la-ka-ku-a-is,la-ka-kuais-to,la-ka-ku-ais-to,la-ka-kua-is-to,0.447508708,-0.101539942,1,0,0,2.8334,text_option_2,,0,176,176,117,1
5f6677f7035c6c267ea50fed,63f3cfca20052e4ae7554ebf,6453cba451d54e749fcc0a00,2023-05-04_17h14.07.767,ga_syllabified_check,2022.2.5,Win32,59.56635692,,,,,,,,,,,,,,./stim/p08_syllable_1_lakapiaisto_hit.wav,p08,lakapiaisto,hit,la-ka-pi-as-to,la-ka-piais-to,la-ka-pi-ais-to,la-ka-pia-is-to,0.337380608,-0.100614487,1,0,0,7.55,text_option_2,,0,177,177,186,1
5f6677f7035c6c267ea50fed,63f3cfca20052e4ae7554ebf,6453cba451d54e749fcc0a00,2023-05-04_17h14.07.767,ga_syllabified_check,2022.2.5,Win32,59.56635692,,,,,,,,,,,,,,./stim/p08_syllable_1_lakaduaisto_hit.wav,p08,lakaduaisto,hit,la-ka-du-ais-to,la-ka-duais-to,la-ka-du-ais-to,la-ka-dua-is-to,0.32905163,-0.108018069,1,0,0,5.5498,text_option_2,,0,178,178,179,1
5f6677f7035c6c267ea50fed,63f3cfca20052e4ae7554ebf,6453cba451d54e749fcc0a00,2023-05-04_17h14.07.767,ga_syllabified_check,2022.2.5,Win32,59.56635692,,,,,,,,,,,,,,./stim/p03_syllable_1_palufauro_hit.wav,p03,palufauro,hit,pa-lu-fau-ro,pa-lu-fau-ro,pa-lu-fa-u-ro, ,-0.379840047,-0.107092614,1,0,0,1.5,text_option_1,,0,179,179,25,1
5f6677f7035c6c267ea50fed,63f3cfca20052e4ae7554ebf,6453cba451d54e749fcc0a00,2023-05-04_17h14.07.767,ga_syllabified_check,2022.2.5,Win32,59.56635692,,,,,,,,,,,,,,./stim/p05_syllable_1_lakapiaisto_hit.wav,p05,lakapiaisto,hit,la-ka-pais-to,la-ka-piais-to,la-ka-pi-ais-to,la-ka-pia-is-to,-0.337269523,-0.114496196,1,0,0,4.7667,text_option_1,,0,180,180,84,1
5f6677f7035c6c267ea50fed,63f3cfca20052e4ae7554ebf,6453cba451d54e749fcc0a00,2023-05-04_17h14.07.767,ga_syllabified_check,2022.2.5,Win32,59.56635692,,,,,,,,,,,,,,./stim/p08_syllable_1_lakapuaisto_hit.wav,p08,lakapuaisto,hit,la-ka-pu-as-to,la-ka-puais-to,la-ka-pu-ais-to,la-ka-pua-is-to,0.33275345,-0.089509143,1,0,0,5.4834,text_option_2,,0,181,181,187,1
5f6677f7035c6c267ea50fed,63f3cfca20052e4ae7554ebf,6453cba451d54e749fcc0a00,2023-05-04_17h14.07.767,ga_syllabified_check,2022.2.5,Win32,59.56635692,,,,,,,,,,,,,,./stim/p05_syllable_1_lakafuaisto_hit.wav,p05,lakafuaisto,hit,la-ka-fais-to,la-ka-fuais-to,la-ka-fu-ais-to,la-ka-fua-is-to,-0.321536963,-0.106167218,1,0,0,3.1334,text_option_1,,0,182,182,79,1
5f6677f7035c6c267ea50fed,63f3cfca20052e4ae7554ebf,6453cba451d54e749fcc0a00,2023-05-04_17h14.07.767,ga_syllabified_check,2022.2.5,Win32,59.56635692,,,,,,,,,,,,,,./stim/p08_syllable_1_lakakuaisto_hit.wav,p08,lakakuaisto,hit,la-ka-ku-ais-to,la-ka-kuais-to,la-ka-ku-ais-to,la-ka-kua-is-to,0.401236423,-0.102465397,1,0,0,3.3345,text_option_2,,0,183,183,185,1
5f6677f7035c6c267ea50fed,63f3cfca20052e4ae7554ebf,6453cba451d54e749fcc0a00,2023-05-04_17h14.07.767,ga_syllabified_check,2022.2.5,Win32,59.56635692,,,,,,,,,,,,,,./stim/p07_syllable_1_ruyiola_hit.wav,p07,ruyiola,hit,ru-yio-la,ru-yio-la,ru-yi-o-la, ,-0.403901674,-0.109868979,1,0,0,1.5666,text_option_1,,0,184,184,168,1
5f6677f7035c6c267ea50fed,63f3cfca20052e4ae7554ebf,6453cba451d54e749fcc0a00,2023-05-04_17h14.07.767,ga_syllabified_check,2022.2.5,Win32,59.56635692,,,,,,,,,,,,,,./stim/p03_syllable_1_paluguato_hit.wav,p03,paluguato,hit,pa-lu-gua,pa-lu-gua-to,pa-lu-gu-a-to, ,-0.340971344,-0.110794435,1,0,0,2.1667,text_option_1,,0,185,185,27,1
5f6677f7035c6c267ea50fed,63f3cfca20052e4ae7554ebf,6453cba451d54e749fcc0a00,2023-05-04_17h14.07.767,ga_syllabified_check,2022.2.5,Win32,59.56635692,,,,,,,,,,,,,,./stim/p04_syllable_1_lakaduaisto_hit.wav,p04,lakaduaisto,hit,la-ka-duais-to,la-ka-duais-to,la-ka-du-ais-to,la-ka-dua-is-to,-0.340971344,-0.114496196,1,0,0,1.4333,text_option_1,,0,186,186,43,1
5f6677f7035c6c267ea50fed,63f3cfca20052e4ae7554ebf,6453cba451d54e749fcc0a00,2023-05-04_17h14.07.767,ga_syllabified_check,2022.2.5,Win32,59.56635692,,,,,,,,,,,,,,./stim/p05_syllable_1_paluguato_hit.wav,p05,paluguato,hit,pa-lu-gau-to,pa-lu-gua-to,pa-lu-gu-a-to, ,0.392907445,-0.108943524,1,0,0,2.4333,text_option_2,,0,187,187,95,1
5f6677f7035c6c267ea50fed,63f3cfca20052e4ae7554ebf,6453cba451d54e749fcc0a00,2023-05-04_17h14.07.767,ga_syllabified_check,2022.2.5,Win32,59.56635692,,,,,,,,,,,,,,./stim/p04_syllable_1_lakabiaisto_hit.wav,p04,lakabiaisto,hit,la-ka-biais-to,la-ka-biais-to,la-ka-bi-ais-to,la-ka-bia-is-to,-0.332642306,-0.110794435,1,0,0,2.0498,text_option_1,,0,188,188,40,1
5f6677f7035c6c267ea50fed,63f3cfca20052e4ae7554ebf,6453cba451d54e749fcc0a00,2023-05-04_17h14.07.767,ga_syllabified_check,2022.2.5,Win32,59.56635692,,,,,,,,,,,,,,./stim/p05_syllable_1_lakaduaisto_hit.wav,p05,lakaduaisto,hit,la-ka-dais-to,la-ka-duais-to,la-ka-du-ais-to,la-ka-dua-is-to,0.339231519,-0.118198017,1,0,0,4.7169,text_option_2,,0,189,189,77,1
5f6677f7035c6c267ea50fed,63f3cfca20052e4ae7554ebf,6453cba451d54e749fcc0a00,2023-05-04_17h14.07.767,ga_syllabified_check,2022.2.5,Win32,59.56635692,,,,,,,,,,,,,,./stim/p03_syllable_1_lakabiaisto_hit.wav,p03,lakabiaisto,hit,la-ka-biais-to,la-ka-biais-to,la-ka-bi-ais-to,la-ka-bia-is-to,-0.384467322,-0.108943524,1,0,0,1.6334,text_option_1,,0,190,190,6,1
5f6677f7035c6c267ea50fed,63f3cfca20052e4ae7554ebf,6453cba451d54e749fcc0a00,2023-05-04_17h14.07.767,ga_syllabified_check,2022.2.5,Win32,59.56635692,,,,,,,,,,,,,,./stim/p07_syllable_1_lakafuaisto_hit.wav,p07,lakafuaisto,hit,la-ka-fuais-to,la-ka-fuais-to,la-ka-fu-ais-to,la-ka-fua-is-to,-0.381690957,-0.110794435,1,0,0,1.9001,text_option_1,,0,191,191,147,1
5f6677f7035c6c267ea50fed,63f3cfca20052e4ae7554ebf,6453cba451d54e749fcc0a00,2023-05-04_17h14.07.767,ga_syllabified_check,2022.2.5,Win32,59.56635692,,,,,,,,,,,,,,./stim/p06_syllable_1_lakaduaisto_hit.wav,p06,lakaduaisto,hit,la-ka-du-a-is,la-ka-duais-to,la-ka-du-ais-to,la-ka-dua-is-to,0.381802101,-0.114496196,1,0,0,2.9667,text_option_2,,0,192,192,111,1
5f6677f7035c6c267ea50fed,63f3cfca20052e4ae7554ebf,6453cba451d54e749fcc0a00,2023-05-04_17h14.07.767,ga_syllabified_check,2022.2.5,Win32,59.56635692,,,,,,,,,,,,,,./stim/p07_syllable_1_lakakiaisto_hit.wav,p07,lakakiaisto,hit,la-ka-kais-to,la-ka-kiais-to,la-ka-ki-ais-to,la-ka-kia-is-to,-0.325238724,-0.108943524,0,0,1,3.8502,text_option_1,,0,193,193,150,1
5f6677f7035c6c267ea50fed,63f3cfca20052e4ae7554ebf,6453cba451d54e749fcc0a00,2023-05-04_17h14.07.767,ga_syllabified_check,2022.2.5,Win32,59.56635692,,,,,,,,,,,,,,./stim/p04_syllable_1_falutraigo_hit.wav,p04,falutraigo,hit,fa-lu-trai-go,fa-lu-trai-go,fa-lu-tra-i-go, ,-0.346524016,-0.109868979,1,0,0,2.5501,text_option_1,,0,194,194,38,1
5f6677f7035c6c267ea50fed,63f3cfca20052e4ae7554ebf,6453cba451d54e749fcc0a00,2023-05-04_17h14.07.767,ga_syllabified_check,2022.2.5,Win32,59.56635692,,,,,,,,,,,,,,./stim/p03_syllable_1_lakakuaisto_hit.wav,p03,lakakuaisto,hit,la-ka-kuais-to,la-ka-kuais-to,la-ka-ku-ais-to,la-ka-kua-is-to,-0.333567762,-0.102465397,1,0,0,1.919,text_option_1,,0,195,195,15,1
5f6677f7035c6c267ea50fed,63f3cfca20052e4ae7554ebf,6453cba451d54e749fcc0a00,2023-05-04_17h14.07.767,ga_syllabified_check,2022.2.5,Win32,59.56635692,,,,,,,,,,,,,,./stim/p04_syllable_1_tuliafo_hit.wav,p04,tuliafo,hit,tu-lia-fo,tu-lia-fo,tu-li-a-fo, ,-0.344673105,-0.108943524,1,0,0,0.8334,text_option_1,,0,196,196,67,1
5f6677f7035c6c267ea50fed,63f3cfca20052e4ae7554ebf,6453cba451d54e749fcc0a00,2023-05-04_17h14.07.767,ga_syllabified_check,2022.2.5,Win32,59.56635692,,,,,,,,,,,,,,./stim/p03_syllable_1_lakabuaisto_hit.wav,p03,lakabuaisto,hit,la-ka-buais-to,la-ka-buais-to,la-ka-bu-ais-to,la-ka-bua-is-to,-0.327089635,-0.109868979,1,0,0,1.7834,text_option_1,,0,197,197,7,1
5f6677f7035c6c267ea50fed,63f3cfca20052e4ae7554ebf,6453cba451d54e749fcc0a00,2023-05-04_17h14.07.767,ga_syllabified_check,2022.2.5,Win32,59.56635692,,,,,,,,,,,,,,./stim/p03_syllable_1_lakadiaisto_hit.wav,p03,lakadiaisto,hit,la-ka-diais-to,la-ka-diais-to,la-ka-di-ais-to,la-ka-dia-is-to,-0.340971344,-0.102465397,1,0,0,2.15,text_option_1,,0,198,198,8,1
5f6677f7035c6c267ea50fed,63f3cfca20052e4ae7554ebf,6453cba451d54e749fcc0a00,2023-05-04_17h14.07.767,ga_syllabified_check,2022.2.5,Win32,59.56635692,,,,,,,,,,,,,,./stim/p04_syllable_1_lakaguaisto_hit.wav,p04,lakaguaisto,hit,la-ka-guais-to,la-ka-guais-to,la-ka-gu-ais-to,la-ka-gua-is-to,-0.354852994,-0.116347106,1,0,0,2.05,text_option_1,,0,199,199,47,1
5f6677f7035c6c267ea50fed,63f3cfca20052e4ae7554ebf,6453cba451d54e749fcc0a00,2023-05-04_17h14.07.767,ga_syllabified_check,2022.2.5,Win32,59.56635692,,,,,,,,,,,,,,./stim/p04_syllable_1_lakafiaisto_hit.wav,p04,lakafiaisto,hit,la-ka-fiais-to,la-ka-fiais-to,la-ka-fi-ais-to,la-ka-fia-is-to,-0.353927598,-0.107092614,1,0,0,1.6,text_option_1,,0,200,200,44,1
5f6677f7035c6c267ea50fed,63f3cfca20052e4ae7554ebf,6453cba451d54e749fcc0a00,2023-05-04_17h14.07.767,ga_syllabified_check,2022.2.5,Win32,59.56635692,,,,,,,,,,,,,,./stim/p07_syllable_1_lakafiaisto_hit.wav,p07,lakafiaisto,hit,la-ka-fiais-to,la-ka-fiais-to,la-ka-fi-ais-to,la-ka-fia-is-to,0.055119622,-0.099689091,1,0,0,5.45,text_option_3,,0,201,201,146,1
5f6677f7035c6c267ea50fed,63f3cfca20052e4ae7554ebf,6453cba451d54e749fcc0a00,2023-05-04_17h14.07.767,ga_syllabified_check,2022.2.5,Win32,59.56635692,,,,,,,,,,,,,,./stim/p08_syllable_1_tuliafo_hit.wav,p08,tuliafo,hit,tu-li-a-fo,tu-lia-fo,tu-li-a-fo, ,0.349411407,-0.102465397,1,0,0,1.9499,text_option_2,,0,202,202,203,1
5f6677f7035c6c267ea50fed,63f3cfca20052e4ae7554ebf,6453cba451d54e749fcc0a00,2023-05-04_17h14.07.767,ga_syllabified_check,2022.2.5,Win32,59.56635692,,,,,,,,,,,,,,./stim/p06_syllable_1_lakadiaisto_hit.wav,p06,lakadiaisto,hit,la-ka-dia-is-to,la-ka-diais-to,la-ka-di-ais-to,la-ka-dia-is-to,0.062523145,-0.099689091,1,0,0,2.6166,text_option_3,,0,203,203,110,1
5f6677f7035c6c267ea50fed,63f3cfca20052e4ae7554ebf,6453cba451d54e749fcc0a00,2023-05-04_17h14.07.767,ga_syllabified_check,2022.2.5,Win32,59.56635692,,,,,,,,,,,,,,,,,,,,,,,,,,,,,,,,,,
