participant,study,session,date,expName,psychopyVersion,OS,frameRate,mouse_practice.x,mouse_practice.y,mouse_practice.leftButton,mouse_practice.midButton,mouse_practice.rightButton,mouse_practice.time,mouse_practice.clicked_name,textbox_followup_practice.text,trials_practice.thisRepN,trials_practice.thisTrialN,trials_practice.thisN,trials_practice.thisIndex,trials_practice.ran,file_path,id,item,status,response,op1,op2,op3,mouse.x,mouse.y,mouse.leftButton,mouse.midButton,mouse.rightButton,mouse.time,mouse.clicked_name,textbox_followup.text,trials.thisRepN,trials.thisTrialN,trials.thisN,trials.thisIndex,trials.ran
5f6ce3aa36f6181177e93f0f,63f3cfca20052e4ae7554ebf,6453cb940cc48918528dbafb,2023-05-04_17h15.31.039,ga_syllabified_check,2022.2.5,Win32,5.99905215,,,,,,,,,,,,,,,,,,,,,,,,,,,,,,,,,,
5f6ce3aa36f6181177e93f0f,63f3cfca20052e4ae7554ebf,6453cb940cc48918528dbafb,2023-05-04_17h15.31.039,ga_syllabified_check,2022.2.5,Win32,5.99905215,0.397395833,-0.102864583,1,0,0,4.0718,text_option_2_practice,,0,0,0,0,1,./stim/p03_syllable_1_liamo_hit.wav,p03,liamo,hit,lia-mo,lia-mo,li-a-mo, ,,,,,,,,,,,,,
5f6ce3aa36f6181177e93f0f,63f3cfca20052e4ae7554ebf,6453cb940cc48918528dbafb,2023-05-04_17h15.31.039,ga_syllabified_check,2022.2.5,Win32,5.99905215,-0.378645833,-0.100260417,1,0,0,5.1762,text_option_1_practice,,0,1,1,1,1,./stim/p05_syllable_1_matio_hit.wav,p05,matio,hit,ma-tio,ma-tio,ma-ti-o, ,,,,,,,,,,,,,
5f6ce3aa36f6181177e93f0f,63f3cfca20052e4ae7554ebf,6453cb940cc48918528dbafb,2023-05-04_17h15.31.039,ga_syllabified_check,2022.2.5,Win32,5.99905215,0.373958333,-0.10546875,1,0,0,3.8428,text_option_2_practice,,0,2,2,2,1,./stim/p08_syllable_1_liamo_hit.wav,p08,liamo,hit,ja-mo,lia-mo,li-a-mo, ,,,,,,,,,,,,,
5f6ce3aa36f6181177e93f0f,63f3cfca20052e4ae7554ebf,6453cb940cc48918528dbafb,2023-05-04_17h15.31.039,ga_syllabified_check,2022.2.5,Win32,5.99905215,,,,,,,,,,,,,,,,,,,,,,,,,,,,,,,,,,
5f6ce3aa36f6181177e93f0f,63f3cfca20052e4ae7554ebf,6453cb940cc48918528dbafb,2023-05-04_17h15.31.039,ga_syllabified_check,2022.2.5,Win32,5.99905215,,,,,,,,,,,,,,./stim/p08_syllable_1_lakapiaisto_hit.wav,p08,lakapiaisto,hit,la-ka-pi-as-to,la-ka-piais-to,la-ka-pi-ais-to,la-ka-pia-is-to,0.366145833,-0.095052083,1,0,0,12.002,text_option_2,,0,0,0,186,1
5f6ce3aa36f6181177e93f0f,63f3cfca20052e4ae7554ebf,6453cb940cc48918528dbafb,2023-05-04_17h15.31.039,ga_syllabified_check,2022.2.5,Win32,5.99905215,,,,,,,,,,,,,,./stim/p04_syllable_1_lakaduaisto_hit.wav,p04,lakaduaisto,hit,la-ka-duais-to,la-ka-duais-to,la-ka-du-ais-to,la-ka-dua-is-to,-0.402083333,-0.10546875,1,0,0,3.8536,text_option_1,,0,1,1,43,1
5f6ce3aa36f6181177e93f0f,63f3cfca20052e4ae7554ebf,6453cb940cc48918528dbafb,2023-05-04_17h15.31.039,ga_syllabified_check,2022.2.5,Win32,5.99905215,,,,,,,,,,,,,,./stim/p04_syllable_1_falutraigo_hit.wav,p04,falutraigo,hit,fa-lu-trai-go,fa-lu-trai-go,fa-lu-tra-i-go, ,-0.36171875,-0.10546875,1,0,0,1.8894,text_option_1,,0,2,2,38,1
5f6ce3aa36f6181177e93f0f,63f3cfca20052e4ae7554ebf,6453cb940cc48918528dbafb,2023-05-04_17h15.31.039,ga_syllabified_check,2022.2.5,Win32,5.99905215,,,,,,,,,,,,,,./stim/p03_syllable_1_lakatuaisto_hit.wav,p03,lakatuaisto,hit,la-ka-tuais-to,la-ka-tuais-to,la-ka-tu-ais-to,la-ka-tua-is-to,-0.35,-0.106770833,1,0,0,4.4458,text_option_1,,0,3,3,19,1
5f6ce3aa36f6181177e93f0f,63f3cfca20052e4ae7554ebf,6453cb940cc48918528dbafb,2023-05-04_17h15.31.039,ga_syllabified_check,2022.2.5,Win32,5.99905215,,,,,,,,,,,,,,./stim/p04_syllable_1_lakafuaisto_hit.wav,p04,lakafuaisto,hit,la-ka-fuais-to,la-ka-fuais-to,la-ka-fu-ais-to,la-ka-fua-is-to,-0.370833333,-0.10546875,1,0,0,2.1528,text_option_1,,0,4,4,45,1
5f6ce3aa36f6181177e93f0f,63f3cfca20052e4ae7554ebf,6453cb940cc48918528dbafb,2023-05-04_17h15.31.039,ga_syllabified_check,2022.2.5,Win32,5.99905215,,,,,,,,,,,,,,./stim/p03_syllable_1_lakabiaisto_hit.wav,p03,lakabiaisto,hit,la-ka-biais-to,la-ka-biais-to,la-ka-bi-ais-to,la-ka-bia-is-to,-0.372135417,-0.100260417,1,0,0,3.256,text_option_1,,0,5,5,6,1
5f6ce3aa36f6181177e93f0f,63f3cfca20052e4ae7554ebf,6453cb940cc48918528dbafb,2023-05-04_17h15.31.039,ga_syllabified_check,2022.2.5,Win32,5.99905215,,,,,,,,,,,,,,./stim/p07_syllable_1_ruyiola_hit.wav,p07,ruyiola,hit,ru-yio-la,ru-yio-la,ru-yi-o-la, ,-0.40859375,-0.095052083,1,0,0,3.6256,text_option_1,,0,6,6,168,1
5f6ce3aa36f6181177e93f0f,63f3cfca20052e4ae7554ebf,6453cb940cc48918528dbafb,2023-05-04_17h15.31.039,ga_syllabified_check,2022.2.5,Win32,5.99905215,,,,,,,,,,,,,,./stim/p07_syllable_1_falutraigo_hit.wav,p07,falutraigo,hit,fa-lu-trai-go,fa-lu-trai-go,fa-lu-tra-i-go, ,-0.356510417,-0.108072917,1,0,0,10.3061,text_option_1,,0,7,7,140,1
5f6ce3aa36f6181177e93f0f,63f3cfca20052e4ae7554ebf,6453cb940cc48918528dbafb,2023-05-04_17h15.31.039,ga_syllabified_check,2022.2.5,Win32,5.99905215,,,,,,,,,,,,,,./stim/p03_syllable_1_ruyiola_hit.wav,p03,ruyiola,hit,ru-yio-la,ru-yio-la,ru-yi-o-la, ,-0.370833333,-0.095052083,1,0,0,4.7682,text_option_1,,0,8,8,32,1
5f6ce3aa36f6181177e93f0f,63f3cfca20052e4ae7554ebf,6453cb940cc48918528dbafb,2023-05-04_17h15.31.039,ga_syllabified_check,2022.2.5,Win32,5.99905215,,,,,,,,,,,,,,./stim/p04_syllable_1_lakapiaisto_hit.wav,p04,lakapiaisto,hit,la-ka-piais-to,la-ka-piais-to,la-ka-pi-ais-to,la-ka-pia-is-to,-0.383854167,-0.09765625,1,0,0,7.0593,text_option_1,,0,9,9,50,1
5f6ce3aa36f6181177e93f0f,63f3cfca20052e4ae7554ebf,6453cb940cc48918528dbafb,2023-05-04_17h15.31.039,ga_syllabified_check,2022.2.5,Win32,5.99905215,,,,,,,,,,,,,,./stim/p08_syllable_1_faluduako_hit.wav,p08,faluduako,hit,fa-lu-duai-ko,fa-lu-dua-ko,fa-lu-du-a-ko, ,0.004166667,-0.295572917,1,0,0,5.2149,text_option_other,fa-lu-diai-ko,0,10,10,172,1
5f6ce3aa36f6181177e93f0f,63f3cfca20052e4ae7554ebf,6453cb940cc48918528dbafb,2023-05-04_17h15.31.039,ga_syllabified_check,2022.2.5,Win32,5.99905215,,,,,,,,,,,,,,./stim/p03_syllable_1_nhiape_hit.wav,p03,ñiape,hit,nhia-pe,ñia-pe,ñi-a-pe, ,-0.417708333,-0.098958333,1,0,0,3.1483,text_option_1,,0,11,11,23,1
5f6ce3aa36f6181177e93f0f,63f3cfca20052e4ae7554ebf,6453cb940cc48918528dbafb,2023-05-04_17h15.31.039,ga_syllabified_check,2022.2.5,Win32,5.99905215,,,,,,,,,,,,,,./stim/p08_syllable_1_mebochiana_hit.wav,p08,mebochiana,hit,me-bo-chi-a-na,me-bo-chia-na,me-bo-chi-a-na, ,0.413020833,-0.098958333,1,0,0,2.576,text_option_2,,0,12,12,192,1
5f6ce3aa36f6181177e93f0f,63f3cfca20052e4ae7554ebf,6453cb940cc48918528dbafb,2023-05-04_17h15.31.039,ga_syllabified_check,2022.2.5,Win32,5.99905215,,,,,,,,,,,,,,./stim/p06_syllable_1_lakakiaisto_hit.wav,p06,lakakiaisto,hit,la-ka-kia-is-to,la-ka-kiais-to,la-ka-ki-ais-to,la-ka-kia-is-to,0.01328125,-0.106770833,1,0,0,4.702,text_option_3,,0,13,13,116,1
5f6ce3aa36f6181177e93f0f,63f3cfca20052e4ae7554ebf,6453cb940cc48918528dbafb,2023-05-04_17h15.31.039,ga_syllabified_check,2022.2.5,Win32,5.99905215,,,,,,,,,,,,,,./stim/p04_syllable_1_faluduako_hit.wav,p04,faluduako,hit,fa-lu-dua-ko,fa-lu-dua-ko,fa-lu-du-a-ko, ,-0.370833333,-0.096354167,1,0,0,3.4037,text_option_1,,0,14,14,36,1
5f6ce3aa36f6181177e93f0f,63f3cfca20052e4ae7554ebf,6453cb940cc48918528dbafb,2023-05-04_17h15.31.039,ga_syllabified_check,2022.2.5,Win32,5.99905215,,,,,,,,,,,,,,./stim/p06_syllable_1_pachialo_hit.wav,p06,pachialo,hit,pa-shi-a-lo,pa-chia-lo,pa-chi-a-lo, ,0.41171875,-0.100260417,1,0,0,1.8791,text_option_2,,0,15,15,126,1
5f6ce3aa36f6181177e93f0f,63f3cfca20052e4ae7554ebf,6453cb940cc48918528dbafb,2023-05-04_17h15.31.039,ga_syllabified_check,2022.2.5,Win32,5.99905215,,,,,,,,,,,,,,./stim/p06_syllable_1_palumaisto_hit.wav,p06,palumaisto,hit,pa-lu-ma-is-to,pa-lu-mais-to,pa-lu-ma-is-to, ,0.35703125,-0.109375,1,0,0,3.4294,text_option_2,,0,16,16,130,1
5f6ce3aa36f6181177e93f0f,63f3cfca20052e4ae7554ebf,6453cb940cc48918528dbafb,2023-05-04_17h15.31.039,ga_syllabified_check,2022.2.5,Win32,5.99905215,,,,,,,,,,,,,,./stim/p05_syllable_1_lakafiaisto_hit.wav,p05,lakafiaisto,hit,la-ka-fi-ais-to,la-ka-fiais-to,la-ka-fi-ais-to,la-ka-fia-is-to,0.3921875,-0.1015625,1,0,0,4.9211,text_option_2,,0,17,17,78,1
5f6ce3aa36f6181177e93f0f,63f3cfca20052e4ae7554ebf,6453cb940cc48918528dbafb,2023-05-04_17h15.31.039,ga_syllabified_check,2022.2.5,Win32,5.99905215,,,,,,,,,,,,,,./stim/p04_syllable_1_costonhialo_hit.wav,p04,costoñialo,hit,cos-to-nhia-lo,cos-to-ñia-lo,cos-to-ñi-a-lo, ,-0.343489583,-0.100260417,1,0,0,5.0514,text_option_1,,0,18,18,35,1
5f6ce3aa36f6181177e93f0f,63f3cfca20052e4ae7554ebf,6453cb940cc48918528dbafb,2023-05-04_17h15.31.039,ga_syllabified_check,2022.2.5,Win32,5.99905215,,,,,,,,,,,,,,./stim/p06_syllable_1_lakagiaisto_hit.wav,p06,lakagiaisto,hit,la-ka-gia-is-to,la-ka-giais-to,la-ka-gi-ais-to,la-ka-gia-is-to,-0.016666667,-0.09765625,1,0,0,6.7651,text_option_3,,0,19,19,114,1
5f6ce3aa36f6181177e93f0f,63f3cfca20052e4ae7554ebf,6453cb940cc48918528dbafb,2023-05-04_17h15.31.039,ga_syllabified_check,2022.2.5,Win32,5.99905215,,,,,,,,,,,,,,./stim/p07_syllable_1_flauro_hit.wav,p07,flauro,hit,flau-ro,flau-ro,fla-u-ro, ,-0.379947917,-0.1015625,1,0,0,2.0956,text_option_1,,0,20,20,141,1
5f6ce3aa36f6181177e93f0f,63f3cfca20052e4ae7554ebf,6453cb940cc48918528dbafb,2023-05-04_17h15.31.039,ga_syllabified_check,2022.2.5,Win32,5.99905215,,,,,,,,,,,,,,./stim/p06_syllable_1_lakapiaisto_hit.wav,p06,lakapiaisto,hit,la-ka-pia-is-to,la-ka-piais-to,la-ka-pi-ais-to,la-ka-pia-is-to,0.02109375,-0.100260417,1,0,0,5.4343,text_option_3,,0,21,21,118,1
5f6ce3aa36f6181177e93f0f,63f3cfca20052e4ae7554ebf,6453cb940cc48918528dbafb,2023-05-04_17h15.31.039,ga_syllabified_check,2022.2.5,Win32,5.99905215,,,,,,,,,,,,,,./stim/p03_syllable_1_lakakiaisto_hit.wav,p03,lakakiaisto,hit,la-ka-kiais-to,la-ka-kiais-to,la-ka-ki-ais-to,la-ka-kia-is-to,-0.383854167,-0.104166667,1,0,0,4.4469,text_option_1,,0,22,22,14,1
5f6ce3aa36f6181177e93f0f,63f3cfca20052e4ae7554ebf,6453cb940cc48918528dbafb,2023-05-04_17h15.31.039,ga_syllabified_check,2022.2.5,Win32,5.99905215,,,,,,,,,,,,,,./stim/p07_syllable_1_palutrauco_hit.wav,p07,palutrauco,hit,pa-lu-trau-co,pa-lu-trau-co,pa-lu-tra-u-co, ,-0.32265625,-0.106770833,1,0,0,2.3404,text_option_1,,0,23,23,165,1
5f6ce3aa36f6181177e93f0f,63f3cfca20052e4ae7554ebf,6453cb940cc48918528dbafb,2023-05-04_17h15.31.039,ga_syllabified_check,2022.2.5,Win32,5.99905215,,,,,,,,,,,,,,./stim/p05_syllable_1_ruyiola_hit.wav,p05,ruyiola,hit,ru-yio-la,ru-yio-la,ru-yi-o-la, ,-0.39296875,-0.108072917,1,0,0,2.3845,text_option_1,,0,24,24,100,1
5f6ce3aa36f6181177e93f0f,63f3cfca20052e4ae7554ebf,6453cb940cc48918528dbafb,2023-05-04_17h15.31.039,ga_syllabified_check,2022.2.5,Win32,5.99905215,,,,,,,,,,,,,,./stim/p07_syllable_1_manhiala_hit.wav,p07,mañiala,hit,ma-nhia-la,ma-ñia-la,ma-ñi-a-la, ,-0.37734375,-0.106770833,1,0,0,3.8946,text_option_1,,0,25,25,157,1
5f6ce3aa36f6181177e93f0f,63f3cfca20052e4ae7554ebf,6453cb940cc48918528dbafb,2023-05-04_17h15.31.039,ga_syllabified_check,2022.2.5,Win32,5.99905215,,,,,,,,,,,,,,./stim/p03_syllable_1_chiaba_hit.wav,p03,chiaba,hit,chia-ba,chia-ba,chi-a-ba, ,-0.398177083,-0.1015625,1,0,0,3.408,text_option_1,,0,26,26,0,1
5f6ce3aa36f6181177e93f0f,63f3cfca20052e4ae7554ebf,6453cb940cc48918528dbafb,2023-05-04_17h15.31.039,ga_syllabified_check,2022.2.5,Win32,5.99905215,,,,,,,,,,,,,,./stim/p04_syllable_1_lliape_hit.wav,p04,lliape,hit,lia-pe,llia-pe,lli-a-pe, ,-0.402083333,-0.100260417,1,0,0,3.1697,text_option_1,,0,27,27,54,1
5f6ce3aa36f6181177e93f0f,63f3cfca20052e4ae7554ebf,6453cb940cc48918528dbafb,2023-05-04_17h15.31.039,ga_syllabified_check,2022.2.5,Win32,5.99905215,,,,,,,,,,,,,,./stim/p05_syllable_1_pachialo_hit.wav,p05,pachialo,hit,pan-chia-lo,pa-chia-lo,pa-chi-a-lo, ,0.01328125,-0.29296875,1,0,0,3.0246,text_option_other,pan-chia-lo,0,28,28,92,1
5f6ce3aa36f6181177e93f0f,63f3cfca20052e4ae7554ebf,6453cb940cc48918528dbafb,2023-05-04_17h15.31.039,ga_syllabified_check,2022.2.5,Win32,5.99905215,,,,,,,,,,,,,,./stim/p06_syllable_1_lakaguaisto_hit.wav,p06,lakaguaisto,hit,la-ka-gu-a-is,la-ka-guais-to,la-ka-gu-ais-to,la-ka-gua-is-to,0.008072917,-0.295572917,1,0,0,6.1055,text_option_other,la-ka-gua-a-isto,0,29,29,115,1
5f6ce3aa36f6181177e93f0f,63f3cfca20052e4ae7554ebf,6453cb940cc48918528dbafb,2023-05-04_17h15.31.039,ga_syllabified_check,2022.2.5,Win32,5.99905215,,,,,,,,,,,,,,./stim/p03_syllable_1_pachialo_hit.wav,p03,pachialo,hit,pa-chia-lo,pa-chia-lo,pa-chi-a-lo, ,-0.396875,-0.102864583,1,0,0,3.4156,text_option_1,,0,30,30,24,1
5f6ce3aa36f6181177e93f0f,63f3cfca20052e4ae7554ebf,6453cb940cc48918528dbafb,2023-05-04_17h15.31.039,ga_syllabified_check,2022.2.5,Win32,5.99905215,,,,,,,,,,,,,,./stim/p05_syllable_1_lakakuaisto_hit.wav,p05,lakakuaisto,hit,la-ka-kais-to,la-ka-kuais-to,la-ka-ku-ais-to,la-ka-kua-is-to,0.004166667,-0.30859375,1,0,0,10.1902,text_option_other,la-ka-kais-to,0,31,31,83,1
5f6ce3aa36f6181177e93f0f,63f3cfca20052e4ae7554ebf,6453cb940cc48918528dbafb,2023-05-04_17h15.31.039,ga_syllabified_check,2022.2.5,Win32,5.99905215,,,,,,,,,,,,,,./stim/p05_syllable_1_manhiala_hit.wav,p05,mañiala,hit,ma-nhia-la,ma-ñia-la,ma-ñi-a-la, ,-0.38125,-0.09375,1,0,0,1.3181,text_option_1,,0,32,32,89,1
5f6ce3aa36f6181177e93f0f,63f3cfca20052e4ae7554ebf,6453cb940cc48918528dbafb,2023-05-04_17h15.31.039,ga_syllabified_check,2022.2.5,Win32,5.99905215,,,,,,,,,,,,,,./stim/p08_syllable_1_pachialo_hit.wav,p08,pachialo,hit,pa-chi-ja-lo,pa-chia-lo,pa-chi-a-lo, ,0.410416667,-0.087239583,1,0,0,2.1636,text_option_2,,0,33,33,194,1
5f6ce3aa36f6181177e93f0f,63f3cfca20052e4ae7554ebf,6453cb940cc48918528dbafb,2023-05-04_17h15.31.039,ga_syllabified_check,2022.2.5,Win32,5.99905215,,,,,,,,,,,,,,./stim/p06_syllable_1_lakapuaisto_hit.wav,p06,lakapuaisto,hit,la-ka-pu-a-is,la-ka-puais-to,la-ka-pu-ais-to,la-ka-pua-is-to,-0.028385417,-0.307291667,1,0,0,9.5873,text_option_other,la-ka-pu-a-is-to,0,34,34,119,1
5f6ce3aa36f6181177e93f0f,63f3cfca20052e4ae7554ebf,6453cb940cc48918528dbafb,2023-05-04_17h15.31.039,ga_syllabified_check,2022.2.5,Win32,5.99905215,,,,,,,,,,,,,,./stim/p05_syllable_1_falufaisto_hit.wav,p05,falufaisto,hit,fa-lu-fais-to,fa-lu-fais-to,fa-lu-fa-is-to, ,-0.379947917,-0.096354167,1,0,0,2.9912,text_option_1,,0,35,35,71,1
5f6ce3aa36f6181177e93f0f,63f3cfca20052e4ae7554ebf,6453cb940cc48918528dbafb,2023-05-04_17h15.31.039,ga_syllabified_check,2022.2.5,Win32,5.99905215,,,,,,,,,,,,,,./stim/p03_syllable_1_manhiala_hit.wav,p03,mañiala,hit,ma-nhia-la,ma-ñia-la,ma-ñi-a-la, ,-0.3578125,-0.108072917,1,0,0,3.7478,text_option_1,,0,36,36,21,1
5f6ce3aa36f6181177e93f0f,63f3cfca20052e4ae7554ebf,6453cb940cc48918528dbafb,2023-05-04_17h15.31.039,ga_syllabified_check,2022.2.5,Win32,5.99905215,,,,,,,,,,,,,,./stim/p07_syllable_1_lakatiaisto_hit.wav,p07,lakatiaisto,hit,la-ka-tiai-sto,la-ka-tiais-to,la-ka-ti-ais-to,la-ka-tia-is-to,-0.376041667,-0.100260417,1,0,0,4.2204,text_option_1,,0,37,37,154,1
5f6ce3aa36f6181177e93f0f,63f3cfca20052e4ae7554ebf,6453cb940cc48918528dbafb,2023-05-04_17h15.31.039,ga_syllabified_check,2022.2.5,Win32,5.99905215,,,,,,,,,,,,,,./stim/p06_syllable_1_lakabiaisto_hit.wav,p06,lakabiaisto,hit,la-ka-bia-is-to,la-ka-biais-to,la-ka-bi-ais-to,la-ka-bia-is-to,0.019791667,-0.111979167,1,0,0,4.5192,text_option_3,,0,38,38,108,1
5f6ce3aa36f6181177e93f0f,63f3cfca20052e4ae7554ebf,6453cb940cc48918528dbafb,2023-05-04_17h15.31.039,ga_syllabified_check,2022.2.5,Win32,5.99905215,,,,,,,,,,,,,,./stim/p04_syllable_1_manhiala_hit.wav,p04,mañiala,hit,ma-nhia-la,ma-ñia-la,ma-ñi-a-la, ,-0.40078125,-0.110677083,1,0,0,2.0503,text_option_1,,0,39,39,55,1
5f6ce3aa36f6181177e93f0f,63f3cfca20052e4ae7554ebf,6453cb940cc48918528dbafb,2023-05-04_17h15.31.039,ga_syllabified_check,2022.2.5,Win32,5.99905215,,,,,,,,,,,,,,./stim/p06_syllable_1_ruyiola_hit.wav,p06,ruyiola,hit,ru-yi-o-la,ru-yio-la,ru-yi-o-la, ,0.428645833,-0.109375,1,0,0,2.3739,text_option_2,,0,40,40,134,1
5f6ce3aa36f6181177e93f0f,63f3cfca20052e4ae7554ebf,6453cb940cc48918528dbafb,2023-05-04_17h15.31.039,ga_syllabified_check,2022.2.5,Win32,5.99905215,,,,,,,,,,,,,,./stim/p08_syllable_1_lakatuaisto_hit.wav,p08,lakatuaisto,hit,la-ka-tu-i-jis,la-ka-tuais-to,la-ka-tu-ais-to,la-ka-tua-is-to,0.014583333,-0.104166667,1,0,0,4.3194,text_option_3,,0,41,41,189,1
5f6ce3aa36f6181177e93f0f,63f3cfca20052e4ae7554ebf,6453cb940cc48918528dbafb,2023-05-04_17h15.31.039,ga_syllabified_check,2022.2.5,Win32,5.99905215,,,,,,,,,,,,,,./stim/p04_syllable_1_lakatuaisto_hit.wav,p04,lakatuaisto,hit,la-ka-kuais-to,la-ka-tuais-to,la-ka-tu-ais-to,la-ka-tua-is-to,-0.390364583,-0.104166667,1,0,0,3.0945,text_option_1,,0,42,42,53,1
5f6ce3aa36f6181177e93f0f,63f3cfca20052e4ae7554ebf,6453cb940cc48918528dbafb,2023-05-04_17h15.31.039,ga_syllabified_check,2022.2.5,Win32,5.99905215,,,,,,,,,,,,,,./stim/p03_syllable_1_palutrauco_hit.wav,p03,palutrauco,hit,pa-lu-trau-co,pa-lu-trau-co,pa-lu-tra-u-co, ,-0.340885417,-0.109375,1,0,0,1.8519,text_option_1,,0,43,43,29,1
5f6ce3aa36f6181177e93f0f,63f3cfca20052e4ae7554ebf,6453cb940cc48918528dbafb,2023-05-04_17h15.31.039,ga_syllabified_check,2022.2.5,Win32,5.99905215,,,,,,,,,,,,,,./stim/p07_syllable_1_chiaba_hit.wav,p07,chiaba,hit,chia-ba,chia-ba,chi-a-ba, ,-0.360416667,-0.11328125,1,0,0,1.2962,text_option_1,,0,44,44,136,1
5f6ce3aa36f6181177e93f0f,63f3cfca20052e4ae7554ebf,6453cb940cc48918528dbafb,2023-05-04_17h15.31.039,ga_syllabified_check,2022.2.5,Win32,5.99905215,,,,,,,,,,,,,,./stim/p06_syllable_1_chiaba_hit.wav,p06,chiaba,hit,chi-a-ba,chia-ba,chi-a-ba, ,-0.34609375,-0.09375,1,0,0,2.6722,text_option_1,,0,45,45,102,1
5f6ce3aa36f6181177e93f0f,63f3cfca20052e4ae7554ebf,6453cb940cc48918528dbafb,2023-05-04_17h15.31.039,ga_syllabified_check,2022.2.5,Win32,5.99905215,,,,,,,,,,,,,,./stim/p07_syllable_1_falufaisto_hit.wav,p07,falufaisto,hit,fa-lu-fais-to,fa-lu-fais-to,fa-lu-fa-is-to, ,-0.370833333,-0.110677083,1,0,0,2.5456,text_option_1,,0,46,46,139,1
5f6ce3aa36f6181177e93f0f,63f3cfca20052e4ae7554ebf,6453cb940cc48918528dbafb,2023-05-04_17h15.31.039,ga_syllabified_check,2022.2.5,Win32,5.99905215,,,,,,,,,,,,,,./stim/p03_syllable_1_flauro_hit.wav,p03,flauro,hit,flau-ro,flau-ro,fla-u-ro, ,-0.387760417,-0.104166667,1,0,0,1.2955,text_option_1,,0,47,47,5,1
5f6ce3aa36f6181177e93f0f,63f3cfca20052e4ae7554ebf,6453cb940cc48918528dbafb,2023-05-04_17h15.31.039,ga_syllabified_check,2022.2.5,Win32,5.99905215,,,,,,,,,,,,,,./stim/p04_syllable_1_payielo_hit.wav,p04,payielo,hit,pa-yie-lo,pa-yie-lo,pa-yi-e-lo, ,-0.374739583,-0.098958333,1,0,0,2.0308,text_option_1,,0,48,48,64,1
5f6ce3aa36f6181177e93f0f,63f3cfca20052e4ae7554ebf,6453cb940cc48918528dbafb,2023-05-04_17h15.31.039,ga_syllabified_check,2022.2.5,Win32,5.99905215,,,,,,,,,,,,,,./stim/p03_syllable_1_falufaisto_hit.wav,p03,falufaisto,hit,fa-lu-fais-to,fa-lu-fais-to,fa-lu-fa-is-to, ,-0.43203125,-0.09765625,1,0,0,4.7527,text_option_1,,0,49,49,3,1
5f6ce3aa36f6181177e93f0f,63f3cfca20052e4ae7554ebf,6453cb940cc48918528dbafb,2023-05-04_17h15.31.039,ga_syllabified_check,2022.2.5,Win32,5.99905215,,,,,,,,,,,,,,./stim/p06_syllable_1_falutraigo_hit.wav,p06,falutraigo,hit,fa-lu-tra-i-go,fa-lu-trai-go,fa-lu-tra-i-go, ,0.453385417,-0.11328125,1,0,0,4.6671,text_option_2,,0,50,50,106,1
5f6ce3aa36f6181177e93f0f,63f3cfca20052e4ae7554ebf,6453cb940cc48918528dbafb,2023-05-04_17h15.31.039,ga_syllabified_check,2022.2.5,Win32,5.99905215,,,,,,,,,,,,,,./stim/p07_syllable_1_lakabiaisto_hit.wav,p07,lakabiaisto,hit,la-ka-bais-to,la-ka-biais-to,la-ka-bi-ais-to,la-ka-bia-is-to,-0.33828125,-0.104166667,1,0,0,4.4573,text_option_1,,0,51,51,142,1
5f6ce3aa36f6181177e93f0f,63f3cfca20052e4ae7554ebf,6453cb940cc48918528dbafb,2023-05-04_17h15.31.039,ga_syllabified_check,2022.2.5,Win32,5.99905215,,,,,,,,,,,,,,./stim/p03_syllable_1_faluduako_hit.wav,p03,faluduako,hit,fa-lu-dua-ko,fa-lu-dua-ko,fa-lu-du-a-ko, ,-0.368229167,-0.088541667,1,0,0,2.0648,text_option_1,,0,52,52,2,1
5f6ce3aa36f6181177e93f0f,63f3cfca20052e4ae7554ebf,6453cb940cc48918528dbafb,2023-05-04_17h15.31.039,ga_syllabified_check,2022.2.5,Win32,5.99905215,,,,,,,,,,,,,,./stim/p05_syllable_1_lakapuaisto_hit.wav,p05,lakapuaisto,hit,la-ka-pais-to,la-ka-puais-to,la-ka-pu-ais-to,la-ka-pua-is-to,-0.35,-0.09375,1,0,0,6.2599,text_option_1,,0,53,53,85,1
5f6ce3aa36f6181177e93f0f,63f3cfca20052e4ae7554ebf,6453cb940cc48918528dbafb,2023-05-04_17h15.31.039,ga_syllabified_check,2022.2.5,Win32,5.99905215,,,,,,,,,,,,,,./stim/p07_syllable_1_rausto_hit.wav,p07,rausto,hit,raus-to,raus-to,ra-us-to, ,-0.368229167,-0.1015625,1,0,0,1.626,text_option_1,,0,54,54,167,1
5f6ce3aa36f6181177e93f0f,63f3cfca20052e4ae7554ebf,6453cb940cc48918528dbafb,2023-05-04_17h15.31.039,ga_syllabified_check,2022.2.5,Win32,5.99905215,,,,,,,,,,,,,,./stim/p08_syllable_1_lakatiaisto_hit.wav,p08,lakatiaisto,hit,la-ka-ti-as-to,la-ka-tiais-to,la-ka-ti-ais-to,la-ka-tia-is-to,-0.030989583,-0.3125,1,0,0,9.5915,text_option_other,la-ka-ti-as-to,0,55,55,188,1
5f6ce3aa36f6181177e93f0f,63f3cfca20052e4ae7554ebf,6453cb940cc48918528dbafb,2023-05-04_17h15.31.039,ga_syllabified_check,2022.2.5,Win32,5.99905215,,,,,,,,,,,,,,./stim/p06_syllable_1_lakabuaisto_hit.wav,p06,lakabuaisto,hit,la-ka-bu-a-is,la-ka-buais-to,la-ka-bu-ais-to,la-ka-bua-is-to,0.002864583,-0.09765625,1,0,0,7.3887,text_option_3,,0,56,56,109,1
5f6ce3aa36f6181177e93f0f,63f3cfca20052e4ae7554ebf,6453cb940cc48918528dbafb,2023-05-04_17h15.31.039,ga_syllabified_check,2022.2.5,Win32,5.99905215,,,,,,,,,,,,,,./stim/p07_syllable_1_lakaduaisto_hit.wav,p07,lakaduaisto,hit,la-ka-duais-to,la-ka-duais-to,la-ka-du-ais-to,la-ka-dua-is-to,-0.366927083,-0.104166667,1,0,0,4.7154,text_option_1,,0,57,57,145,1
5f6ce3aa36f6181177e93f0f,63f3cfca20052e4ae7554ebf,6453cb940cc48918528dbafb,2023-05-04_17h15.31.039,ga_syllabified_check,2022.2.5,Win32,5.99905215,,,,,,,,,,,,,,./stim/p04_syllable_1_nhiape_hit.wav,p04,ñiape,hit,nhia-pe,ñia-pe,ñi-a-pe, ,-0.38515625,-0.104166667,1,0,0,1.0637,text_option_1,,0,58,58,57,1
5f6ce3aa36f6181177e93f0f,63f3cfca20052e4ae7554ebf,6453cb940cc48918528dbafb,2023-05-04_17h15.31.039,ga_syllabified_check,2022.2.5,Win32,5.99905215,,,,,,,,,,,,,,./stim/p04_syllable_1_lakatiaisto_hit.wav,p04,lakatiaisto,hit,la-ka-kiais-to,la-ka-tiais-to,la-ka-ti-ais-to,la-ka-tia-is-to,-0.441145833,-0.08984375,1,0,0,1.6281,text_option_1,,0,59,59,52,1
5f6ce3aa36f6181177e93f0f,63f3cfca20052e4ae7554ebf,6453cb940cc48918528dbafb,2023-05-04_17h15.31.039,ga_syllabified_check,2022.2.5,Win32,5.99905215,,,,,,,,,,,,,,./stim/p07_syllable_1_lakafuaisto_hit.wav,p07,lakafuaisto,hit,la-ka-fuais-to,la-ka-fuais-to,la-ka-fu-ais-to,la-ka-fua-is-to,-0.344791667,-0.104166667,1,0,0,2.5153,text_option_1,,0,60,60,147,1
5f6ce3aa36f6181177e93f0f,63f3cfca20052e4ae7554ebf,6453cb940cc48918528dbafb,2023-05-04_17h15.31.039,ga_syllabified_check,2022.2.5,Win32,5.99905215,,,,,,,,,,,,,,./stim/p07_syllable_1_lakatuaisto_hit.wav,p07,lakatuaisto,hit,la-ka-tuais-to,la-ka-tuais-to,la-ka-tu-ais-to,la-ka-tua-is-to,-0.365625,-0.108072917,1,0,0,2.6426,text_option_1,,0,61,61,155,1
5f6ce3aa36f6181177e93f0f,63f3cfca20052e4ae7554ebf,6453cb940cc48918528dbafb,2023-05-04_17h15.31.039,ga_syllabified_check,2022.2.5,Win32,5.99905215,,,,,,,,,,,,,,./stim/p04_syllable_1_lakapuaisto_hit.wav,p04,lakapuaisto,hit,la-ka-puais-to,la-ka-puais-to,la-ka-pu-ais-to,la-ka-pua-is-to,-0.366927083,-0.10546875,1,0,0,1.7088,text_option_1,,0,62,62,51,1
5f6ce3aa36f6181177e93f0f,63f3cfca20052e4ae7554ebf,6453cb940cc48918528dbafb,2023-05-04_17h15.31.039,ga_syllabified_check,2022.2.5,Win32,5.99905215,,,,,,,,,,,,,,./stim/p07_syllable_1_costonhialo_hit.wav,p07,costoñialo,hit,cos-to-nhia-lo,cos-to-ñia-lo,cos-to-ñi-a-lo, ,-0.368229167,-0.098958333,1,0,0,2.41,text_option_1,,0,63,63,137,1
5f6ce3aa36f6181177e93f0f,63f3cfca20052e4ae7554ebf,6453cb940cc48918528dbafb,2023-05-04_17h15.31.039,ga_syllabified_check,2022.2.5,Win32,5.99905215,,,,,,,,,,,,,,./stim/p03_syllable_1_lakaduaisto_hit.wav,p03,lakaduaisto,hit,la-ka-duais-to,la-ka-duais-to,la-ka-du-ais-to,la-ka-dua-is-to,-0.320052083,-0.108072917,1,0,0,2.6372,text_option_1,,0,64,64,9,1
5f6ce3aa36f6181177e93f0f,63f3cfca20052e4ae7554ebf,6453cb940cc48918528dbafb,2023-05-04_17h15.31.039,ga_syllabified_check,2022.2.5,Win32,5.99905215,,,,,,,,,,,,,,./stim/p07_syllable_1_lakadiaisto_hit.wav,p07,lakadiaisto,hit,la-ka-dia-is-to,la-ka-diais-to,la-ka-di-ais-to,la-ka-dia-is-to,0.00546875,-0.114583333,1,0,0,3.4379,text_option_3,,0,65,65,144,1
5f6ce3aa36f6181177e93f0f,63f3cfca20052e4ae7554ebf,6453cb940cc48918528dbafb,2023-05-04_17h15.31.039,ga_syllabified_check,2022.2.5,Win32,5.99905215,,,,,,,,,,,,,,./stim/p04_syllable_1_flauro_hit.wav,p04,flauro,hit,flau-ro,flau-ro,fla-u-ro, ,-0.38515625,-0.102864583,1,0,0,1.3784,text_option_1,,0,66,66,39,1
5f6ce3aa36f6181177e93f0f,63f3cfca20052e4ae7554ebf,6453cb940cc48918528dbafb,2023-05-04_17h15.31.039,ga_syllabified_check,2022.2.5,Win32,5.99905215,,,,,,,,,,,,,,./stim/p03_syllable_1_rausto_hit.wav,p03,rausto,hit,raus-to,raus-to,ra-us-to, ,-0.366927083,-0.109375,1,0,0,1.8634,text_option_1,,0,67,67,31,1
5f6ce3aa36f6181177e93f0f,63f3cfca20052e4ae7554ebf,6453cb940cc48918528dbafb,2023-05-04_17h15.31.039,ga_syllabified_check,2022.2.5,Win32,5.99905215,,,,,,,,,,,,,,./stim/p06_syllable_1_lakatuaisto_hit.wav,p06,lakatuaisto,hit,la-ka-tu-a-is,la-ka-tuais-to,la-ka-tu-ais-to,la-ka-tua-is-to,-0.02578125,-0.30078125,1,0,0,13.9342,text_option_other,la-ka-tu-a-is-to,0,68,68,121,1
5f6ce3aa36f6181177e93f0f,63f3cfca20052e4ae7554ebf,6453cb940cc48918528dbafb,2023-05-04_17h15.31.039,ga_syllabified_check,2022.2.5,Win32,5.99905215,,,,,,,,,,,,,,./stim/p04_syllable_1_lakakuaisto_hit.wav,p04,lakakuaisto,hit,la-ka-kuais-to,la-ka-kuais-to,la-ka-ku-ais-to,la-ka-kua-is-to,-0.325260417,-0.091145833,1,0,0,5.9328,text_option_1,,0,69,69,49,1
5f6ce3aa36f6181177e93f0f,63f3cfca20052e4ae7554ebf,6453cb940cc48918528dbafb,2023-05-04_17h15.31.039,ga_syllabified_check,2022.2.5,Win32,5.99905215,,,,,,,,,,,,,,./stim/p06_syllable_1_lakatiaisto_hit.wav,p06,lakatiaisto,hit,la-ka-pia-is-to,la-ka-tiais-to,la-ka-ti-ais-to,la-ka-tia-is-to,0.004166667,-0.11328125,1,0,0,4.8854,text_option_3,,0,70,70,120,1
5f6ce3aa36f6181177e93f0f,63f3cfca20052e4ae7554ebf,6453cb940cc48918528dbafb,2023-05-04_17h15.31.039,ga_syllabified_check,2022.2.5,Win32,5.99905215,,,,,,,,,,,,,,./stim/p07_syllable_1_palufauro_hit.wav,p07,palufauro,hit,pa-lu-fau-ro,pa-lu-fau-ro,pa-lu-fa-u-ro, ,-0.334375,-0.1015625,1,0,0,2.042,text_option_1,,0,71,71,161,1
5f6ce3aa36f6181177e93f0f,63f3cfca20052e4ae7554ebf,6453cb940cc48918528dbafb,2023-05-04_17h15.31.039,ga_syllabified_check,2022.2.5,Win32,5.99905215,,,,,,,,,,,,,,./stim/p08_syllable_1_payielo_hit.wav,p08,payielo,hit,pa-yie-lo,pa-yie-lo,pa-yi-e-lo, ,-0.376041667,-0.106770833,1,0,0,5.4566,text_option_1,,0,72,72,200,1
5f6ce3aa36f6181177e93f0f,63f3cfca20052e4ae7554ebf,6453cb940cc48918528dbafb,2023-05-04_17h15.31.039,ga_syllabified_check,2022.2.5,Win32,5.99905215,,,,,,,,,,,,,,./stim/p06_syllable_1_lakakuaisto_hit.wav,p06,lakakuaisto,hit,la-ka-ku-a-is,la-ka-kuais-to,la-ka-ku-ais-to,la-ka-kua-is-to,0.36875,-0.109375,1,0,0,4.8578,text_option_2,,0,73,73,117,1
5f6ce3aa36f6181177e93f0f,63f3cfca20052e4ae7554ebf,6453cb940cc48918528dbafb,2023-05-04_17h15.31.039,ga_syllabified_check,2022.2.5,Win32,5.99905215,,,,,,,,,,,,,,./stim/p05_syllable_1_lakadiaisto_hit.wav,p05,lakadiaisto,hit,la-ka-di-ais-to,la-ka-diais-to,la-ka-di-ais-to,la-ka-dia-is-to,-0.325260417,-0.110677083,1,0,0,8.9118,text_option_1,,0,74,74,76,1
5f6ce3aa36f6181177e93f0f,63f3cfca20052e4ae7554ebf,6453cb940cc48918528dbafb,2023-05-04_17h15.31.039,ga_syllabified_check,2022.2.5,Win32,5.99905215,,,,,,,,,,,,,,./stim/p08_syllable_1_lakafiaisto_hit.wav,p08,lakafiaisto,hit,la-ka-fi-as-to,la-ka-fiais-to,la-ka-fi-ais-to,la-ka-fia-is-to,0.030208333,-0.294270833,1,0,0,6.8518,text_option_other,la-ka-fi-a-is-to,0,75,75,180,1
5f6ce3aa36f6181177e93f0f,63f3cfca20052e4ae7554ebf,6453cb940cc48918528dbafb,2023-05-04_17h15.31.039,ga_syllabified_check,2022.2.5,Win32,5.99905215,,,,,,,,,,,,,,./stim/p04_syllable_1_lakafiaisto_hit.wav,p04,lakafiaisto,hit,la-ka-fiais-to,la-ka-fiais-to,la-ka-fi-ais-to,la-ka-fia-is-to,-0.413802083,-0.111979167,1,0,0,1.8738,text_option_1,,0,76,76,44,1
5f6ce3aa36f6181177e93f0f,63f3cfca20052e4ae7554ebf,6453cb940cc48918528dbafb,2023-05-04_17h15.31.039,ga_syllabified_check,2022.2.5,Win32,5.99905215,,,,,,,,,,,,,,./stim/p06_syllable_1_lakafuaisto_hit.wav,p06,lakafuaisto,hit,la-ka-fu-a-is,la-ka-fuais-to,la-ka-fu-ais-to,la-ka-fua-is-to,0.36875,-0.111979167,1,0,0,6.0263,text_option_2,,0,77,77,113,1
5f6ce3aa36f6181177e93f0f,63f3cfca20052e4ae7554ebf,6453cb940cc48918528dbafb,2023-05-04_17h15.31.039,ga_syllabified_check,2022.2.5,Win32,5.99905215,,,,,,,,,,,,,,./stim/p03_syllable_1_mebochiana_hit.wav,p03,mebochiana,hit,me-bo-chia-na,me-bo-chia-na,me-bo-chi-a-na, ,-0.3421875,-0.106770833,1,0,0,2.0988,text_option_1,,0,78,78,22,1
5f6ce3aa36f6181177e93f0f,63f3cfca20052e4ae7554ebf,6453cb940cc48918528dbafb,2023-05-04_17h15.31.039,ga_syllabified_check,2022.2.5,Win32,5.99905215,,,,,,,,,,,,,,./stim/p06_syllable_1_lliape_hit.wav,p06,lliape,hit,lli-lla-pe,llia-pe,lli-a-pe, ,0.389583333,-0.104166667,1,0,0,2.7571,text_option_2,,0,79,79,122,1
5f6ce3aa36f6181177e93f0f,63f3cfca20052e4ae7554ebf,6453cb940cc48918528dbafb,2023-05-04_17h15.31.039,ga_syllabified_check,2022.2.5,Win32,5.99905215,,,,,,,,,,,,,,./stim/p08_syllable_1_lakadiaisto_hit.wav,p08,lakadiaisto,hit,la-ka-di-jas-to,la-ka-diais-to,la-ka-di-ais-to,la-ka-dia-is-to,0.008072917,-0.09375,1,0,0,4.9022,text_option_3,,0,80,80,178,1
5f6ce3aa36f6181177e93f0f,63f3cfca20052e4ae7554ebf,6453cb940cc48918528dbafb,2023-05-04_17h15.31.039,ga_syllabified_check,2022.2.5,Win32,5.99905215,,,,,,,,,,,,,,./stim/p07_syllable_1_lakafiaisto_hit.wav,p07,lakafiaisto,hit,la-ka-fiais-to,la-ka-fiais-to,la-ka-fi-ais-to,la-ka-fia-is-to,-0.359114583,-0.092447917,1,0,0,2.0343,text_option_1,,0,81,81,146,1
5f6ce3aa36f6181177e93f0f,63f3cfca20052e4ae7554ebf,6453cb940cc48918528dbafb,2023-05-04_17h15.31.039,ga_syllabified_check,2022.2.5,Win32,5.99905215,,,,,,,,,,,,,,./stim/p05_syllable_1_paluguato_hit.wav,p05,paluguato,hit,pa-lu-gau-to,pa-lu-gua-to,pa-lu-gu-a-to, ,0.386979167,-0.1015625,1,0,0,6.6673,text_option_2,,0,82,82,95,1
5f6ce3aa36f6181177e93f0f,63f3cfca20052e4ae7554ebf,6453cb940cc48918528dbafb,2023-05-04_17h15.31.039,ga_syllabified_check,2022.2.5,Win32,5.99905215,,,,,,,,,,,,,,./stim/p06_syllable_1_palufauro_hit.wav,p06,palufauro,hit,pa-lu-fau-ro,pa-lu-fau-ro,pa-lu-fa-u-ro, ,0.347916667,-0.1171875,1,0,0,6.8074,text_option_2,,0,83,83,127,1
5f6ce3aa36f6181177e93f0f,63f3cfca20052e4ae7554ebf,6453cb940cc48918528dbafb,2023-05-04_17h15.31.039,ga_syllabified_check,2022.2.5,Win32,5.99905215,,,,,,,,,,,,,,./stim/p08_syllable_1_costonhialo_hit.wav,p08,costoñialo,hit,cos-to-nhia-lo,cos-to-ñia-lo,cos-to-ñi-a-lo, ,-0.335677083,-0.102864583,1,0,0,2.6019,text_option_1,,0,84,84,171,1
5f6ce3aa36f6181177e93f0f,63f3cfca20052e4ae7554ebf,6453cb940cc48918528dbafb,2023-05-04_17h15.31.039,ga_syllabified_check,2022.2.5,Win32,5.99905215,,,,,,,,,,,,,,./stim/p04_syllable_1_lakakiaisto_hit.wav,p04,lakakiaisto,hit,la-ka-kiais-to,la-ka-kiais-to,la-ka-ki-ais-to,la-ka-kia-is-to,-0.356510417,-0.100260417,1,0,0,2.1179,text_option_1,,0,85,85,48,1
5f6ce3aa36f6181177e93f0f,63f3cfca20052e4ae7554ebf,6453cb940cc48918528dbafb,2023-05-04_17h15.31.039,ga_syllabified_check,2022.2.5,Win32,5.99905215,,,,,,,,,,,,,,./stim/p05_syllable_1_lakafuaisto_hit.wav,p05,lakafuaisto,hit,la-ka-fais-to,la-ka-fuais-to,la-ka-fu-ais-to,la-ka-fua-is-to,0.051041667,-0.317708333,1,0,0,3.0837,text_option_other,la-ka-fias-to,0,86,86,79,1
5f6ce3aa36f6181177e93f0f,63f3cfca20052e4ae7554ebf,6453cb940cc48918528dbafb,2023-05-04_17h15.31.039,ga_syllabified_check,2022.2.5,Win32,5.99905215,,,,,,,,,,,,,,./stim/p03_syllable_1_lakafiaisto_hit.wav,p03,lakafiaisto,hit,la-ka-fiais-to,la-ka-fiais-to,la-ka-fi-ais-to,la-ka-fia-is-to,-0.343489583,-0.110677083,1,0,0,1.5765,text_option_1,,0,87,87,10,1
5f6ce3aa36f6181177e93f0f,63f3cfca20052e4ae7554ebf,6453cb940cc48918528dbafb,2023-05-04_17h15.31.039,ga_syllabified_check,2022.2.5,Win32,5.99905215,,,,,,,,,,,,,,./stim/p05_syllable_1_palufauto_hit.wav,p05,palufauto,hit,pa-lu-fau-to,pa-lu-fau-to,pa-lu-fa-u-to, ,-0.4046875,-0.096354167,1,0,0,1.8975,text_option_1,,0,88,88,94,1
5f6ce3aa36f6181177e93f0f,63f3cfca20052e4ae7554ebf,6453cb940cc48918528dbafb,2023-05-04_17h15.31.039,ga_syllabified_check,2022.2.5,Win32,5.99905215,,,,,,,,,,,,,,./stim/p06_syllable_1_flauro_hit.wav,p06,flauro,hit,fla-u-ro,flau-ro,fla-u-ro, ,0.36875,-0.102864583,1,0,0,3.4507,text_option_2,,0,89,89,107,1
5f6ce3aa36f6181177e93f0f,63f3cfca20052e4ae7554ebf,6453cb940cc48918528dbafb,2023-05-04_17h15.31.039,ga_syllabified_check,2022.2.5,Win32,5.99905215,,,,,,,,,,,,,,./stim/p04_syllable_1_pachialo_hit.wav,p04,pachialo,hit,pa-chia-lo,pa-chia-lo,pa-chi-a-lo, ,-0.399479167,-0.104166667,1,0,0,1.2834,text_option_1,,0,90,90,58,1
5f6ce3aa36f6181177e93f0f,63f3cfca20052e4ae7554ebf,6453cb940cc48918528dbafb,2023-05-04_17h15.31.039,ga_syllabified_check,2022.2.5,Win32,5.99905215,,,,,,,,,,,,,,./stim/p05_syllable_1_lliape_hit.wav,p05,lliape,hit,liai-pe,llia-pe,lli-a-pe, ,-0.050520833,-0.298177083,1,0,0,7.4542,text_option_other,lli-ai-pe,0,91,91,88,1
5f6ce3aa36f6181177e93f0f,63f3cfca20052e4ae7554ebf,6453cb940cc48918528dbafb,2023-05-04_17h15.31.039,ga_syllabified_check,2022.2.5,Win32,5.99905215,,,,,,,,,,,,,,./stim/p05_syllable_1_lakabiaisto_hit.wav,p05,lakabiaisto,hit,la-ka-bi-ais-to,la-ka-biais-to,la-ka-bi-ais-to,la-ka-bia-is-to,-0.365625,-0.095052083,1,0,0,2.378,text_option_1,,0,92,92,74,1
5f6ce3aa36f6181177e93f0f,63f3cfca20052e4ae7554ebf,6453cb940cc48918528dbafb,2023-05-04_17h15.31.039,ga_syllabified_check,2022.2.5,Win32,5.99905215,,,,,,,,,,,,,,./stim/p04_syllable_1_mebochiana_hit.wav,p04,mebochiana,hit,me-bo-chia-na,me-bo-chia-na,me-bo-chi-a-na, ,-0.368229167,-0.088541667,1,0,0,1.8683,text_option_1,,0,93,93,56,1
5f6ce3aa36f6181177e93f0f,63f3cfca20052e4ae7554ebf,6453cb940cc48918528dbafb,2023-05-04_17h15.31.039,ga_syllabified_check,2022.2.5,Win32,5.99905215,,,,,,,,,,,,,,./stim/p05_syllable_1_mebochiana_hit.wav,p05,mebochiana,hit,me-cho-chai-na,me-bo-chia-na,me-bo-chi-a-na, ,-0.01796875,-0.295572917,1,0,0,4.1215,text_option_other,me-cho-chiana,0,94,94,90,1
5f6ce3aa36f6181177e93f0f,63f3cfca20052e4ae7554ebf,6453cb940cc48918528dbafb,2023-05-04_17h15.31.039,ga_syllabified_check,2022.2.5,Win32,5.99905215,,,,,,,,,,,,,,./stim/p07_syllable_1_lakabuaisto_hit.wav,p07,lakabuaisto,hit,la-ka-buais-to,la-ka-buais-to,la-ka-bu-ais-to,la-ka-bua-is-to,-0.4046875,-0.104166667,1,0,0,2.0795,text_option_1,,0,95,95,143,1
5f6ce3aa36f6181177e93f0f,63f3cfca20052e4ae7554ebf,6453cb940cc48918528dbafb,2023-05-04_17h15.31.039,ga_syllabified_check,2022.2.5,Win32,5.99905215,,,,,,,,,,,,,,./stim/p05_syllable_1_flauro_hit.wav,p05,flauro,hit,fa-lu-ro,flau-ro,fla-u-ro, ,0.045833333,-0.307291667,1,0,0,2.1566,text_option_other,fa-lu-ro,0,96,96,73,1
5f6ce3aa36f6181177e93f0f,63f3cfca20052e4ae7554ebf,6453cb940cc48918528dbafb,2023-05-04_17h15.31.039,ga_syllabified_check,2022.2.5,Win32,5.99905215,,,,,,,,,,,,,,./stim/p05_syllable_1_faluduako_hit.wav,p05,faluduako,hit,fa-lu-ba-ko,fa-lu-dua-ko,fa-lu-du-a-ko, ,0.002864583,-0.305989583,1,0,0,1.4968,text_option_other,fa-lu-pa-co,0,97,97,70,1
5f6ce3aa36f6181177e93f0f,63f3cfca20052e4ae7554ebf,6453cb940cc48918528dbafb,2023-05-04_17h15.31.039,ga_syllabified_check,2022.2.5,Win32,5.99905215,,,,,,,,,,,,,,./stim/p03_syllable_1_lakaguaisto_hit.wav,p03,lakaguaisto,hit,la-ka-guais-to,la-ka-guais-to,la-ka-gu-ais-to,la-ka-gua-is-to,-0.4125,-0.102864583,1,0,0,3.2047,text_option_1,,0,98,98,13,1
5f6ce3aa36f6181177e93f0f,63f3cfca20052e4ae7554ebf,6453cb940cc48918528dbafb,2023-05-04_17h15.31.039,ga_syllabified_check,2022.2.5,Win32,5.99905215,,,,,,,,,,,,,,./stim/p06_syllable_1_mebochiana_hit.wav,p06,mebochiana,hit,me-bo-shi-a-na,me-bo-chia-na,me-bo-chi-a-na, ,0.3765625,-0.092447917,1,0,0,3.5719,text_option_2,,0,99,99,124,1
5f6ce3aa36f6181177e93f0f,63f3cfca20052e4ae7554ebf,6453cb940cc48918528dbafb,2023-05-04_17h15.31.039,ga_syllabified_check,2022.2.5,Win32,5.99905215,,,,,,,,,,,,,,./stim/p08_syllable_1_palumaisto_hit.wav,p08,palumaisto,hit,pa-lu-mais-to,pa-lu-mais-to,pa-lu-ma-is-to, ,-0.36953125,-0.1015625,1,0,0,2.6472,text_option_1,,0,100,100,198,1
5f6ce3aa36f6181177e93f0f,63f3cfca20052e4ae7554ebf,6453cb940cc48918528dbafb,2023-05-04_17h15.31.039,ga_syllabified_check,2022.2.5,Win32,5.99905215,,,,,,,,,,,,,,./stim/p07_syllable_1_faluduako_hit.wav,p07,faluduako,hit,fa-lu-dua-ko,fa-lu-dua-ko,fa-lu-du-a-ko, ,0.385677083,-0.102864583,1,0,0,3.2833,text_option_2,,0,101,101,138,1
5f6ce3aa36f6181177e93f0f,63f3cfca20052e4ae7554ebf,6453cb940cc48918528dbafb,2023-05-04_17h15.31.039,ga_syllabified_check,2022.2.5,Win32,5.99905215,,,,,,,,,,,,,,./stim/p04_syllable_1_chiaba_hit.wav,p04,chiaba,hit,chia-ba,chia-ba,chi-a-ba, ,-0.405989583,-0.104166667,1,0,0,1.3473,text_option_1,,0,102,102,34,1
5f6ce3aa36f6181177e93f0f,63f3cfca20052e4ae7554ebf,6453cb940cc48918528dbafb,2023-05-04_17h15.31.039,ga_syllabified_check,2022.2.5,Win32,5.99905215,,,,,,,,,,,,,,./stim/p08_syllable_1_lakaguaisto_hit.wav,p08,lakaguaisto,hit,la-ka-gu-ais-to,la-ka-guais-to,la-ka-gu-ais-to,la-ka-gua-is-to,0.40390625,-0.11328125,1,0,0,4.2863,text_option_2,,0,103,103,183,1
5f6ce3aa36f6181177e93f0f,63f3cfca20052e4ae7554ebf,6453cb940cc48918528dbafb,2023-05-04_17h15.31.039,ga_syllabified_check,2022.2.5,Win32,5.99905215,,,,,,,,,,,,,,./stim/p07_syllable_1_lakakiaisto_hit.wav,p07,lakakiaisto,hit,la-ka-kais-to,la-ka-kiais-to,la-ka-ki-ais-to,la-ka-kia-is-to,-0.034895833,-0.302083333,1,0,0,5.4252,text_option_other,la-ka-kais,0,104,104,150,1
5f6ce3aa36f6181177e93f0f,63f3cfca20052e4ae7554ebf,6453cb940cc48918528dbafb,2023-05-04_17h15.31.039,ga_syllabified_check,2022.2.5,Win32,5.99905215,,,,,,,,,,,,,,./stim/p06_syllable_1_tuliafo_hit.wav,p06,tuliafo,hit,tu-li-a-fo,tu-lia-fo,tu-li-a-fo, ,0.384375,-0.102864583,1,0,0,3.5474,text_option_2,,0,105,105,135,1
5f6ce3aa36f6181177e93f0f,63f3cfca20052e4ae7554ebf,6453cb940cc48918528dbafb,2023-05-04_17h15.31.039,ga_syllabified_check,2022.2.5,Win32,5.99905215,,,,,,,,,,,,,,./stim/p08_syllable_1_chiaba_hit.wav,p08,chiaba,hit,chi-a-ba,chia-ba,chi-a-ba, ,0.385677083,-0.095052083,1,0,0,1.817,text_option_2,,0,106,106,170,1
5f6ce3aa36f6181177e93f0f,63f3cfca20052e4ae7554ebf,6453cb940cc48918528dbafb,2023-05-04_17h15.31.039,ga_syllabified_check,2022.2.5,Win32,5.99905215,,,,,,,,,,,,,,./stim/p04_syllable_1_rausto_hit.wav,p04,rausto,hit,raus-to,raus-to,ra-us-to, ,-0.376041667,-0.106770833,1,0,0,2.1178,text_option_1,,0,107,107,65,1
5f6ce3aa36f6181177e93f0f,63f3cfca20052e4ae7554ebf,6453cb940cc48918528dbafb,2023-05-04_17h15.31.039,ga_syllabified_check,2022.2.5,Win32,5.99905215,,,,,,,,,,,,,,./stim/p05_syllable_1_lakapiaisto_hit.wav,p05,lakapiaisto,hit,la-ka-pais-to,la-ka-piais-to,la-ka-pi-ais-to,la-ka-pia-is-to,-0.391666667,-0.102864583,1,0,0,4.3667,text_option_1,,0,108,108,84,1
5f6ce3aa36f6181177e93f0f,63f3cfca20052e4ae7554ebf,6453cb940cc48918528dbafb,2023-05-04_17h15.31.039,ga_syllabified_check,2022.2.5,Win32,5.99905215,,,,,,,,,,,,,,./stim/p07_syllable_1_lakapuaisto_hit.wav,p07,lakapuaisto,hit,la-ka-puais-to,la-ka-puais-to,la-ka-pu-ais-to,la-ka-pua-is-to,-0.386458333,-0.102864583,1,0,0,5.8351,text_option_1,,0,109,109,153,1
5f6ce3aa36f6181177e93f0f,63f3cfca20052e4ae7554ebf,6453cb940cc48918528dbafb,2023-05-04_17h15.31.039,ga_syllabified_check,2022.2.5,Win32,5.99905215,,,,,,,,,,,,,,./stim/p04_syllable_1_paluguato_hit.wav,p04,paluguato,hit,pa-lu-gua,pa-lu-gua-to,pa-lu-gu-a-to, ,-0.34609375,-0.104166667,1,0,0,4.7618,text_option_1,,0,110,110,61,1
5f6ce3aa36f6181177e93f0f,63f3cfca20052e4ae7554ebf,6453cb940cc48918528dbafb,2023-05-04_17h15.31.039,ga_syllabified_check,2022.2.5,Win32,5.99905215,,,,,,,,,,,,,,./stim/p04_syllable_1_falufaisto_hit.wav,p04,falufaisto,hit,fa-lu-fais-to,fa-lu-fais-to,fa-lu-fa-is-to, ,-0.35390625,-0.09375,1,0,0,1.276,text_option_1,,0,111,111,37,1
5f6ce3aa36f6181177e93f0f,63f3cfca20052e4ae7554ebf,6453cb940cc48918528dbafb,2023-05-04_17h15.31.039,ga_syllabified_check,2022.2.5,Win32,5.99905215,,,,,,,,,,,,,,./stim/p06_syllable_1_manhiala_hit.wav,p06,mañiala,hit,ma-nhi-a-la,ma-ñia-la,ma-ñi-a-la, ,0.428645833,-0.111979167,1,0,0,4.8365,text_option_2,,0,112,112,123,1
5f6ce3aa36f6181177e93f0f,63f3cfca20052e4ae7554ebf,6453cb940cc48918528dbafb,2023-05-04_17h15.31.039,ga_syllabified_check,2022.2.5,Win32,5.99905215,,,,,,,,,,,,,,./stim/p04_syllable_1_lakabiaisto_hit.wav,p04,lakabiaisto,hit,la-ka-biais-to,la-ka-biais-to,la-ka-bi-ais-to,la-ka-bia-is-to,-0.390364583,-0.095052083,1,0,0,1.8053,text_option_1,,0,113,113,40,1
5f6ce3aa36f6181177e93f0f,63f3cfca20052e4ae7554ebf,6453cb940cc48918528dbafb,2023-05-04_17h15.31.039,ga_syllabified_check,2022.2.5,Win32,5.99905215,,,,,,,,,,,,,,./stim/p04_syllable_1_lakaguaisto_hit.wav,p04,lakaguaisto,hit,la-ka-guais-to,la-ka-guais-to,la-ka-gu-ais-to,la-ka-gua-is-to,-0.419010417,-0.10546875,1,0,0,4.7191,text_option_1,,0,114,114,47,1
5f6ce3aa36f6181177e93f0f,63f3cfca20052e4ae7554ebf,6453cb940cc48918528dbafb,2023-05-04_17h15.31.039,ga_syllabified_check,2022.2.5,Win32,5.99905215,,,,,,,,,,,,,,./stim/p08_syllable_1_palufauro_hit.wav,p08,palufauro,hit,pa-lu-fau-ro,pa-lu-fau-ro,pa-lu-fa-u-ro, ,-0.320052083,-0.115885417,1,0,0,9.4216,text_option_1,,0,115,115,195,1
5f6ce3aa36f6181177e93f0f,63f3cfca20052e4ae7554ebf,6453cb940cc48918528dbafb,2023-05-04_17h15.31.039,ga_syllabified_check,2022.2.5,Win32,5.99905215,,,,,,,,,,,,,,./stim/p03_syllable_1_palufauro_hit.wav,p03,palufauro,hit,pa-lu-fau-ro,pa-lu-fau-ro,pa-lu-fa-u-ro, ,-0.386458333,-0.102864583,1,0,0,5.435,text_option_1,,0,116,116,25,1
5f6ce3aa36f6181177e93f0f,63f3cfca20052e4ae7554ebf,6453cb940cc48918528dbafb,2023-05-04_17h15.31.039,ga_syllabified_check,2022.2.5,Win32,5.99905215,,,,,,,,,,,,,,./stim/p04_syllable_1_palutrauco_hit.wav,p04,palutrauco,hit,pa-lu-trau-co,pa-lu-trau-co,pa-lu-tra-u-co, ,-0.382552083,-0.098958333,1,0,0,1.7913,text_option_1,,0,117,117,63,1
5f6ce3aa36f6181177e93f0f,63f3cfca20052e4ae7554ebf,6453cb940cc48918528dbafb,2023-05-04_17h15.31.039,ga_syllabified_check,2022.2.5,Win32,5.99905215,,,,,,,,,,,,,,./stim/p03_syllable_1_lliape_hit.wav,p03,lliape,hit,llia,llia-pe,lli-a-pe, ,-0.405989583,-0.110677083,1,0,0,4.6752,text_option_1,,0,118,118,20,1
5f6ce3aa36f6181177e93f0f,63f3cfca20052e4ae7554ebf,6453cb940cc48918528dbafb,2023-05-04_17h15.31.039,ga_syllabified_check,2022.2.5,Win32,5.99905215,,,,,,,,,,,,,,./stim/p06_syllable_1_faluduako_hit.wav,p06,faluduako,hit,fa-lu-dua-ko,fa-lu-dua-ko,fa-lu-du-a-ko, ,0.384375,-0.102864583,1,0,0,4.0928,text_option_2,,0,119,119,104,1
5f6ce3aa36f6181177e93f0f,63f3cfca20052e4ae7554ebf,6453cb940cc48918528dbafb,2023-05-04_17h15.31.039,ga_syllabified_check,2022.2.5,Win32,5.99905215,,,,,,,,,,,,,,./stim/p05_syllable_1_lakatiaisto_hit.wav,p05,lakatiaisto,hit,la-ka-ti-ais-to,la-ka-tiais-to,la-ka-ti-ais-to,la-ka-tia-is-to,-0.339583333,-0.087239583,1,0,0,2.8286,text_option_1,,0,120,120,86,1
5f6ce3aa36f6181177e93f0f,63f3cfca20052e4ae7554ebf,6453cb940cc48918528dbafb,2023-05-04_17h15.31.039,ga_syllabified_check,2022.2.5,Win32,5.99905215,,,,,,,,,,,,,,./stim/p07_syllable_1_mebochiana_hit.wav,p07,mebochiana,hit,me-bo-chia-na,me-bo-chia-na,me-bo-chi-a-na, ,-0.38125,-0.087239583,1,0,0,6.9914,text_option_1,,0,121,121,158,1
5f6ce3aa36f6181177e93f0f,63f3cfca20052e4ae7554ebf,6453cb940cc48918528dbafb,2023-05-04_17h15.31.039,ga_syllabified_check,2022.2.5,Win32,5.99905215,,,,,,,,,,,,,,./stim/p08_syllable_1_ruyiola_hit.wav,p08,ruyiola,hit,ru-yio-la,ru-yio-la,ru-yi-o-la, ,-0.364322917,-0.104166667,1,0,0,2.3139,text_option_1,,0,122,122,202,1
5f6ce3aa36f6181177e93f0f,63f3cfca20052e4ae7554ebf,6453cb940cc48918528dbafb,2023-05-04_17h15.31.039,ga_syllabified_check,2022.2.5,Win32,5.99905215,,,,,,,,,,,,,,./stim/p03_syllable_1_lakapuaisto_hit.wav,p03,lakapuaisto,hit,la-ka-puais-to,la-ka-puais-to,la-ka-pu-ais-to,la-ka-pua-is-to,-0.37734375,-0.09765625,1,0,0,3.3673,text_option_1,,0,123,123,17,1
5f6ce3aa36f6181177e93f0f,63f3cfca20052e4ae7554ebf,6453cb940cc48918528dbafb,2023-05-04_17h15.31.039,ga_syllabified_check,2022.2.5,Win32,5.99905215,,,,,,,,,,,,,,./stim/p05_syllable_1_lakaduaisto_hit.wav,p05,lakaduaisto,hit,la-ka-dais-to,la-ka-duais-to,la-ka-du-ais-to,la-ka-dua-is-to,0.015885417,-0.295572917,1,0,0,3.2934,text_option_other,la-ka-taisto,0,124,124,77,1
5f6ce3aa36f6181177e93f0f,63f3cfca20052e4ae7554ebf,6453cb940cc48918528dbafb,2023-05-04_17h15.31.039,ga_syllabified_check,2022.2.5,Win32,5.99905215,,,,,,,,,,,,,,./stim/p05_syllable_1_chiaba_hit.wav,p05,chiaba,hit,chia-ba,chia-ba,chi-a-ba, ,0.004166667,-0.278645833,1,0,0,2.3534,text_option_other,chai-ba,0,125,125,68,1
5f6ce3aa36f6181177e93f0f,63f3cfca20052e4ae7554ebf,6453cb940cc48918528dbafb,2023-05-04_17h15.31.039,ga_syllabified_check,2022.2.5,Win32,5.99905215,,,,,,,,,,,,,,./stim/p04_syllable_1_lakabuaisto_hit.wav,p04,lakabuaisto,hit,la-ka-buais-to,la-ka-buais-to,la-ka-bu-ais-to,la-ka-bua-is-to,-0.368229167,-0.08984375,1,0,0,1.2984,text_option_1,,0,126,126,41,1
5f6ce3aa36f6181177e93f0f,63f3cfca20052e4ae7554ebf,6453cb940cc48918528dbafb,2023-05-04_17h15.31.039,ga_syllabified_check,2022.2.5,Win32,5.99905215,,,,,,,,,,,,,,./stim/p05_syllable_1_lakatuaisto_hit.wav,p05,lakatuaisto,hit,la-ka-tais-to,la-ka-tuais-to,la-ka-tu-ais-to,la-ka-tua-is-to,0.031510417,-0.290364583,1,0,0,4.7871,text_option_other,la-ka-tais-to,0,127,127,87,1
5f6ce3aa36f6181177e93f0f,63f3cfca20052e4ae7554ebf,6453cb940cc48918528dbafb,2023-05-04_17h15.31.039,ga_syllabified_check,2022.2.5,Win32,5.99905215,,,,,,,,,,,,,,./stim/p07_syllable_1_lliape_hit.wav,p07,lliape,hit,lliai-pe,llia-pe,lli-a-pe, ,-0.395572917,-0.088541667,1,0,0,1.845,text_option_1,,0,128,128,156,1
5f6ce3aa36f6181177e93f0f,63f3cfca20052e4ae7554ebf,6453cb940cc48918528dbafb,2023-05-04_17h15.31.039,ga_syllabified_check,2022.2.5,Win32,5.99905215,,,,,,,,,,,,,,./stim/p03_syllable_1_palumaisto_hit.wav,p03,palumaisto,hit,pa-lu-mais-to,pa-lu-mais-to,pa-lu-ma-is-to, ,-0.376041667,-0.106770833,1,0,0,3.1855,text_option_1,,0,129,129,28,1
5f6ce3aa36f6181177e93f0f,63f3cfca20052e4ae7554ebf,6453cb940cc48918528dbafb,2023-05-04_17h15.31.039,ga_syllabified_check,2022.2.5,Win32,5.99905215,,,,,,,,,,,,,,./stim/p08_syllable_1_lakafuaisto_hit.wav,p08,lakafuaisto,hit,la-ka-fju-ais-to,la-ka-fuais-to,la-ka-fu-ais-to,la-ka-fua-is-to,0.030208333,-0.3046875,1,0,0,6.5979,text_option_other,la-ka-fiuaisto,0,130,130,181,1
5f6ce3aa36f6181177e93f0f,63f3cfca20052e4ae7554ebf,6453cb940cc48918528dbafb,2023-05-04_17h15.31.039,ga_syllabified_check,2022.2.5,Win32,5.99905215,,,,,,,,,,,,,,./stim/p03_syllable_1_paluguato_hit.wav,p03,paluguato,hit,pa-lu-gua,pa-lu-gua-to,pa-lu-gu-a-to, ,-0.35390625,-0.1015625,1,0,0,1.5447,text_option_1,,0,131,131,27,1
5f6ce3aa36f6181177e93f0f,63f3cfca20052e4ae7554ebf,6453cb940cc48918528dbafb,2023-05-04_17h15.31.039,ga_syllabified_check,2022.2.5,Win32,5.99905215,,,,,,,,,,,,,,./stim/p03_syllable_1_palufauto_hit.wav,p03,palufauto,hit,pa-lu-fau,pa-lu-fau-to,pa-lu-fa-u-to, ,-0.34609375,-0.09765625,1,0,0,2.3218,text_option_1,,0,132,132,26,1
5f6ce3aa36f6181177e93f0f,63f3cfca20052e4ae7554ebf,6453cb940cc48918528dbafb,2023-05-04_17h15.31.039,ga_syllabified_check,2022.2.5,Win32,5.99905215,,,,,,,,,,,,,,./stim/p04_syllable_1_palufauro_hit.wav,p04,palufauro,hit,pa-lu-fau-ro,pa-lu-fau-ro,pa-lu-fa-u-ro, ,-0.352604167,-0.111979167,1,0,0,1.8459,text_option_1,,0,133,133,59,1
5f6ce3aa36f6181177e93f0f,63f3cfca20052e4ae7554ebf,6453cb940cc48918528dbafb,2023-05-04_17h15.31.039,ga_syllabified_check,2022.2.5,Win32,5.99905215,,,,,,,,,,,,,,./stim/p03_syllable_1_lakagiaisto_hit.wav,p03,lakagiaisto,hit,la-ka-giais-to,la-ka-giais-to,la-ka-gi-ais-to,la-ka-gia-is-to,-0.35,-0.09765625,1,0,0,5.4832,text_option_1,,0,134,134,12,1
5f6ce3aa36f6181177e93f0f,63f3cfca20052e4ae7554ebf,6453cb940cc48918528dbafb,2023-05-04_17h15.31.039,ga_syllabified_check,2022.2.5,Win32,5.99905215,,,,,,,,,,,,,,./stim/p06_syllable_1_falufaisto_hit.wav,p06,falufaisto,hit,fa-lu-fa-is-to,fa-lu-fais-to,fa-lu-fa-is-to, ,0.371354167,-0.104166667,1,0,0,3.2816,text_option_2,,0,135,135,105,1
5f6ce3aa36f6181177e93f0f,63f3cfca20052e4ae7554ebf,6453cb940cc48918528dbafb,2023-05-04_17h15.31.039,ga_syllabified_check,2022.2.5,Win32,5.99905215,,,,,,,,,,,,,,./stim/p08_syllable_1_nhiape_hit.wav,p08,ñiape,hit,ni-a-pe,ñia-pe,ñi-a-pe, ,-0.409895833,-0.1015625,1,0,0,1.8627,text_option_1,,0,136,136,193,1
5f6ce3aa36f6181177e93f0f,63f3cfca20052e4ae7554ebf,6453cb940cc48918528dbafb,2023-05-04_17h15.31.039,ga_syllabified_check,2022.2.5,Win32,5.99905215,,,,,,,,,,,,,,./stim/p06_syllable_1_rausto_hit.wav,p06,rausto,hit,ra-us-to,raus-to,ra-us-to, ,0.373958333,-0.1015625,1,0,0,2.3458,text_option_2,,0,137,137,133,1
5f6ce3aa36f6181177e93f0f,63f3cfca20052e4ae7554ebf,6453cb940cc48918528dbafb,2023-05-04_17h15.31.039,ga_syllabified_check,2022.2.5,Win32,5.99905215,,,,,,,,,,,,,,./stim/p05_syllable_1_payielo_hit.wav,p05,payielo,hit,pai-yu-we-lo,pa-yie-lo,pa-yi-e-lo, ,0.019791667,-0.3046875,1,0,0,4.7632,text_option_other,pa-yue-lo,0,138,138,98,1
5f6ce3aa36f6181177e93f0f,63f3cfca20052e4ae7554ebf,6453cb940cc48918528dbafb,2023-05-04_17h15.31.039,ga_syllabified_check,2022.2.5,Win32,5.99905215,,,,,,,,,,,,,,./stim/p08_syllable_1_rausto_hit.wav,p08,rausto,hit,raus-to,raus-to,ra-us-to, ,-0.426822917,-0.1015625,1,0,0,4.1577,text_option_1,,0,139,139,201,1
5f6ce3aa36f6181177e93f0f,63f3cfca20052e4ae7554ebf,6453cb940cc48918528dbafb,2023-05-04_17h15.31.039,ga_syllabified_check,2022.2.5,Win32,5.99905215,,,,,,,,,,,,,,./stim/p03_syllable_1_lakapiaisto_hit.wav,p03,lakapiaisto,hit,la-ka-piais-to,la-ka-piais-to,la-ka-pi-ais-to,la-ka-pia-is-to,-0.372135417,-0.102864583,1,0,0,1.592,text_option_1,,0,140,140,16,1
5f6ce3aa36f6181177e93f0f,63f3cfca20052e4ae7554ebf,6453cb940cc48918528dbafb,2023-05-04_17h15.31.039,ga_syllabified_check,2022.2.5,Win32,5.99905215,,,,,,,,,,,,,,./stim/p04_syllable_1_palufauto_hit.wav,p04,palufauto,hit,pa-lu-fau-to,pa-lu-fau-to,pa-lu-fa-u-to, ,-0.372135417,-0.102864583,1,0,0,0.4813,text_option_1,,0,141,141,60,1
5f6ce3aa36f6181177e93f0f,63f3cfca20052e4ae7554ebf,6453cb940cc48918528dbafb,2023-05-04_17h15.31.039,ga_syllabified_check,2022.2.5,Win32,5.99905215,,,,,,,,,,,,,,./stim/p05_syllable_1_rausto_hit.wav,p05,rausto,hit,raus-to,raus-to,ra-us-to, ,-0.38515625,-0.102864583,1,0,0,0.7782,text_option_1,,0,142,142,99,1
5f6ce3aa36f6181177e93f0f,63f3cfca20052e4ae7554ebf,6453cb940cc48918528dbafb,2023-05-04_17h15.31.039,ga_syllabified_check,2022.2.5,Win32,5.99905215,,,,,,,,,,,,,,./stim/p03_syllable_1_lakakuaisto_hit.wav,p03,lakakuaisto,hit,la-ka-kuais-to,la-ka-kuais-to,la-ka-ku-ais-to,la-ka-kua-is-to,-0.394270833,-0.096354167,1,0,0,1.8249,text_option_1,,0,143,143,15,1
5f6ce3aa36f6181177e93f0f,63f3cfca20052e4ae7554ebf,6453cb940cc48918528dbafb,2023-05-04_17h15.31.039,ga_syllabified_check,2022.2.5,Win32,5.99905215,,,,,,,,,,,,,,./stim/p07_syllable_1_payielo_hit.wav,p07,payielo,hit,pa-yie-lo,pa-yie-lo,pa-yi-e-lo, ,-0.366927083,-0.110677083,1,0,0,1.8164,text_option_1,,0,144,144,166,1
5f6ce3aa36f6181177e93f0f,63f3cfca20052e4ae7554ebf,6453cb940cc48918528dbafb,2023-05-04_17h15.31.039,ga_syllabified_check,2022.2.5,Win32,5.99905215,,,,,,,,,,,,,,./stim/p06_syllable_1_paluguato_hit.wav,p06,paluguato,hit,pa-lu-gua-to,pa-lu-gua-to,pa-lu-gu-a-to, ,-0.359114583,-0.104166667,1,0,0,2.351,text_option_1,,0,145,145,129,1
5f6ce3aa36f6181177e93f0f,63f3cfca20052e4ae7554ebf,6453cb940cc48918528dbafb,2023-05-04_17h15.31.039,ga_syllabified_check,2022.2.5,Win32,5.99905215,,,,,,,,,,,,,,./stim/p08_syllable_1_flauro_hit.wav,p08,flauro,hit,flau-ro,flau-ro,fla-u-ro, ,-0.398177083,-0.096354167,1,0,0,1.1128,text_option_1,,0,146,146,175,1
5f6ce3aa36f6181177e93f0f,63f3cfca20052e4ae7554ebf,6453cb940cc48918528dbafb,2023-05-04_17h15.31.039,ga_syllabified_check,2022.2.5,Win32,5.99905215,,,,,,,,,,,,,,./stim/p07_syllable_1_lakapiaisto_hit.wav,p07,lakapiaisto,hit,la-ka-pia-sto,la-ka-piais-to,la-ka-pi-ais-to,la-ka-pia-is-to,-0.329166667,-0.102864583,1,0,0,5.4358,text_option_1,,0,147,147,152,1
5f6ce3aa36f6181177e93f0f,63f3cfca20052e4ae7554ebf,6453cb940cc48918528dbafb,2023-05-04_17h15.31.039,ga_syllabified_check,2022.2.5,Win32,5.99905215,,,,,,,,,,,,,,./stim/p05_syllable_1_falutraigo_hit.wav,p05,falutraigo,hit,fa-lu-trai-go,fa-lu-trai-go,fa-lu-tra-i-go, ,-0.4125,-0.08984375,1,0,0,1.2637,text_option_1,,0,148,148,72,1
5f6ce3aa36f6181177e93f0f,63f3cfca20052e4ae7554ebf,6453cb940cc48918528dbafb,2023-05-04_17h15.31.039,ga_syllabified_check,2022.2.5,Win32,5.99905215,,,,,,,,,,,,,,./stim/p08_syllable_1_palufauto_hit.wav,p08,palufauto,hit,pa-lu-fau-to,pa-lu-fau-to,pa-lu-fa-u-to, ,-0.317447917,-0.109375,1,0,0,3.0927,text_option_1,,0,149,149,196,1
5f6ce3aa36f6181177e93f0f,63f3cfca20052e4ae7554ebf,6453cb940cc48918528dbafb,2023-05-04_17h15.31.039,ga_syllabified_check,2022.2.5,Win32,5.99905215,,,,,,,,,,,,,,./stim/p07_syllable_1_lakagiaisto_hit.wav,p07,lakagiaisto,hit,la-ka-gais-to,la-ka-giais-to,la-ka-gi-ais-to,la-ka-gia-is-to,-0.39296875,-0.0859375,1,0,0,3.0345,text_option_1,,0,150,150,148,1
5f6ce3aa36f6181177e93f0f,63f3cfca20052e4ae7554ebf,6453cb940cc48918528dbafb,2023-05-04_17h15.31.039,ga_syllabified_check,2022.2.5,Win32,5.99905215,,,,,,,,,,,,,,./stim/p06_syllable_1_lakafiaisto_hit.wav,p06,lakafiaisto,hit,la-ka-fia-is-to,la-ka-fiais-to,la-ka-fi-ais-to,la-ka-fia-is-to,0.02890625,-0.104166667,1,0,0,4.2796,text_option_3,,0,151,151,112,1
5f6ce3aa36f6181177e93f0f,63f3cfca20052e4ae7554ebf,6453cb940cc48918528dbafb,2023-05-04_17h15.31.039,ga_syllabified_check,2022.2.5,Win32,5.99905215,,,,,,,,,,,,,,./stim/p05_syllable_1_lakaguaisto_hit.wav,p05,lakaguaisto,hit,la-ka-gais,la-ka-guais-to,la-ka-gu-ais-to,la-ka-gua-is-to,-0.012760417,-0.30078125,1,0,0,6.941,text_option_other,la-ka-gais-to,0,152,152,81,1
5f6ce3aa36f6181177e93f0f,63f3cfca20052e4ae7554ebf,6453cb940cc48918528dbafb,2023-05-04_17h15.31.039,ga_syllabified_check,2022.2.5,Win32,5.99905215,,,,,,,,,,,,,,./stim/p06_syllable_1_payielo_hit.wav,p06,payielo,hit,pa-yi-e-lo,pa-yie-lo,pa-yi-e-lo, ,0.432552083,-0.100260417,1,0,0,1.8844,text_option_2,,0,153,153,132,1
5f6ce3aa36f6181177e93f0f,63f3cfca20052e4ae7554ebf,6453cb940cc48918528dbafb,2023-05-04_17h15.31.039,ga_syllabified_check,2022.2.5,Win32,5.99905215,,,,,,,,,,,,,,./stim/p06_syllable_1_palutrauco_hit.wav,p06,palutrauco,hit,pa-lu-tra-u-co,pa-lu-trau-co,pa-lu-tra-u-co, ,0.37265625,-0.104166667,1,0,0,3.0933,text_option_2,,0,154,154,131,1
5f6ce3aa36f6181177e93f0f,63f3cfca20052e4ae7554ebf,6453cb940cc48918528dbafb,2023-05-04_17h15.31.039,ga_syllabified_check,2022.2.5,Win32,5.99905215,,,,,,,,,,,,,,./stim/p07_syllable_1_pachialo_hit.wav,p07,pachialo,hit,pa-cha-lo,pa-chia-lo,pa-chi-a-lo, ,-0.426822917,-0.102864583,1,0,0,2.2721,text_option_1,,0,155,155,160,1
5f6ce3aa36f6181177e93f0f,63f3cfca20052e4ae7554ebf,6453cb940cc48918528dbafb,2023-05-04_17h15.31.039,ga_syllabified_check,2022.2.5,Win32,5.99905215,,,,,,,,,,,,,,./stim/p03_syllable_1_tuliafo_hit.wav,p03,tuliafo,hit,tu-lia-fo,tu-lia-fo,tu-li-a-fo, ,-0.403385417,-0.09765625,1,0,0,3.4731,text_option_1,,0,156,156,33,1
5f6ce3aa36f6181177e93f0f,63f3cfca20052e4ae7554ebf,6453cb940cc48918528dbafb,2023-05-04_17h15.31.039,ga_syllabified_check,2022.2.5,Win32,5.99905215,,,,,,,,,,,,,,./stim/p05_syllable_1_costonhialo_hit.wav,p05,costoñialo,hit,cos-to-nhia-lo,cos-to-ñia-lo,cos-to-ñi-a-lo, ,-0.395572917,-0.095052083,1,0,0,1.637,text_option_1,,0,157,157,69,1
5f6ce3aa36f6181177e93f0f,63f3cfca20052e4ae7554ebf,6453cb940cc48918528dbafb,2023-05-04_17h15.31.039,ga_syllabified_check,2022.2.5,Win32,5.99905215,,,,,,,,,,,,,,./stim/p03_syllable_1_lakatiaisto_hit.wav,p03,lakatiaisto,hit,la-ka-tiais-to,la-ka-tiais-to,la-ka-ti-ais-to,la-ka-tia-is-to,-0.403385417,-0.10546875,1,0,0,4.4499,text_option_1,,0,158,158,18,1
5f6ce3aa36f6181177e93f0f,63f3cfca20052e4ae7554ebf,6453cb940cc48918528dbafb,2023-05-04_17h15.31.039,ga_syllabified_check,2022.2.5,Win32,5.99905215,,,,,,,,,,,,,,./stim/p04_syllable_1_palumaisto_hit.wav,p04,palumaisto,hit,pa-lu-mais-to,pa-lu-mais-to,pa-lu-ma-is-to, ,-0.360416667,-0.100260417,1,0,0,1.8054,text_option_1,,0,159,159,62,1
5f6ce3aa36f6181177e93f0f,63f3cfca20052e4ae7554ebf,6453cb940cc48918528dbafb,2023-05-04_17h15.31.039,ga_syllabified_check,2022.2.5,Win32,5.99905215,,,,,,,,,,,,,,./stim/p08_syllable_1_paluguato_hit.wav,p08,paluguato,hit,pa-lu-gua-to,pa-lu-gua-to,pa-lu-gu-a-to, ,-0.379947917,-0.114583333,1,0,0,1.9889,text_option_1,,0,160,160,197,1
5f6ce3aa36f6181177e93f0f,63f3cfca20052e4ae7554ebf,6453cb940cc48918528dbafb,2023-05-04_17h15.31.039,ga_syllabified_check,2022.2.5,Win32,5.99905215,,,,,,,,,,,,,,./stim/p06_syllable_1_lakaduaisto_hit.wav,p06,lakaduaisto,hit,la-ka-du-a-is,la-ka-duais-to,la-ka-du-ais-to,la-ka-dua-is-to,-0.015364583,-0.296875,1,0,0,7.0508,text_option_other,la-ka-du-a-is-to,0,161,161,111,1
5f6ce3aa36f6181177e93f0f,63f3cfca20052e4ae7554ebf,6453cb940cc48918528dbafb,2023-05-04_17h15.31.039,ga_syllabified_check,2022.2.5,Win32,5.99905215,,,,,,,,,,,,,,./stim/p03_syllable_1_costonhialo_hit.wav,p03,costoñialo,hit,cos-to-nhia-lo,cos-to-ñia-lo,cos-to-ñi-a-lo, ,-0.40078125,-0.109375,1,0,0,1.5038,text_option_1,,0,162,162,1,1
5f6ce3aa36f6181177e93f0f,63f3cfca20052e4ae7554ebf,6453cb940cc48918528dbafb,2023-05-04_17h15.31.039,ga_syllabified_check,2022.2.5,Win32,5.99905215,,,,,,,,,,,,,,./stim/p04_syllable_1_tuliafo_hit.wav,p04,tuliafo,hit,tu-lia-fo,tu-lia-fo,tu-li-a-fo, ,-0.3734375,-0.106770833,1,0,0,1.2587,text_option_1,,0,163,163,67,1
5f6ce3aa36f6181177e93f0f,63f3cfca20052e4ae7554ebf,6453cb940cc48918528dbafb,2023-05-04_17h15.31.039,ga_syllabified_check,2022.2.5,Win32,5.99905215,,,,,,,,,,,,,,./stim/p07_syllable_1_palufauto_hit.wav,p07,palufauto,hit,pa-lu-fau-to,pa-lu-fau-to,pa-lu-fa-u-to, ,-0.391666667,-0.104166667,1,0,0,8.7348,text_option_1,,0,164,164,162,1
5f6ce3aa36f6181177e93f0f,63f3cfca20052e4ae7554ebf,6453cb940cc48918528dbafb,2023-05-04_17h15.31.039,ga_syllabified_check,2022.2.5,Win32,5.99905215,,,,,,,,,,,,,,./stim/p08_syllable_1_lakabiaisto_hit.wav,p08,lakabiaisto,hit,la-ka-bi-as-to,la-ka-biais-to,la-ka-bi-ais-to,la-ka-bia-is-to,0.346614583,-0.09375,1,0,0,4.0412,text_option_2,,0,165,165,176,1
5f6ce3aa36f6181177e93f0f,63f3cfca20052e4ae7554ebf,6453cb940cc48918528dbafb,2023-05-04_17h15.31.039,ga_syllabified_check,2022.2.5,Win32,5.99905215,,,,,,,,,,,,,,./stim/p03_syllable_1_lakadiaisto_hit.wav,p03,lakadiaisto,hit,la-ka-diais-to,la-ka-diais-to,la-ka-di-ais-to,la-ka-dia-is-to,-0.413802083,-0.088541667,1,0,0,3.6676,text_option_1,,0,166,166,8,1
5f6ce3aa36f6181177e93f0f,63f3cfca20052e4ae7554ebf,6453cb940cc48918528dbafb,2023-05-04_17h15.31.039,ga_syllabified_check,2022.2.5,Win32,5.99905215,,,,,,,,,,,,,,./stim/p08_syllable_1_falutraigo_hit.wav,p08,falutraigo,hit,fa-lu-trai-go,fa-lu-trai-go,fa-lu-tra-i-go, ,-0.417708333,-0.104166667,1,0,0,3.5057,text_option_1,,0,167,167,174,1
5f6ce3aa36f6181177e93f0f,63f3cfca20052e4ae7554ebf,6453cb940cc48918528dbafb,2023-05-04_17h15.31.039,ga_syllabified_check,2022.2.5,Win32,5.99905215,,,,,,,,,,,,,,./stim/p04_syllable_1_lakadiaisto_hit.wav,p04,lakadiaisto,hit,la-ka-dias-to,la-ka-diais-to,la-ka-di-ais-to,la-ka-dia-is-to,-0.37734375,-0.104166667,1,0,0,1.7486,text_option_1,,0,168,168,42,1
5f6ce3aa36f6181177e93f0f,63f3cfca20052e4ae7554ebf,6453cb940cc48918528dbafb,2023-05-04_17h15.31.039,ga_syllabified_check,2022.2.5,Win32,5.99905215,,,,,,,,,,,,,,./stim/p06_syllable_1_costonhialo_hit.wav,p06,costoñialo,hit,cos-to-nhia-lo,cos-to-ñia-lo,cos-to-ñi-a-lo, ,-0.378645833,-0.102864583,1,0,0,3.0213,text_option_1,,0,169,169,103,1
5f6ce3aa36f6181177e93f0f,63f3cfca20052e4ae7554ebf,6453cb940cc48918528dbafb,2023-05-04_17h15.31.039,ga_syllabified_check,2022.2.5,Win32,5.99905215,,,,,,,,,,,,,,./stim/p08_syllable_1_manhiala_hit.wav,p08,mañiala,hit,ma-nhia-la,ma-ñia-la,ma-ñi-a-la, ,-0.363020833,-0.10546875,1,0,0,2.4697,text_option_1,,0,170,170,191,1
5f6ce3aa36f6181177e93f0f,63f3cfca20052e4ae7554ebf,6453cb940cc48918528dbafb,2023-05-04_17h15.31.039,ga_syllabified_check,2022.2.5,Win32,5.99905215,,,,,,,,,,,,,,./stim/p07_syllable_1_nhiape_hit.wav,p07,ñiape,hit,nhia-pe,ñia-pe,ñi-a-pe, ,-0.39296875,-0.09765625,1,0,0,1.5365,text_option_1,,0,171,171,159,1
5f6ce3aa36f6181177e93f0f,63f3cfca20052e4ae7554ebf,6453cb940cc48918528dbafb,2023-05-04_17h15.31.039,ga_syllabified_check,2022.2.5,Win32,5.99905215,,,,,,,,,,,,,,./stim/p05_syllable_1_palumaisto_hit.wav,p05,palumaisto,hit,pa-lu-mais-to,pa-lu-mais-to,pa-lu-ma-is-to, ,-0.365625,-0.096354167,1,0,0,1.7664,text_option_1,,0,172,172,96,1
5f6ce3aa36f6181177e93f0f,63f3cfca20052e4ae7554ebf,6453cb940cc48918528dbafb,2023-05-04_17h15.31.039,ga_syllabified_check,2022.2.5,Win32,5.99905215,,,,,,,,,,,,,,./stim/p08_syllable_1_lakagiaisto_hit.wav,p08,lakagiaisto,hit,la-ka-gi-jas-to,la-ka-giais-to,la-ka-gi-ais-to,la-ka-gia-is-to,-0.008854167,-0.102864583,1,0,0,4.9585,text_option_3,,0,173,173,182,1
5f6ce3aa36f6181177e93f0f,63f3cfca20052e4ae7554ebf,6453cb940cc48918528dbafb,2023-05-04_17h15.31.039,ga_syllabified_check,2022.2.5,Win32,5.99905215,,,,,,,,,,,,,,./stim/p07_syllable_1_lakakuaisto_hit.wav,p07,lakakuaisto,hit,la-ka-kuais-to,la-ka-kuais-to,la-ka-ku-ais-to,la-ka-kua-is-to,-0.365625,-0.104166667,1,0,0,2.5739,text_option_1,,0,174,174,151,1
5f6ce3aa36f6181177e93f0f,63f3cfca20052e4ae7554ebf,6453cb940cc48918528dbafb,2023-05-04_17h15.31.039,ga_syllabified_check,2022.2.5,Win32,5.99905215,,,,,,,,,,,,,,./stim/p03_syllable_1_lakafuaisto_hit.wav,p03,lakafuaisto,hit,la-ka-fuais-to,la-ka-fuais-to,la-ka-fu-ais-to,la-ka-fua-is-to,-0.359114583,-0.109375,1,0,0,2.0047,text_option_1,,0,175,175,11,1
5f6ce3aa36f6181177e93f0f,63f3cfca20052e4ae7554ebf,6453cb940cc48918528dbafb,2023-05-04_17h15.31.039,ga_syllabified_check,2022.2.5,Win32,5.99905215,,,,,,,,,,,,,,./stim/p05_syllable_1_lakakiaisto_hit.wav,p05,lakakiaisto,hit,la-ka-ki-ais-to,la-ka-kiais-to,la-ka-ki-ais-to,la-ka-kia-is-to,-0.428125,-0.1015625,1,0,0,5.6251,text_option_1,,0,176,176,82,1
5f6ce3aa36f6181177e93f0f,63f3cfca20052e4ae7554ebf,6453cb940cc48918528dbafb,2023-05-04_17h15.31.039,ga_syllabified_check,2022.2.5,Win32,5.99905215,,,,,,,,,,,,,,./stim/p05_syllable_1_tuliafo_hit.wav,p05,tuliafo,hit,tu-lai-fo,tu-lia-fo,tu-li-a-fo, ,-0.044010417,-0.305989583,1,0,0,6.3783,text_option_other,tu-lai-fo,0,177,177,101,1
5f6ce3aa36f6181177e93f0f,63f3cfca20052e4ae7554ebf,6453cb940cc48918528dbafb,2023-05-04_17h15.31.039,ga_syllabified_check,2022.2.5,Win32,5.99905215,,,,,,,,,,,,,,./stim/p05_syllable_1_palufauro_hit.wav,p05,palufauro,hit,pa-lu-fau-ro,pa-lu-fau-ro,pa-lu-fa-u-ro, ,-0.359114583,-0.114583333,1,0,0,1.3049,text_option_1,,0,178,178,93,1
5f6ce3aa36f6181177e93f0f,63f3cfca20052e4ae7554ebf,6453cb940cc48918528dbafb,2023-05-04_17h15.31.039,ga_syllabified_check,2022.2.5,Win32,5.99905215,,,,,,,,,,,,,,./stim/p05_syllable_1_lakagiaisto_hit.wav,p05,lakagiaisto,hit,la-ka-ki-ais-to,la-ka-giais-to,la-ka-gi-ais-to,la-ka-gia-is-to,-0.003645833,-0.10546875,1,0,0,2.2337,text_option_3,,0,179,179,80,1
5f6ce3aa36f6181177e93f0f,63f3cfca20052e4ae7554ebf,6453cb940cc48918528dbafb,2023-05-04_17h15.31.039,ga_syllabified_check,2022.2.5,Win32,5.99905215,,,,,,,,,,,,,,./stim/p08_syllable_1_falufaisto_hit.wav,p08,falufaisto,hit,fa-lu-fais-to,fa-lu-fais-to,fa-lu-fa-is-to, ,-0.415104167,-0.096354167,1,0,0,4.5863,text_option_1,,0,180,180,173,1
5f6ce3aa36f6181177e93f0f,63f3cfca20052e4ae7554ebf,6453cb940cc48918528dbafb,2023-05-04_17h15.31.039,ga_syllabified_check,2022.2.5,Win32,5.99905215,,,,,,,,,,,,,,./stim/p04_syllable_1_ruyiola_hit.wav,p04,ruyiola,hit,ru-yio-la,ru-yio-la,ru-yi-o-la, ,-0.39296875,-0.11328125,1,0,0,1.3263,text_option_1,,0,181,181,66,1
5f6ce3aa36f6181177e93f0f,63f3cfca20052e4ae7554ebf,6453cb940cc48918528dbafb,2023-05-04_17h15.31.039,ga_syllabified_check,2022.2.5,Win32,5.99905215,,,,,,,,,,,,,,./stim/p08_syllable_1_lakakiaisto_hit.wav,p08,lakakiaisto,hit,la-ka-ki-jas-to,la-ka-kiais-to,la-ka-ki-ais-to,la-ka-kia-is-to,0.359635417,-0.098958333,1,0,0,4.7534,text_option_2,,0,182,182,184,1
5f6ce3aa36f6181177e93f0f,63f3cfca20052e4ae7554ebf,6453cb940cc48918528dbafb,2023-05-04_17h15.31.039,ga_syllabified_check,2022.2.5,Win32,5.99905215,,,,,,,,,,,,,,./stim/p03_syllable_1_falutraigo_hit.wav,p03,falutraigo,hit,fa-lu-trai-go,fa-lu-trai-go,fa-lu-tra-i-go, ,-0.372135417,-0.111979167,1,0,0,2.0394,text_option_1,,0,183,183,4,1
5f6ce3aa36f6181177e93f0f,63f3cfca20052e4ae7554ebf,6453cb940cc48918528dbafb,2023-05-04_17h15.31.039,ga_syllabified_check,2022.2.5,Win32,5.99905215,,,,,,,,,,,,,,./stim/p03_syllable_1_lakabuaisto_hit.wav,p03,lakabuaisto,hit,la-ka-buais-to,la-ka-buais-to,la-ka-bu-ais-to,la-ka-bua-is-to,-0.395572917,-0.098958333,1,0,0,1.8055,text_option_1,,0,184,184,7,1
5f6ce3aa36f6181177e93f0f,63f3cfca20052e4ae7554ebf,6453cb940cc48918528dbafb,2023-05-04_17h15.31.039,ga_syllabified_check,2022.2.5,Win32,5.99905215,,,,,,,,,,,,,,./stim/p05_syllable_1_lakabuaisto_hit.wav,p05,lakabuaisto,hit,la-ka-buais-to,la-ka-buais-to,la-ka-bu-ais-to,la-ka-bua-is-to,-0.37734375,-0.096354167,1,0,0,2.2591,text_option_1,,0,185,185,75,1
5f6ce3aa36f6181177e93f0f,63f3cfca20052e4ae7554ebf,6453cb940cc48918528dbafb,2023-05-04_17h15.31.039,ga_syllabified_check,2022.2.5,Win32,5.99905215,,,,,,,,,,,,,,./stim/p08_syllable_1_lakapuaisto_hit.wav,p08,lakapuaisto,hit,la-ka-pu-as-to,la-ka-puais-to,la-ka-pu-ais-to,la-ka-pua-is-to,0.449479167,-0.11328125,1,0,0,5.2577,text_option_2,,0,186,186,187,1
5f6ce3aa36f6181177e93f0f,63f3cfca20052e4ae7554ebf,6453cb940cc48918528dbafb,2023-05-04_17h15.31.039,ga_syllabified_check,2022.2.5,Win32,5.99905215,,,,,,,,,,,,,,./stim/p07_syllable_1_palumaisto_hit.wav,p07,palumaisto,hit,pa-lu-mais-to,pa-lu-mais-to,pa-lu-ma-is-to, ,-0.399479167,-0.100260417,1,0,0,4.4827,text_option_1,,0,187,187,164,1
5f6ce3aa36f6181177e93f0f,63f3cfca20052e4ae7554ebf,6453cb940cc48918528dbafb,2023-05-04_17h15.31.039,ga_syllabified_check,2022.2.5,Win32,5.99905215,,,,,,,,,,,,,,./stim/p08_syllable_1_lakakuaisto_hit.wav,p08,lakakuaisto,hit,la-ka-ku-ais-to,la-ka-kuais-to,la-ka-ku-ais-to,la-ka-kua-is-to,0.3921875,-0.104166667,1,0,0,5.1378,text_option_2,,0,188,188,185,1
5f6ce3aa36f6181177e93f0f,63f3cfca20052e4ae7554ebf,6453cb940cc48918528dbafb,2023-05-04_17h15.31.039,ga_syllabified_check,2022.2.5,Win32,5.99905215,,,,,,,,,,,,,,./stim/p08_syllable_1_lakabuaisto_hit.wav,p08,lakabuaisto,hit,la-ka-bu-ais-to,la-ka-buais-to,la-ka-bu-ais-to,la-ka-bua-is-to,0.384375,-0.100260417,1,0,0,2.7757,text_option_2,,0,189,189,177,1
5f6ce3aa36f6181177e93f0f,63f3cfca20052e4ae7554ebf,6453cb940cc48918528dbafb,2023-05-04_17h15.31.039,ga_syllabified_check,2022.2.5,Win32,5.99905215,,,,,,,,,,,,,,./stim/p08_syllable_1_tuliafo_hit.wav,p08,tuliafo,hit,tu-li-a-fo,tu-lia-fo,tu-li-a-fo, ,0.384375,-0.091145833,1,0,0,2.4971,text_option_2,,0,190,190,203,1
5f6ce3aa36f6181177e93f0f,63f3cfca20052e4ae7554ebf,6453cb940cc48918528dbafb,2023-05-04_17h15.31.039,ga_syllabified_check,2022.2.5,Win32,5.99905215,,,,,,,,,,,,,,./stim/p08_syllable_1_lliape_hit.wav,p08,lliape,hit,li-a-pe,llia-pe,lli-a-pe, ,0.35703125,-0.096354167,1,0,0,3.4429,text_option_2,,0,191,191,190,1
5f6ce3aa36f6181177e93f0f,63f3cfca20052e4ae7554ebf,6453cb940cc48918528dbafb,2023-05-04_17h15.31.039,ga_syllabified_check,2022.2.5,Win32,5.99905215,,,,,,,,,,,,,,./stim/p06_syllable_1_palufauto_hit.wav,p06,palufauto,hit,pa-lu-fau-to,pa-lu-fau-to,pa-lu-fa-u-to, ,-0.387760417,-0.096354167,1,0,0,4.0624,text_option_1,,0,192,192,128,1
5f6ce3aa36f6181177e93f0f,63f3cfca20052e4ae7554ebf,6453cb940cc48918528dbafb,2023-05-04_17h15.31.039,ga_syllabified_check,2022.2.5,Win32,5.99905215,,,,,,,,,,,,,,./stim/p03_syllable_1_payielo_hit.wav,p03,payielo,hit,pa-yie-lo,pa-yie-lo,pa-yi-e-lo, ,-0.383854167,-0.10546875,1,0,0,1.5761,text_option_1,,0,193,193,30,1
5f6ce3aa36f6181177e93f0f,63f3cfca20052e4ae7554ebf,6453cb940cc48918528dbafb,2023-05-04_17h15.31.039,ga_syllabified_check,2022.2.5,Win32,5.99905215,,,,,,,,,,,,,,./stim/p04_syllable_1_lakagiaisto_hit.wav,p04,lakagiaisto,hit,la-ka-giais-to,la-ka-giais-to,la-ka-gi-ais-to,la-ka-gia-is-to,-0.368229167,-0.10546875,1,0,0,2.096,text_option_1,,0,194,194,46,1
5f6ce3aa36f6181177e93f0f,63f3cfca20052e4ae7554ebf,6453cb940cc48918528dbafb,2023-05-04_17h15.31.039,ga_syllabified_check,2022.2.5,Win32,5.99905215,,,,,,,,,,,,,,./stim/p07_syllable_1_tuliafo_hit.wav,p07,tuliafo,hit,tu-lia-fo,tu-lia-fo,tu-li-a-fo, ,-0.38125,-0.104166667,1,0,0,2.0026,text_option_1,,0,195,195,169,1
5f6ce3aa36f6181177e93f0f,63f3cfca20052e4ae7554ebf,6453cb940cc48918528dbafb,2023-05-04_17h15.31.039,ga_syllabified_check,2022.2.5,Win32,5.99905215,,,,,,,,,,,,,,./stim/p07_syllable_1_lakaguaisto_hit.wav,p07,lakaguaisto,hit,la-ka-guais-to,la-ka-guais-to,la-ka-gu-ais-to,la-ka-gua-is-to,-0.3734375,-0.09765625,1,0,0,2.4866,text_option_1,,0,196,196,149,1
5f6ce3aa36f6181177e93f0f,63f3cfca20052e4ae7554ebf,6453cb940cc48918528dbafb,2023-05-04_17h15.31.039,ga_syllabified_check,2022.2.5,Win32,5.99905215,,,,,,,,,,,,,,./stim/p08_syllable_1_lakaduaisto_hit.wav,p08,lakaduaisto,hit,la-ka-du-ais-to,la-ka-duais-to,la-ka-du-ais-to,la-ka-dua-is-to,0.330989583,-0.092447917,1,0,0,3.7711,text_option_2,,0,197,197,179,1
5f6ce3aa36f6181177e93f0f,63f3cfca20052e4ae7554ebf,6453cb940cc48918528dbafb,2023-05-04_17h15.31.039,ga_syllabified_check,2022.2.5,Win32,5.99905215,,,,,,,,,,,,,,./stim/p05_syllable_1_nhiape_hit.wav,p05,ñiape,hit,nhia-pe,ñia-pe,ñi-a-pe, ,-0.36953125,-0.100260417,1,0,0,2.7729,text_option_1,,0,198,198,91,1
5f6ce3aa36f6181177e93f0f,63f3cfca20052e4ae7554ebf,6453cb940cc48918528dbafb,2023-05-04_17h15.31.039,ga_syllabified_check,2022.2.5,Win32,5.99905215,,,,,,,,,,,,,,./stim/p06_syllable_1_nhiape_hit.wav,p06,ñiape,hit,nhi-a-pe,ñia-pe,ñi-a-pe, ,0.383072917,-0.098958333,1,0,0,2.0254,text_option_2,,0,199,199,125,1
5f6ce3aa36f6181177e93f0f,63f3cfca20052e4ae7554ebf,6453cb940cc48918528dbafb,2023-05-04_17h15.31.039,ga_syllabified_check,2022.2.5,Win32,5.99905215,,,,,,,,,,,,,,./stim/p07_syllable_1_paluguato_hit.wav,p07,paluguato,hit,pa-lu-gua-to,pa-lu-gua-to,pa-lu-gu-a-to, ,-0.343489583,-0.106770833,1,0,0,1.8134,text_option_1,,0,200,200,163,1
5f6ce3aa36f6181177e93f0f,63f3cfca20052e4ae7554ebf,6453cb940cc48918528dbafb,2023-05-04_17h15.31.039,ga_syllabified_check,2022.2.5,Win32,5.99905215,,,,,,,,,,,,,,./stim/p06_syllable_1_lakadiaisto_hit.wav,p06,lakadiaisto,hit,la-ka-dia-is-to,la-ka-diais-to,la-ka-di-ais-to,la-ka-dia-is-to,0.02109375,-0.104166667,1,0,0,5.9033,text_option_3,,0,201,201,110,1
5f6ce3aa36f6181177e93f0f,63f3cfca20052e4ae7554ebf,6453cb940cc48918528dbafb,2023-05-04_17h15.31.039,ga_syllabified_check,2022.2.5,Win32,5.99905215,,,,,,,,,,,,,,./stim/p05_syllable_1_palutrauco_hit.wav,p05,palutrauco,hit,pa-lu-trai-co,pa-lu-trau-co,pa-lu-tra-u-co, ,-0.368229167,-0.091145833,1,0,0,1.9712,text_option_1,,0,202,202,97,1
5f6ce3aa36f6181177e93f0f,63f3cfca20052e4ae7554ebf,6453cb940cc48918528dbafb,2023-05-04_17h15.31.039,ga_syllabified_check,2022.2.5,Win32,5.99905215,,,,,,,,,,,,,,./stim/p08_syllable_1_palutrauco_hit.wav,p08,palutrauco,hit,pa-lu-trau-ko,pa-lu-trau-co,pa-lu-tra-u-co, ,-0.359114583,-0.098958333,1,0,0,2.7607,text_option_1,,0,203,203,199,1
5f6ce3aa36f6181177e93f0f,63f3cfca20052e4ae7554ebf,6453cb940cc48918528dbafb,2023-05-04_17h15.31.039,ga_syllabified_check,2022.2.5,Win32,5.99905215,,,,,,,,,,,,,,,,,,,,,,,,,,,,,,,,,,
