participant,study,session,date,expName,psychopyVersion,OS,frameRate,mouse_practice.x,mouse_practice.y,mouse_practice.leftButton,mouse_practice.midButton,mouse_practice.rightButton,mouse_practice.time,mouse_practice.clicked_name,textbox_followup_practice.text,trials_practice.thisRepN,trials_practice.thisTrialN,trials_practice.thisN,trials_practice.thisIndex,trials_practice.ran,file_path,id,item,status,response,op1,op2,op3,mouse.x,mouse.y,mouse.leftButton,mouse.midButton,mouse.rightButton,mouse.time,mouse.clicked_name,textbox_followup.text,trials.thisRepN,trials.thisTrialN,trials.thisN,trials.thisIndex,trials.ran
5f738de5cd78b40e58fb464b,63f3cfca20052e4ae7554ebf,6453c721a0e711d71abb9590,2023-05-04_16h55.01.347,ga_syllabified_check,2022.2.5,Win32,60.02040694,,,,,,,,,,,,,,,,,,,,,,,,,,,,,,,,,,
5f738de5cd78b40e58fb464b,63f3cfca20052e4ae7554ebf,6453c721a0e711d71abb9590,2023-05-04_16h55.01.347,ga_syllabified_check,2022.2.5,Win32,60.02040694,-0.390625,-0.104166667,1,0,0,2.706,text_option_1_practice,,0,0,0,0,1,./stim/p03_syllable_1_liamo_hit.wav,p03,liamo,hit,lia-mo,lia-mo,li-a-mo, ,,,,,,,,,,,,,
5f738de5cd78b40e58fb464b,63f3cfca20052e4ae7554ebf,6453c721a0e711d71abb9590,2023-05-04_16h55.01.347,ga_syllabified_check,2022.2.5,Win32,60.02040694,-0.390625,-0.104166667,1,0,0,0.6837,text_option_1_practice,,0,1,1,1,1,./stim/p05_syllable_1_matio_hit.wav,p05,matio,hit,ma-tio,ma-tio,ma-ti-o, ,,,,,,,,,,,,,
5f738de5cd78b40e58fb464b,63f3cfca20052e4ae7554ebf,6453c721a0e711d71abb9590,2023-05-04_16h55.01.347,ga_syllabified_check,2022.2.5,Win32,60.02040694,0.361979167,-0.102864583,1,0,0,1.416,text_option_2_practice,,0,2,2,2,1,./stim/p08_syllable_1_liamo_hit.wav,p08,liamo,hit,ja-mo,lia-mo,li-a-mo, ,,,,,,,,,,,,,
5f738de5cd78b40e58fb464b,63f3cfca20052e4ae7554ebf,6453c721a0e711d71abb9590,2023-05-04_16h55.01.347,ga_syllabified_check,2022.2.5,Win32,60.02040694,,,,,,,,,,,,,,,,,,,,,,,,,,,,,,,,,,
5f738de5cd78b40e58fb464b,63f3cfca20052e4ae7554ebf,6453c721a0e711d71abb9590,2023-05-04_16h55.01.347,ga_syllabified_check,2022.2.5,Win32,60.02040694,,,,,,,,,,,,,,./stim/p08_syllable_1_lakatuaisto_hit.wav,p08,lakatuaisto,hit,la-ka-tu-i-jis,la-ka-tuais-to,la-ka-tu-ais-to,la-ka-tua-is-to,0.0234375,-0.109375,1,0,0,4.4003,text_option_3,,0,0,0,189,1
5f738de5cd78b40e58fb464b,63f3cfca20052e4ae7554ebf,6453c721a0e711d71abb9590,2023-05-04_16h55.01.347,ga_syllabified_check,2022.2.5,Win32,60.02040694,,,,,,,,,,,,,,./stim/p04_syllable_1_lakapuaisto_hit.wav,p04,lakapuaisto,hit,la-ka-puais-to,la-ka-puais-to,la-ka-pu-ais-to,la-ka-pua-is-to,-0.416666667,-0.100260417,1,0,0,2.2673,text_option_1,,0,1,1,51,1
5f738de5cd78b40e58fb464b,63f3cfca20052e4ae7554ebf,6453c721a0e711d71abb9590,2023-05-04_16h55.01.347,ga_syllabified_check,2022.2.5,Win32,60.02040694,,,,,,,,,,,,,,./stim/p04_syllable_1_flauro_hit.wav,p04,flauro,hit,flau-ro,flau-ro,fla-u-ro, ,-0.389322917,-0.095052083,1,0,0,1.7837,text_option_1,,0,2,2,39,1
5f738de5cd78b40e58fb464b,63f3cfca20052e4ae7554ebf,6453c721a0e711d71abb9590,2023-05-04_16h55.01.347,ga_syllabified_check,2022.2.5,Win32,60.02040694,,,,,,,,,,,,,,./stim/p06_syllable_1_lakafuaisto_hit.wav,p06,lakafuaisto,hit,la-ka-fu-a-is,la-ka-fuais-to,la-ka-fu-ais-to,la-ka-fua-is-to,0.014322917,-0.295572917,1,0,0,4.2296,text_option_other,la-ka-fu-a-is-to,0,3,3,113,1
5f738de5cd78b40e58fb464b,63f3cfca20052e4ae7554ebf,6453c721a0e711d71abb9590,2023-05-04_16h55.01.347,ga_syllabified_check,2022.2.5,Win32,60.02040694,,,,,,,,,,,,,,./stim/p05_syllable_1_falutraigo_hit.wav,p05,falutraigo,hit,fa-lu-trai-go,fa-lu-trai-go,fa-lu-tra-i-go, ,-0.36328125,-0.098958333,1,0,0,1.7338,text_option_1,,0,4,4,72,1
5f738de5cd78b40e58fb464b,63f3cfca20052e4ae7554ebf,6453c721a0e711d71abb9590,2023-05-04_16h55.01.347,ga_syllabified_check,2022.2.5,Win32,60.02040694,,,,,,,,,,,,,,./stim/p08_syllable_1_faluduako_hit.wav,p08,faluduako,hit,fa-lu-duai-ko,fa-lu-dua-ko,fa-lu-du-a-ko, ,0.0078125,-0.305989583,1,0,0,2.9003,text_option_other,fa-lu-du-i-co,0,5,5,172,1
5f738de5cd78b40e58fb464b,63f3cfca20052e4ae7554ebf,6453c721a0e711d71abb9590,2023-05-04_16h55.01.347,ga_syllabified_check,2022.2.5,Win32,60.02040694,,,,,,,,,,,,,,./stim/p07_syllable_1_falufaisto_hit.wav,p07,falufaisto,hit,fa-lu-fais-to,fa-lu-fais-to,fa-lu-fa-is-to, ,-0.359375,-0.109375,1,0,0,2.2335,text_option_1,,0,6,6,139,1
5f738de5cd78b40e58fb464b,63f3cfca20052e4ae7554ebf,6453c721a0e711d71abb9590,2023-05-04_16h55.01.347,ga_syllabified_check,2022.2.5,Win32,60.02040694,,,,,,,,,,,,,,./stim/p07_syllable_1_payielo_hit.wav,p07,payielo,hit,pa-yie-lo,pa-yie-lo,pa-yi-e-lo, ,-0.40234375,-0.098958333,1,0,0,3.2836,text_option_1,,0,7,7,166,1
5f738de5cd78b40e58fb464b,63f3cfca20052e4ae7554ebf,6453c721a0e711d71abb9590,2023-05-04_16h55.01.347,ga_syllabified_check,2022.2.5,Win32,60.02040694,,,,,,,,,,,,,,./stim/p08_syllable_1_paluguato_hit.wav,p08,paluguato,hit,pa-lu-gua-to,pa-lu-gua-to,pa-lu-gu-a-to, ,-0.385416667,-0.100260417,1,0,0,2.1499,text_option_1,,0,8,8,197,1
5f738de5cd78b40e58fb464b,63f3cfca20052e4ae7554ebf,6453c721a0e711d71abb9590,2023-05-04_16h55.01.347,ga_syllabified_check,2022.2.5,Win32,60.02040694,,,,,,,,,,,,,,./stim/p05_syllable_1_falufaisto_hit.wav,p05,falufaisto,hit,fa-lu-fais-to,fa-lu-fais-to,fa-lu-fa-is-to, ,-0.3359375,-0.114583333,1,0,0,1.3496,text_option_1,,0,9,9,71,1
5f738de5cd78b40e58fb464b,63f3cfca20052e4ae7554ebf,6453c721a0e711d71abb9590,2023-05-04_16h55.01.347,ga_syllabified_check,2022.2.5,Win32,60.02040694,,,,,,,,,,,,,,./stim/p03_syllable_1_lakabuaisto_hit.wav,p03,lakabuaisto,hit,la-ka-buais-to,la-ka-buais-to,la-ka-bu-ais-to,la-ka-bua-is-to,-0.373697917,-0.106770833,1,0,0,1.5168,text_option_1,,0,10,10,7,1
5f738de5cd78b40e58fb464b,63f3cfca20052e4ae7554ebf,6453c721a0e711d71abb9590,2023-05-04_16h55.01.347,ga_syllabified_check,2022.2.5,Win32,60.02040694,,,,,,,,,,,,,,./stim/p04_syllable_1_lakagiaisto_hit.wav,p04,lakagiaisto,hit,la-ka-giais-to,la-ka-giais-to,la-ka-gi-ais-to,la-ka-gia-is-to,-0.368489583,-0.09765625,1,0,0,2.9336,text_option_1,,0,11,11,46,1
5f738de5cd78b40e58fb464b,63f3cfca20052e4ae7554ebf,6453c721a0e711d71abb9590,2023-05-04_16h55.01.347,ga_syllabified_check,2022.2.5,Win32,60.02040694,,,,,,,,,,,,,,./stim/p03_syllable_1_payielo_hit.wav,p03,payielo,hit,pa-yie-lo,pa-yie-lo,pa-yi-e-lo, ,-0.368489583,-0.09765625,1,0,0,1.2996,text_option_1,,0,12,12,30,1
5f738de5cd78b40e58fb464b,63f3cfca20052e4ae7554ebf,6453c721a0e711d71abb9590,2023-05-04_16h55.01.347,ga_syllabified_check,2022.2.5,Win32,60.02040694,,,,,,,,,,,,,,./stim/p03_syllable_1_lakadiaisto_hit.wav,p03,lakadiaisto,hit,la-ka-diais-to,la-ka-diais-to,la-ka-di-ais-to,la-ka-dia-is-to,-0.358072917,-0.102864583,1,0,0,2.0998,text_option_1,,0,13,13,8,1
5f738de5cd78b40e58fb464b,63f3cfca20052e4ae7554ebf,6453c721a0e711d71abb9590,2023-05-04_16h55.01.347,ga_syllabified_check,2022.2.5,Win32,60.02040694,,,,,,,,,,,,,,./stim/p07_syllable_1_lakafiaisto_hit.wav,p07,lakafiaisto,hit,la-ka-fiais-to,la-ka-fiais-to,la-ka-fi-ais-to,la-ka-fia-is-to,-0.43359375,-0.09375,1,0,0,2.2338,text_option_1,,0,14,14,146,1
5f738de5cd78b40e58fb464b,63f3cfca20052e4ae7554ebf,6453c721a0e711d71abb9590,2023-05-04_16h55.01.347,ga_syllabified_check,2022.2.5,Win32,60.02040694,,,,,,,,,,,,,,./stim/p07_syllable_1_lakaguaisto_hit.wav,p07,lakaguaisto,hit,la-ka-guais-to,la-ka-guais-to,la-ka-gu-ais-to,la-ka-gua-is-to,0.408854167,-0.091145833,1,0,0,3.7004,text_option_2,,0,15,15,149,1
5f738de5cd78b40e58fb464b,63f3cfca20052e4ae7554ebf,6453c721a0e711d71abb9590,2023-05-04_16h55.01.347,ga_syllabified_check,2022.2.5,Win32,60.02040694,,,,,,,,,,,,,,./stim/p05_syllable_1_manhiala_hit.wav,p05,mañiala,hit,ma-nhia-la,ma-ñia-la,ma-ñi-a-la, ,-0.334635417,-0.109375,1,0,0,1.2172,text_option_1,,0,16,16,89,1
5f738de5cd78b40e58fb464b,63f3cfca20052e4ae7554ebf,6453c721a0e711d71abb9590,2023-05-04_16h55.01.347,ga_syllabified_check,2022.2.5,Win32,60.02040694,,,,,,,,,,,,,,./stim/p05_syllable_1_lakakuaisto_hit.wav,p05,lakakuaisto,hit,la-ka-kais-to,la-ka-kuais-to,la-ka-ku-ais-to,la-ka-kua-is-to,0.055989583,-0.104166667,1,0,0,1.9003,text_option_3,,0,17,17,83,1
5f738de5cd78b40e58fb464b,63f3cfca20052e4ae7554ebf,6453c721a0e711d71abb9590,2023-05-04_16h55.01.347,ga_syllabified_check,2022.2.5,Win32,60.02040694,,,,,,,,,,,,,,./stim/p08_syllable_1_rausto_hit.wav,p08,rausto,hit,raus-to,raus-to,ra-us-to, ,-0.4453125,-0.102864583,1,0,0,0.8,text_option_1,,0,18,18,201,1
5f738de5cd78b40e58fb464b,63f3cfca20052e4ae7554ebf,6453c721a0e711d71abb9590,2023-05-04_16h55.01.347,ga_syllabified_check,2022.2.5,Win32,60.02040694,,,,,,,,,,,,,,./stim/p05_syllable_1_lakakiaisto_hit.wav,p05,lakakiaisto,hit,la-ka-ki-ais-to,la-ka-kiais-to,la-ka-ki-ais-to,la-ka-kia-is-to,-0.41015625,-0.08984375,1,0,0,1.2499,text_option_1,,0,19,19,82,1
5f738de5cd78b40e58fb464b,63f3cfca20052e4ae7554ebf,6453c721a0e711d71abb9590,2023-05-04_16h55.01.347,ga_syllabified_check,2022.2.5,Win32,60.02040694,,,,,,,,,,,,,,./stim/p08_syllable_1_lakagiaisto_hit.wav,p08,lakagiaisto,hit,la-ka-gi-jas-to,la-ka-giais-to,la-ka-gi-ais-to,la-ka-gia-is-to,0.428385417,-0.108072917,1,0,0,2.8329,text_option_2,,0,20,20,182,1
5f738de5cd78b40e58fb464b,63f3cfca20052e4ae7554ebf,6453c721a0e711d71abb9590,2023-05-04_16h55.01.347,ga_syllabified_check,2022.2.5,Win32,60.02040694,,,,,,,,,,,,,,./stim/p08_syllable_1_falufaisto_hit.wav,p08,falufaisto,hit,fa-lu-fais-to,fa-lu-fais-to,fa-lu-fa-is-to, ,-0.333333333,-0.092447917,1,0,0,2.15,text_option_1,,0,21,21,173,1
5f738de5cd78b40e58fb464b,63f3cfca20052e4ae7554ebf,6453c721a0e711d71abb9590,2023-05-04_16h55.01.347,ga_syllabified_check,2022.2.5,Win32,60.02040694,,,,,,,,,,,,,,./stim/p06_syllable_1_ruyiola_hit.wav,p06,ruyiola,hit,ru-yi-o-la,ru-yio-la,ru-yi-o-la, ,0.384114583,-0.09375,1,0,0,2.6003,text_option_2,,0,22,22,134,1
5f738de5cd78b40e58fb464b,63f3cfca20052e4ae7554ebf,6453c721a0e711d71abb9590,2023-05-04_16h55.01.347,ga_syllabified_check,2022.2.5,Win32,60.02040694,,,,,,,,,,,,,,./stim/p05_syllable_1_paluguato_hit.wav,p05,paluguato,hit,pa-lu-gau-to,pa-lu-gua-to,pa-lu-gu-a-to, ,-0.375,-0.110677083,1,0,0,1.4831,text_option_1,,0,23,23,95,1
5f738de5cd78b40e58fb464b,63f3cfca20052e4ae7554ebf,6453c721a0e711d71abb9590,2023-05-04_16h55.01.347,ga_syllabified_check,2022.2.5,Win32,60.02040694,,,,,,,,,,,,,,./stim/p07_syllable_1_costonhialo_hit.wav,p07,costoñialo,hit,cos-to-nhia-lo,cos-to-ñia-lo,cos-to-ñi-a-lo, ,-0.337239583,-0.110677083,1,0,0,3.1169,text_option_1,,0,24,24,137,1
5f738de5cd78b40e58fb464b,63f3cfca20052e4ae7554ebf,6453c721a0e711d71abb9590,2023-05-04_16h55.01.347,ga_syllabified_check,2022.2.5,Win32,60.02040694,,,,,,,,,,,,,,./stim/p06_syllable_1_lakagiaisto_hit.wav,p06,lakagiaisto,hit,la-ka-gia-is-to,la-ka-giais-to,la-ka-gi-ais-to,la-ka-gia-is-to,0.046875,-0.106770833,1,0,0,3.8832,text_option_3,,0,25,25,114,1
5f738de5cd78b40e58fb464b,63f3cfca20052e4ae7554ebf,6453c721a0e711d71abb9590,2023-05-04_16h55.01.347,ga_syllabified_check,2022.2.5,Win32,60.02040694,,,,,,,,,,,,,,./stim/p08_syllable_1_mebochiana_hit.wav,p08,mebochiana,hit,me-bo-chi-a-na,me-bo-chia-na,me-bo-chi-a-na, ,0.391927083,-0.1015625,1,0,0,2.1167,text_option_2,,0,26,26,192,1
5f738de5cd78b40e58fb464b,63f3cfca20052e4ae7554ebf,6453c721a0e711d71abb9590,2023-05-04_16h55.01.347,ga_syllabified_check,2022.2.5,Win32,60.02040694,,,,,,,,,,,,,,./stim/p05_syllable_1_palufauro_hit.wav,p05,palufauro,hit,pa-lu-fau-ro,pa-lu-fau-ro,pa-lu-fa-u-ro, ,-0.384114583,-0.114583333,1,0,0,2.4501,text_option_1,,0,27,27,93,1
5f738de5cd78b40e58fb464b,63f3cfca20052e4ae7554ebf,6453c721a0e711d71abb9590,2023-05-04_16h55.01.347,ga_syllabified_check,2022.2.5,Win32,60.02040694,,,,,,,,,,,,,,./stim/p03_syllable_1_flauro_hit.wav,p03,flauro,hit,flau-ro,flau-ro,fla-u-ro, ,-0.368489583,-0.106770833,1,0,0,1.8333,text_option_1,,0,28,28,5,1
5f738de5cd78b40e58fb464b,63f3cfca20052e4ae7554ebf,6453c721a0e711d71abb9590,2023-05-04_16h55.01.347,ga_syllabified_check,2022.2.5,Win32,60.02040694,,,,,,,,,,,,,,./stim/p08_syllable_1_chiaba_hit.wav,p08,chiaba,hit,chi-a-ba,chia-ba,chi-a-ba, ,0.37890625,-0.108072917,1,0,0,0.5501,text_option_2,,0,29,29,170,1
5f738de5cd78b40e58fb464b,63f3cfca20052e4ae7554ebf,6453c721a0e711d71abb9590,2023-05-04_16h55.01.347,ga_syllabified_check,2022.2.5,Win32,60.02040694,,,,,,,,,,,,,,./stim/p03_syllable_1_lakaduaisto_hit.wav,p03,lakaduaisto,hit,la-ka-duais-to,la-ka-duais-to,la-ka-du-ais-to,la-ka-dua-is-to,-0.39453125,-0.102864583,1,0,0,1.4666,text_option_1,,0,30,30,9,1
5f738de5cd78b40e58fb464b,63f3cfca20052e4ae7554ebf,6453c721a0e711d71abb9590,2023-05-04_16h55.01.347,ga_syllabified_check,2022.2.5,Win32,60.02040694,,,,,,,,,,,,,,./stim/p08_syllable_1_lakatiaisto_hit.wav,p08,lakatiaisto,hit,la-ka-ti-as-to,la-ka-tiais-to,la-ka-ti-ais-to,la-ka-tia-is-to,0.442708333,-0.09765625,1,0,0,3.0301,text_option_2,,0,31,31,188,1
5f738de5cd78b40e58fb464b,63f3cfca20052e4ae7554ebf,6453c721a0e711d71abb9590,2023-05-04_16h55.01.347,ga_syllabified_check,2022.2.5,Win32,60.02040694,,,,,,,,,,,,,,./stim/p07_syllable_1_palufauro_hit.wav,p07,palufauro,hit,pa-lu-fau-ro,pa-lu-fau-ro,pa-lu-fa-u-ro, ,0.44140625,-0.110677083,1,0,0,2.5128,text_option_2,,0,32,32,161,1
5f738de5cd78b40e58fb464b,63f3cfca20052e4ae7554ebf,6453c721a0e711d71abb9590,2023-05-04_16h55.01.347,ga_syllabified_check,2022.2.5,Win32,60.02040694,,,,,,,,,,,,,,./stim/p06_syllable_1_lakabuaisto_hit.wav,p06,lakabuaisto,hit,la-ka-bu-a-is,la-ka-buais-to,la-ka-bu-ais-to,la-ka-bua-is-to,0.01171875,-0.114583333,1,0,0,3.4374,text_option_3,,0,33,33,109,1
5f738de5cd78b40e58fb464b,63f3cfca20052e4ae7554ebf,6453c721a0e711d71abb9590,2023-05-04_16h55.01.347,ga_syllabified_check,2022.2.5,Win32,60.02040694,,,,,,,,,,,,,,./stim/p03_syllable_1_lliape_hit.wav,p03,lliape,hit,llia,llia-pe,lli-a-pe, ,-0.424479167,-0.09375,1,0,0,1.017,text_option_1,,0,34,34,20,1
5f738de5cd78b40e58fb464b,63f3cfca20052e4ae7554ebf,6453c721a0e711d71abb9590,2023-05-04_16h55.01.347,ga_syllabified_check,2022.2.5,Win32,60.02040694,,,,,,,,,,,,,,./stim/p04_syllable_1_lliape_hit.wav,p04,lliape,hit,lia-pe,llia-pe,lli-a-pe, ,-0.399739583,-0.114583333,1,0,0,1.0796,text_option_1,,0,35,35,54,1
5f738de5cd78b40e58fb464b,63f3cfca20052e4ae7554ebf,6453c721a0e711d71abb9590,2023-05-04_16h55.01.347,ga_syllabified_check,2022.2.5,Win32,60.02040694,,,,,,,,,,,,,,./stim/p08_syllable_1_flauro_hit.wav,p08,flauro,hit,flau-ro,flau-ro,fla-u-ro, ,-0.388020833,-0.088541667,1,0,0,1.2169,text_option_1,,0,36,36,175,1
5f738de5cd78b40e58fb464b,63f3cfca20052e4ae7554ebf,6453c721a0e711d71abb9590,2023-05-04_16h55.01.347,ga_syllabified_check,2022.2.5,Win32,60.02040694,,,,,,,,,,,,,,./stim/p05_syllable_1_lakapiaisto_hit.wav,p05,lakapiaisto,hit,la-ka-pais-to,la-ka-piais-to,la-ka-pi-ais-to,la-ka-pia-is-to,-0.024739583,-0.282552083,1,0,0,4.083,text_option_other,la-ka-pais-to,0,37,37,84,1
5f738de5cd78b40e58fb464b,63f3cfca20052e4ae7554ebf,6453c721a0e711d71abb9590,2023-05-04_16h55.01.347,ga_syllabified_check,2022.2.5,Win32,60.02040694,,,,,,,,,,,,,,./stim/p07_syllable_1_lliape_hit.wav,p07,lliape,hit,lliai-pe,llia-pe,lli-a-pe, ,-0.385416667,-0.100260417,1,0,0,2.948,text_option_1,,0,38,38,156,1
5f738de5cd78b40e58fb464b,63f3cfca20052e4ae7554ebf,6453c721a0e711d71abb9590,2023-05-04_16h55.01.347,ga_syllabified_check,2022.2.5,Win32,60.02040694,,,,,,,,,,,,,,./stim/p04_syllable_1_lakafiaisto_hit.wav,p04,lakafiaisto,hit,la-ka-fiais-to,la-ka-fiais-to,la-ka-fi-ais-to,la-ka-fia-is-to,-0.364583333,-0.098958333,1,0,0,3.3007,text_option_1,,0,39,39,44,1
5f738de5cd78b40e58fb464b,63f3cfca20052e4ae7554ebf,6453c721a0e711d71abb9590,2023-05-04_16h55.01.347,ga_syllabified_check,2022.2.5,Win32,60.02040694,,,,,,,,,,,,,,./stim/p06_syllable_1_pachialo_hit.wav,p06,pachialo,hit,pa-shi-a-lo,pa-chia-lo,pa-chi-a-lo, ,0.45703125,-0.10546875,1,0,0,2.2499,text_option_2,,0,40,40,126,1
5f738de5cd78b40e58fb464b,63f3cfca20052e4ae7554ebf,6453c721a0e711d71abb9590,2023-05-04_16h55.01.347,ga_syllabified_check,2022.2.5,Win32,60.02040694,,,,,,,,,,,,,,./stim/p04_syllable_1_payielo_hit.wav,p04,payielo,hit,pa-yie-lo,pa-yie-lo,pa-yi-e-lo, ,-0.389322917,-0.08984375,1,0,0,1.463,text_option_1,,0,41,41,64,1
5f738de5cd78b40e58fb464b,63f3cfca20052e4ae7554ebf,6453c721a0e711d71abb9590,2023-05-04_16h55.01.347,ga_syllabified_check,2022.2.5,Win32,60.02040694,,,,,,,,,,,,,,./stim/p05_syllable_1_palumaisto_hit.wav,p05,palumaisto,hit,pa-lu-mais-to,pa-lu-mais-to,pa-lu-ma-is-to, ,-0.360677083,-0.109375,1,0,0,2.0372,text_option_1,,0,42,42,96,1
5f738de5cd78b40e58fb464b,63f3cfca20052e4ae7554ebf,6453c721a0e711d71abb9590,2023-05-04_16h55.01.347,ga_syllabified_check,2022.2.5,Win32,60.02040694,,,,,,,,,,,,,,./stim/p03_syllable_1_nhiape_hit.wav,p03,ñiape,hit,nhia-pe,ñia-pe,ñi-a-pe, ,-0.412760417,-0.111979167,1,0,0,0.9833,text_option_1,,0,43,43,23,1
5f738de5cd78b40e58fb464b,63f3cfca20052e4ae7554ebf,6453c721a0e711d71abb9590,2023-05-04_16h55.01.347,ga_syllabified_check,2022.2.5,Win32,60.02040694,,,,,,,,,,,,,,./stim/p03_syllable_1_lakapiaisto_hit.wav,p03,lakapiaisto,hit,la-ka-piais-to,la-ka-piais-to,la-ka-pi-ais-to,la-ka-pia-is-to,0.43359375,-0.102864583,1,0,0,2.0338,text_option_2,,0,44,44,16,1
5f738de5cd78b40e58fb464b,63f3cfca20052e4ae7554ebf,6453c721a0e711d71abb9590,2023-05-04_16h55.01.347,ga_syllabified_check,2022.2.5,Win32,60.02040694,,,,,,,,,,,,,,./stim/p06_syllable_1_lakakiaisto_hit.wav,p06,lakakiaisto,hit,la-ka-kia-is-to,la-ka-kiais-to,la-ka-ki-ais-to,la-ka-kia-is-to,-0.014322917,-0.10546875,1,0,0,4.0996,text_option_3,,0,45,45,116,1
5f738de5cd78b40e58fb464b,63f3cfca20052e4ae7554ebf,6453c721a0e711d71abb9590,2023-05-04_16h55.01.347,ga_syllabified_check,2022.2.5,Win32,60.02040694,,,,,,,,,,,,,,./stim/p05_syllable_1_lakapuaisto_hit.wav,p05,lakapuaisto,hit,la-ka-pais-to,la-ka-puais-to,la-ka-pu-ais-to,la-ka-pua-is-to,0.36328125,-0.106770833,1,0,0,2.6169,text_option_2,,0,46,46,85,1
5f738de5cd78b40e58fb464b,63f3cfca20052e4ae7554ebf,6453c721a0e711d71abb9590,2023-05-04_16h55.01.347,ga_syllabified_check,2022.2.5,Win32,60.02040694,,,,,,,,,,,,,,./stim/p07_syllable_1_lakabiaisto_hit.wav,p07,lakabiaisto,hit,la-ka-bais-to,la-ka-biais-to,la-ka-bi-ais-to,la-ka-bia-is-to,-0.009114583,-0.309895833,1,0,0,3.2175,text_option_other,la-ka-bais-to,0,47,47,142,1
5f738de5cd78b40e58fb464b,63f3cfca20052e4ae7554ebf,6453c721a0e711d71abb9590,2023-05-04_16h55.01.347,ga_syllabified_check,2022.2.5,Win32,60.02040694,,,,,,,,,,,,,,./stim/p03_syllable_1_palutrauco_hit.wav,p03,palutrauco,hit,pa-lu-trau-co,pa-lu-trau-co,pa-lu-tra-u-co, ,-0.388020833,-0.109375,1,0,0,1.9836,text_option_1,,0,48,48,29,1
5f738de5cd78b40e58fb464b,63f3cfca20052e4ae7554ebf,6453c721a0e711d71abb9590,2023-05-04_16h55.01.347,ga_syllabified_check,2022.2.5,Win32,60.02040694,,,,,,,,,,,,,,./stim/p07_syllable_1_ruyiola_hit.wav,p07,ruyiola,hit,ru-yio-la,ru-yio-la,ru-yi-o-la, ,-0.401041667,-0.1015625,1,0,0,1.65,text_option_1,,0,49,49,168,1
5f738de5cd78b40e58fb464b,63f3cfca20052e4ae7554ebf,6453c721a0e711d71abb9590,2023-05-04_16h55.01.347,ga_syllabified_check,2022.2.5,Win32,60.02040694,,,,,,,,,,,,,,./stim/p03_syllable_1_lakafuaisto_hit.wav,p03,lakafuaisto,hit,la-ka-fuais-to,la-ka-fuais-to,la-ka-fu-ais-to,la-ka-fua-is-to,-0.389322917,-0.095052083,1,0,0,1.8837,text_option_1,,0,50,50,11,1
5f738de5cd78b40e58fb464b,63f3cfca20052e4ae7554ebf,6453c721a0e711d71abb9590,2023-05-04_16h55.01.347,ga_syllabified_check,2022.2.5,Win32,60.02040694,,,,,,,,,,,,,,./stim/p06_syllable_1_falutraigo_hit.wav,p06,falutraigo,hit,fa-lu-tra-i-go,fa-lu-trai-go,fa-lu-tra-i-go, ,0.397135417,-0.09765625,1,0,0,4.9838,text_option_2,,0,51,51,106,1
5f738de5cd78b40e58fb464b,63f3cfca20052e4ae7554ebf,6453c721a0e711d71abb9590,2023-05-04_16h55.01.347,ga_syllabified_check,2022.2.5,Win32,60.02040694,,,,,,,,,,,,,,./stim/p04_syllable_1_lakabiaisto_hit.wav,p04,lakabiaisto,hit,la-ka-biais-to,la-ka-biais-to,la-ka-bi-ais-to,la-ka-bia-is-to,-0.421875,-0.106770833,1,0,0,5.4333,text_option_1,,0,52,52,40,1
5f738de5cd78b40e58fb464b,63f3cfca20052e4ae7554ebf,6453c721a0e711d71abb9590,2023-05-04_16h55.01.347,ga_syllabified_check,2022.2.5,Win32,60.02040694,,,,,,,,,,,,,,./stim/p03_syllable_1_ruyiola_hit.wav,p03,ruyiola,hit,ru-yio-la,ru-yio-la,ru-yi-o-la, ,-0.397135417,-0.106770833,1,0,0,1.6664,text_option_1,,0,53,53,32,1
5f738de5cd78b40e58fb464b,63f3cfca20052e4ae7554ebf,6453c721a0e711d71abb9590,2023-05-04_16h55.01.347,ga_syllabified_check,2022.2.5,Win32,60.02040694,,,,,,,,,,,,,,./stim/p07_syllable_1_lakakiaisto_hit.wav,p07,lakakiaisto,hit,la-ka-kais-to,la-ka-kiais-to,la-ka-ki-ais-to,la-ka-kia-is-to,-0.018229167,-0.295572917,1,0,0,4.5004,text_option_other,la-ka-kais-to,0,54,54,150,1
5f738de5cd78b40e58fb464b,63f3cfca20052e4ae7554ebf,6453c721a0e711d71abb9590,2023-05-04_16h55.01.347,ga_syllabified_check,2022.2.5,Win32,60.02040694,,,,,,,,,,,,,,./stim/p03_syllable_1_rausto_hit.wav,p03,rausto,hit,raus-to,raus-to,ra-us-to, ,-0.421875,-0.092447917,1,0,0,2.5335,text_option_1,,0,55,55,31,1
5f738de5cd78b40e58fb464b,63f3cfca20052e4ae7554ebf,6453c721a0e711d71abb9590,2023-05-04_16h55.01.347,ga_syllabified_check,2022.2.5,Win32,60.02040694,,,,,,,,,,,,,,./stim/p06_syllable_1_lakapuaisto_hit.wav,p06,lakapuaisto,hit,la-ka-pu-a-is,la-ka-puais-to,la-ka-pu-ais-to,la-ka-pua-is-to,0.390625,-0.1015625,1,0,0,5.3337,text_option_2,,0,56,56,119,1
5f738de5cd78b40e58fb464b,63f3cfca20052e4ae7554ebf,6453c721a0e711d71abb9590,2023-05-04_16h55.01.347,ga_syllabified_check,2022.2.5,Win32,60.02040694,,,,,,,,,,,,,,./stim/p03_syllable_1_lakatiaisto_hit.wav,p03,lakatiaisto,hit,la-ka-tiais-to,la-ka-tiais-to,la-ka-ti-ais-to,la-ka-tia-is-to,-0.38671875,-0.100260417,1,0,0,1.7671,text_option_1,,0,57,57,18,1
5f738de5cd78b40e58fb464b,63f3cfca20052e4ae7554ebf,6453c721a0e711d71abb9590,2023-05-04_16h55.01.347,ga_syllabified_check,2022.2.5,Win32,60.02040694,,,,,,,,,,,,,,./stim/p07_syllable_1_lakadiaisto_hit.wav,p07,lakadiaisto,hit,la-ka-dia-is-to,la-ka-diais-to,la-ka-di-ais-to,la-ka-dia-is-to,0.02734375,-0.100260417,1,0,0,2.2336,text_option_3,,0,58,58,144,1
5f738de5cd78b40e58fb464b,63f3cfca20052e4ae7554ebf,6453c721a0e711d71abb9590,2023-05-04_16h55.01.347,ga_syllabified_check,2022.2.5,Win32,60.02040694,,,,,,,,,,,,,,./stim/p06_syllable_1_payielo_hit.wav,p06,payielo,hit,pa-yi-e-lo,pa-yie-lo,pa-yi-e-lo, ,0.385416667,-0.102864583,1,0,0,2.0672,text_option_2,,0,59,59,132,1
5f738de5cd78b40e58fb464b,63f3cfca20052e4ae7554ebf,6453c721a0e711d71abb9590,2023-05-04_16h55.01.347,ga_syllabified_check,2022.2.5,Win32,60.02040694,,,,,,,,,,,,,,./stim/p06_syllable_1_manhiala_hit.wav,p06,mañiala,hit,ma-nhi-a-la,ma-ñia-la,ma-ñi-a-la, ,0.434895833,-0.10546875,1,0,0,3.3964,text_option_2,,0,60,60,123,1
5f738de5cd78b40e58fb464b,63f3cfca20052e4ae7554ebf,6453c721a0e711d71abb9590,2023-05-04_16h55.01.347,ga_syllabified_check,2022.2.5,Win32,60.02040694,,,,,,,,,,,,,,./stim/p06_syllable_1_costonhialo_hit.wav,p06,costoñialo,hit,cos-to-nhia-lo,cos-to-ñia-lo,cos-to-ñi-a-lo, ,-0.350260417,-0.1015625,1,0,0,2.571,text_option_1,,0,61,61,103,1
5f738de5cd78b40e58fb464b,63f3cfca20052e4ae7554ebf,6453c721a0e711d71abb9590,2023-05-04_16h55.01.347,ga_syllabified_check,2022.2.5,Win32,60.02040694,,,,,,,,,,,,,,./stim/p05_syllable_1_lakaduaisto_hit.wav,p05,lakaduaisto,hit,la-ka-dais-to,la-ka-duais-to,la-ka-du-ais-to,la-ka-dua-is-to,0.022135417,-0.29296875,1,0,0,2.6001,text_option_other,la-ka-dais-to,0,62,62,77,1
5f738de5cd78b40e58fb464b,63f3cfca20052e4ae7554ebf,6453c721a0e711d71abb9590,2023-05-04_16h55.01.347,ga_syllabified_check,2022.2.5,Win32,60.02040694,,,,,,,,,,,,,,./stim/p04_syllable_1_nhiape_hit.wav,p04,ñiape,hit,nhia-pe,ñia-pe,ñi-a-pe, ,-0.407552083,-0.095052083,1,0,0,1.0662,text_option_1,,0,63,63,57,1
5f738de5cd78b40e58fb464b,63f3cfca20052e4ae7554ebf,6453c721a0e711d71abb9590,2023-05-04_16h55.01.347,ga_syllabified_check,2022.2.5,Win32,60.02040694,,,,,,,,,,,,,,./stim/p04_syllable_1_palutrauco_hit.wav,p04,palutrauco,hit,pa-lu-trau-co,pa-lu-trau-co,pa-lu-tra-u-co, ,-0.372395833,-0.080729167,1,0,0,1.5679,text_option_1,,0,64,64,63,1
5f738de5cd78b40e58fb464b,63f3cfca20052e4ae7554ebf,6453c721a0e711d71abb9590,2023-05-04_16h55.01.347,ga_syllabified_check,2022.2.5,Win32,60.02040694,,,,,,,,,,,,,,./stim/p07_syllable_1_rausto_hit.wav,p07,rausto,hit,raus-to,raus-to,ra-us-to, ,-0.408854167,-0.10546875,1,0,0,1.267,text_option_1,,0,65,65,167,1
5f738de5cd78b40e58fb464b,63f3cfca20052e4ae7554ebf,6453c721a0e711d71abb9590,2023-05-04_16h55.01.347,ga_syllabified_check,2022.2.5,Win32,60.02040694,,,,,,,,,,,,,,./stim/p06_syllable_1_flauro_hit.wav,p06,flauro,hit,fla-u-ro,flau-ro,fla-u-ro, ,0.404947917,-0.10546875,1,0,0,1.7004,text_option_2,,0,66,66,107,1
5f738de5cd78b40e58fb464b,63f3cfca20052e4ae7554ebf,6453c721a0e711d71abb9590,2023-05-04_16h55.01.347,ga_syllabified_check,2022.2.5,Win32,60.02040694,,,,,,,,,,,,,,./stim/p04_syllable_1_lakabuaisto_hit.wav,p04,lakabuaisto,hit,la-ka-buais-to,la-ka-buais-to,la-ka-bu-ais-to,la-ka-bua-is-to,-0.37109375,-0.092447917,1,0,0,1.2007,text_option_1,,0,67,67,41,1
5f738de5cd78b40e58fb464b,63f3cfca20052e4ae7554ebf,6453c721a0e711d71abb9590,2023-05-04_16h55.01.347,ga_syllabified_check,2022.2.5,Win32,60.02040694,,,,,,,,,,,,,,./stim/p05_syllable_1_lakafuaisto_hit.wav,p05,lakafuaisto,hit,la-ka-fais-to,la-ka-fuais-to,la-ka-fu-ais-to,la-ka-fua-is-to,0.046875,-0.307291667,1,0,0,2.4332,text_option_other,la-ka-fais-to,0,68,68,79,1
5f738de5cd78b40e58fb464b,63f3cfca20052e4ae7554ebf,6453c721a0e711d71abb9590,2023-05-04_16h55.01.347,ga_syllabified_check,2022.2.5,Win32,60.02040694,,,,,,,,,,,,,,./stim/p04_syllable_1_palufauro_hit.wav,p04,palufauro,hit,pa-lu-fau-ro,pa-lu-fau-ro,pa-lu-fa-u-ro, ,-0.346354167,-0.095052083,1,0,0,1.5332,text_option_1,,0,69,69,59,1
5f738de5cd78b40e58fb464b,63f3cfca20052e4ae7554ebf,6453c721a0e711d71abb9590,2023-05-04_16h55.01.347,ga_syllabified_check,2022.2.5,Win32,60.02040694,,,,,,,,,,,,,,./stim/p03_syllable_1_falufaisto_hit.wav,p03,falufaisto,hit,fa-lu-fais-to,fa-lu-fais-to,fa-lu-fa-is-to, ,-0.389322917,-0.111979167,1,0,0,1.1998,text_option_1,,0,70,70,3,1
5f738de5cd78b40e58fb464b,63f3cfca20052e4ae7554ebf,6453c721a0e711d71abb9590,2023-05-04_16h55.01.347,ga_syllabified_check,2022.2.5,Win32,60.02040694,,,,,,,,,,,,,,./stim/p05_syllable_1_nhiape_hit.wav,p05,ñiape,hit,nhia-pe,ñia-pe,ñi-a-pe, ,-0.415364583,-0.10546875,1,0,0,0.6164,text_option_1,,0,71,71,91,1
5f738de5cd78b40e58fb464b,63f3cfca20052e4ae7554ebf,6453c721a0e711d71abb9590,2023-05-04_16h55.01.347,ga_syllabified_check,2022.2.5,Win32,60.02040694,,,,,,,,,,,,,,./stim/p08_syllable_1_manhiala_hit.wav,p08,mañiala,hit,ma-nhia-la,ma-ñia-la,ma-ñi-a-la, ,-0.403645833,-0.096354167,1,0,0,1.7167,text_option_1,,0,72,72,191,1
5f738de5cd78b40e58fb464b,63f3cfca20052e4ae7554ebf,6453c721a0e711d71abb9590,2023-05-04_16h55.01.347,ga_syllabified_check,2022.2.5,Win32,60.02040694,,,,,,,,,,,,,,./stim/p07_syllable_1_falutraigo_hit.wav,p07,falutraigo,hit,fa-lu-trai-go,fa-lu-trai-go,fa-lu-tra-i-go, ,-0.375,-0.09375,1,0,0,1.9339,text_option_1,,0,73,73,140,1
5f738de5cd78b40e58fb464b,63f3cfca20052e4ae7554ebf,6453c721a0e711d71abb9590,2023-05-04_16h55.01.347,ga_syllabified_check,2022.2.5,Win32,60.02040694,,,,,,,,,,,,,,./stim/p07_syllable_1_pachialo_hit.wav,p07,pachialo,hit,pa-cha-lo,pa-chia-lo,pa-chi-a-lo, ,-0.4375,-0.108072917,1,0,0,1.4338,text_option_1,,0,74,74,160,1
5f738de5cd78b40e58fb464b,63f3cfca20052e4ae7554ebf,6453c721a0e711d71abb9590,2023-05-04_16h55.01.347,ga_syllabified_check,2022.2.5,Win32,60.02040694,,,,,,,,,,,,,,./stim/p04_syllable_1_palufauto_hit.wav,p04,palufauto,hit,pa-lu-fau-to,pa-lu-fau-to,pa-lu-fa-u-to, ,-0.359375,-0.098958333,1,0,0,1.267,text_option_1,,0,75,75,60,1
5f738de5cd78b40e58fb464b,63f3cfca20052e4ae7554ebf,6453c721a0e711d71abb9590,2023-05-04_16h55.01.347,ga_syllabified_check,2022.2.5,Win32,60.02040694,,,,,,,,,,,,,,./stim/p05_syllable_1_costonhialo_hit.wav,p05,costoñialo,hit,cos-to-nhia-lo,cos-to-ñia-lo,cos-to-ñi-a-lo, ,-0.313802083,-0.12109375,1,0,0,1.7833,text_option_1,,0,76,76,69,1
5f738de5cd78b40e58fb464b,63f3cfca20052e4ae7554ebf,6453c721a0e711d71abb9590,2023-05-04_16h55.01.347,ga_syllabified_check,2022.2.5,Win32,60.02040694,,,,,,,,,,,,,,./stim/p04_syllable_1_rausto_hit.wav,p04,rausto,hit,raus-to,raus-to,ra-us-to, ,-0.393229167,-0.091145833,1,0,0,1.0334,text_option_1,,0,77,77,65,1
5f738de5cd78b40e58fb464b,63f3cfca20052e4ae7554ebf,6453c721a0e711d71abb9590,2023-05-04_16h55.01.347,ga_syllabified_check,2022.2.5,Win32,60.02040694,,,,,,,,,,,,,,./stim/p07_syllable_1_lakapiaisto_hit.wav,p07,lakapiaisto,hit,la-ka-pia-sto,la-ka-piais-to,la-ka-pi-ais-to,la-ka-pia-is-to,0.34375,-0.10546875,1,0,0,4.4671,text_option_2,,0,78,78,152,1
5f738de5cd78b40e58fb464b,63f3cfca20052e4ae7554ebf,6453c721a0e711d71abb9590,2023-05-04_16h55.01.347,ga_syllabified_check,2022.2.5,Win32,60.02040694,,,,,,,,,,,,,,./stim/p06_syllable_1_tuliafo_hit.wav,p06,tuliafo,hit,tu-li-a-fo,tu-lia-fo,tu-li-a-fo, ,0.436197917,-0.088541667,1,0,0,1.4498,text_option_2,,0,79,79,135,1
5f738de5cd78b40e58fb464b,63f3cfca20052e4ae7554ebf,6453c721a0e711d71abb9590,2023-05-04_16h55.01.347,ga_syllabified_check,2022.2.5,Win32,60.02040694,,,,,,,,,,,,,,./stim/p07_syllable_1_faluduako_hit.wav,p07,faluduako,hit,fa-lu-dua-ko,fa-lu-dua-ko,fa-lu-du-a-ko, ,-0.41015625,-0.092447917,1,0,0,2.7632,text_option_1,,0,80,80,138,1
5f738de5cd78b40e58fb464b,63f3cfca20052e4ae7554ebf,6453c721a0e711d71abb9590,2023-05-04_16h55.01.347,ga_syllabified_check,2022.2.5,Win32,60.02040694,,,,,,,,,,,,,,./stim/p05_syllable_1_lakadiaisto_hit.wav,p05,lakadiaisto,hit,la-ka-di-ais-to,la-ka-diais-to,la-ka-di-ais-to,la-ka-dia-is-to,-0.38671875,-0.096354167,1,0,0,2.0837,text_option_1,,0,81,81,76,1
5f738de5cd78b40e58fb464b,63f3cfca20052e4ae7554ebf,6453c721a0e711d71abb9590,2023-05-04_16h55.01.347,ga_syllabified_check,2022.2.5,Win32,60.02040694,,,,,,,,,,,,,,./stim/p03_syllable_1_lakakuaisto_hit.wav,p03,lakakuaisto,hit,la-ka-kuais-to,la-ka-kuais-to,la-ka-ku-ais-to,la-ka-kua-is-to,-0.359375,-0.106770833,1,0,0,1.2206,text_option_1,,0,82,82,15,1
5f738de5cd78b40e58fb464b,63f3cfca20052e4ae7554ebf,6453c721a0e711d71abb9590,2023-05-04_16h55.01.347,ga_syllabified_check,2022.2.5,Win32,60.02040694,,,,,,,,,,,,,,./stim/p07_syllable_1_lakabuaisto_hit.wav,p07,lakabuaisto,hit,la-ka-buais-to,la-ka-buais-to,la-ka-bu-ais-to,la-ka-bua-is-to,-0.333333333,-0.10546875,1,0,0,4.5837,text_option_1,,0,83,83,143,1
5f738de5cd78b40e58fb464b,63f3cfca20052e4ae7554ebf,6453c721a0e711d71abb9590,2023-05-04_16h55.01.347,ga_syllabified_check,2022.2.5,Win32,60.02040694,,,,,,,,,,,,,,./stim/p05_syllable_1_lakatiaisto_hit.wav,p05,lakatiaisto,hit,la-ka-ti-ais-to,la-ka-tiais-to,la-ka-ti-ais-to,la-ka-tia-is-to,-0.385416667,-0.083333333,1,0,0,1.9799,text_option_1,,0,84,84,86,1
5f738de5cd78b40e58fb464b,63f3cfca20052e4ae7554ebf,6453c721a0e711d71abb9590,2023-05-04_16h55.01.347,ga_syllabified_check,2022.2.5,Win32,60.02040694,,,,,,,,,,,,,,./stim/p07_syllable_1_palutrauco_hit.wav,p07,palutrauco,hit,pa-lu-trau-co,pa-lu-trau-co,pa-lu-tra-u-co, ,-0.365885417,-0.087239583,1,0,0,1.1469,text_option_1,,0,85,85,165,1
5f738de5cd78b40e58fb464b,63f3cfca20052e4ae7554ebf,6453c721a0e711d71abb9590,2023-05-04_16h55.01.347,ga_syllabified_check,2022.2.5,Win32,60.02040694,,,,,,,,,,,,,,./stim/p05_syllable_1_chiaba_hit.wav,p05,chiaba,hit,chia-ba,chia-ba,chi-a-ba, ,-0.40625,-0.1171875,1,0,0,2.1501,text_option_1,,0,86,86,68,1
5f738de5cd78b40e58fb464b,63f3cfca20052e4ae7554ebf,6453c721a0e711d71abb9590,2023-05-04_16h55.01.347,ga_syllabified_check,2022.2.5,Win32,60.02040694,,,,,,,,,,,,,,./stim/p08_syllable_1_lakakuaisto_hit.wav,p08,lakakuaisto,hit,la-ka-ku-ais-to,la-ka-kuais-to,la-ka-ku-ais-to,la-ka-kua-is-to,0.41796875,-0.109375,1,0,0,3.0628,text_option_2,,0,87,87,185,1
5f738de5cd78b40e58fb464b,63f3cfca20052e4ae7554ebf,6453c721a0e711d71abb9590,2023-05-04_16h55.01.347,ga_syllabified_check,2022.2.5,Win32,60.02040694,,,,,,,,,,,,,,./stim/p04_syllable_1_pachialo_hit.wav,p04,pachialo,hit,pa-chia-lo,pa-chia-lo,pa-chi-a-lo, ,-0.44921875,-0.084635417,1,0,0,1.2171,text_option_1,,0,88,88,58,1
5f738de5cd78b40e58fb464b,63f3cfca20052e4ae7554ebf,6453c721a0e711d71abb9590,2023-05-04_16h55.01.347,ga_syllabified_check,2022.2.5,Win32,60.02040694,,,,,,,,,,,,,,./stim/p06_syllable_1_mebochiana_hit.wav,p06,mebochiana,hit,me-bo-shi-a-na,me-bo-chia-na,me-bo-chi-a-na, ,0.44140625,-0.10546875,1,0,0,3.0335,text_option_2,,0,89,89,124,1
5f738de5cd78b40e58fb464b,63f3cfca20052e4ae7554ebf,6453c721a0e711d71abb9590,2023-05-04_16h55.01.347,ga_syllabified_check,2022.2.5,Win32,60.02040694,,,,,,,,,,,,,,./stim/p07_syllable_1_nhiape_hit.wav,p07,ñiape,hit,nhia-pe,ñia-pe,ñi-a-pe, ,-0.408854167,-0.088541667,1,0,0,1.4499,text_option_1,,0,90,90,159,1
5f738de5cd78b40e58fb464b,63f3cfca20052e4ae7554ebf,6453c721a0e711d71abb9590,2023-05-04_16h55.01.347,ga_syllabified_check,2022.2.5,Win32,60.02040694,,,,,,,,,,,,,,./stim/p04_syllable_1_costonhialo_hit.wav,p04,costoñialo,hit,cos-to-nhia-lo,cos-to-ñia-lo,cos-to-ñi-a-lo, ,-0.298177083,-0.109375,1,0,0,1.2133,text_option_1,,0,91,91,35,1
5f738de5cd78b40e58fb464b,63f3cfca20052e4ae7554ebf,6453c721a0e711d71abb9590,2023-05-04_16h55.01.347,ga_syllabified_check,2022.2.5,Win32,60.02040694,,,,,,,,,,,,,,./stim/p04_syllable_1_chiaba_hit.wav,p04,chiaba,hit,chia-ba,chia-ba,chi-a-ba, ,-0.434895833,-0.092447917,1,0,0,0.2802,text_option_1,,0,92,92,34,1
5f738de5cd78b40e58fb464b,63f3cfca20052e4ae7554ebf,6453c721a0e711d71abb9590,2023-05-04_16h55.01.347,ga_syllabified_check,2022.2.5,Win32,60.02040694,,,,,,,,,,,,,,./stim/p07_syllable_1_lakatiaisto_hit.wav,p07,lakatiaisto,hit,la-ka-tiai-sto,la-ka-tiais-to,la-ka-ti-ais-to,la-ka-tia-is-to,0.029947917,-0.1015625,1,0,0,2.1671,text_option_3,,0,93,93,154,1
5f738de5cd78b40e58fb464b,63f3cfca20052e4ae7554ebf,6453c721a0e711d71abb9590,2023-05-04_16h55.01.347,ga_syllabified_check,2022.2.5,Win32,60.02040694,,,,,,,,,,,,,,./stim/p03_syllable_1_lakaguaisto_hit.wav,p03,lakaguaisto,hit,la-ka-guais-to,la-ka-guais-to,la-ka-gu-ais-to,la-ka-gua-is-to,-0.377604167,-0.09765625,1,0,0,1.5834,text_option_1,,0,94,94,13,1
5f738de5cd78b40e58fb464b,63f3cfca20052e4ae7554ebf,6453c721a0e711d71abb9590,2023-05-04_16h55.01.347,ga_syllabified_check,2022.2.5,Win32,60.02040694,,,,,,,,,,,,,,./stim/p04_syllable_1_lakatuaisto_hit.wav,p04,lakatuaisto,hit,la-ka-kuais-to,la-ka-tuais-to,la-ka-tu-ais-to,la-ka-tua-is-to,-0.30859375,-0.088541667,1,0,0,1.067,text_option_1,,0,95,95,53,1
5f738de5cd78b40e58fb464b,63f3cfca20052e4ae7554ebf,6453c721a0e711d71abb9590,2023-05-04_16h55.01.347,ga_syllabified_check,2022.2.5,Win32,60.02040694,,,,,,,,,,,,,,./stim/p06_syllable_1_lakafiaisto_hit.wav,p06,lakafiaisto,hit,la-ka-fia-is-to,la-ka-fiais-to,la-ka-fi-ais-to,la-ka-fia-is-to,0.03125,-0.1015625,1,0,0,3.2644,text_option_3,,0,96,96,112,1
5f738de5cd78b40e58fb464b,63f3cfca20052e4ae7554ebf,6453c721a0e711d71abb9590,2023-05-04_16h55.01.347,ga_syllabified_check,2022.2.5,Win32,60.02040694,,,,,,,,,,,,,,./stim/p03_syllable_1_lakakiaisto_hit.wav,p03,lakakiaisto,hit,la-ka-kiais-to,la-ka-kiais-to,la-ka-ki-ais-to,la-ka-kia-is-to,-0.3671875,-0.08984375,1,0,0,3.1284,text_option_1,,0,97,97,14,1
5f738de5cd78b40e58fb464b,63f3cfca20052e4ae7554ebf,6453c721a0e711d71abb9590,2023-05-04_16h55.01.347,ga_syllabified_check,2022.2.5,Win32,60.02040694,,,,,,,,,,,,,,./stim/p07_syllable_1_lakatuaisto_hit.wav,p07,lakatuaisto,hit,la-ka-tuais-to,la-ka-tuais-to,la-ka-tu-ais-to,la-ka-tua-is-to,-0.37890625,-0.102864583,1,0,0,4.1334,text_option_1,,0,98,98,155,1
5f738de5cd78b40e58fb464b,63f3cfca20052e4ae7554ebf,6453c721a0e711d71abb9590,2023-05-04_16h55.01.347,ga_syllabified_check,2022.2.5,Win32,60.02040694,,,,,,,,,,,,,,./stim/p08_syllable_1_palufauro_hit.wav,p08,palufauro,hit,pa-lu-fau-ro,pa-lu-fau-ro,pa-lu-fa-u-ro, ,0.419270833,-0.1171875,1,0,0,3.3001,text_option_2,,0,99,99,195,1
5f738de5cd78b40e58fb464b,63f3cfca20052e4ae7554ebf,6453c721a0e711d71abb9590,2023-05-04_16h55.01.347,ga_syllabified_check,2022.2.5,Win32,60.02040694,,,,,,,,,,,,,,./stim/p06_syllable_1_lakakuaisto_hit.wav,p06,lakakuaisto,hit,la-ka-ku-a-is,la-ka-kuais-to,la-ka-ku-ais-to,la-ka-kua-is-to,0.395833333,-0.108072917,1,0,0,2.9167,text_option_2,,0,100,100,117,1
5f738de5cd78b40e58fb464b,63f3cfca20052e4ae7554ebf,6453c721a0e711d71abb9590,2023-05-04_16h55.01.347,ga_syllabified_check,2022.2.5,Win32,60.02040694,,,,,,,,,,,,,,./stim/p08_syllable_1_lakapiaisto_hit.wav,p08,lakapiaisto,hit,la-ka-pi-as-to,la-ka-piais-to,la-ka-pi-ais-to,la-ka-pia-is-to,0.442708333,-0.108072917,1,0,0,3.1383,text_option_2,,0,101,101,186,1
5f738de5cd78b40e58fb464b,63f3cfca20052e4ae7554ebf,6453c721a0e711d71abb9590,2023-05-04_16h55.01.347,ga_syllabified_check,2022.2.5,Win32,60.02040694,,,,,,,,,,,,,,./stim/p03_syllable_1_tuliafo_hit.wav,p03,tuliafo,hit,tu-lia-fo,tu-lia-fo,tu-li-a-fo, ,-0.411458333,-0.09375,1,0,0,0.7709,text_option_1,,0,102,102,33,1
5f738de5cd78b40e58fb464b,63f3cfca20052e4ae7554ebf,6453c721a0e711d71abb9590,2023-05-04_16h55.01.347,ga_syllabified_check,2022.2.5,Win32,60.02040694,,,,,,,,,,,,,,./stim/p03_syllable_1_manhiala_hit.wav,p03,mañiala,hit,ma-nhia-la,ma-ñia-la,ma-ñi-a-la, ,-0.365885417,-0.088541667,1,0,0,0.9799,text_option_1,,0,103,103,21,1
5f738de5cd78b40e58fb464b,63f3cfca20052e4ae7554ebf,6453c721a0e711d71abb9590,2023-05-04_16h55.01.347,ga_syllabified_check,2022.2.5,Win32,60.02040694,,,,,,,,,,,,,,./stim/p08_syllable_1_payielo_hit.wav,p08,payielo,hit,pa-yie-lo,pa-yie-lo,pa-yi-e-lo, ,-0.385416667,-0.09375,1,0,0,1.4996,text_option_1,,0,104,104,200,1
5f738de5cd78b40e58fb464b,63f3cfca20052e4ae7554ebf,6453c721a0e711d71abb9590,2023-05-04_16h55.01.347,ga_syllabified_check,2022.2.5,Win32,60.02040694,,,,,,,,,,,,,,./stim/p05_syllable_1_lakatuaisto_hit.wav,p05,lakatuaisto,hit,la-ka-tais-to,la-ka-tuais-to,la-ka-tu-ais-to,la-ka-tua-is-to,0.033854167,-0.298177083,1,0,0,1.9667,text_option_other,la-ka-tais-to,0,105,105,87,1
5f738de5cd78b40e58fb464b,63f3cfca20052e4ae7554ebf,6453c721a0e711d71abb9590,2023-05-04_16h55.01.347,ga_syllabified_check,2022.2.5,Win32,60.02040694,,,,,,,,,,,,,,./stim/p03_syllable_1_lakabiaisto_hit.wav,p03,lakabiaisto,hit,la-ka-biais-to,la-ka-biais-to,la-ka-bi-ais-to,la-ka-bia-is-to,-0.375,-0.10546875,1,0,0,2.2706,text_option_1,,0,106,106,6,1
5f738de5cd78b40e58fb464b,63f3cfca20052e4ae7554ebf,6453c721a0e711d71abb9590,2023-05-04_16h55.01.347,ga_syllabified_check,2022.2.5,Win32,60.02040694,,,,,,,,,,,,,,./stim/p06_syllable_1_rausto_hit.wav,p06,rausto,hit,ra-us-to,raus-to,ra-us-to, ,0.381510417,-0.10546875,1,0,0,1.6467,text_option_2,,0,107,107,133,1
5f738de5cd78b40e58fb464b,63f3cfca20052e4ae7554ebf,6453c721a0e711d71abb9590,2023-05-04_16h55.01.347,ga_syllabified_check,2022.2.5,Win32,60.02040694,,,,,,,,,,,,,,./stim/p04_syllable_1_lakakuaisto_hit.wav,p04,lakakuaisto,hit,la-ka-kuais-to,la-ka-kuais-to,la-ka-ku-ais-to,la-ka-kua-is-to,-0.352864583,-0.09375,1,0,0,1.8502,text_option_1,,0,108,108,49,1
5f738de5cd78b40e58fb464b,63f3cfca20052e4ae7554ebf,6453c721a0e711d71abb9590,2023-05-04_16h55.01.347,ga_syllabified_check,2022.2.5,Win32,60.02040694,,,,,,,,,,,,,,./stim/p07_syllable_1_lakakuaisto_hit.wav,p07,lakakuaisto,hit,la-ka-kuais-to,la-ka-kuais-to,la-ka-ku-ais-to,la-ka-kua-is-to,0.428385417,-0.091145833,1,0,0,3.9462,text_option_2,,0,109,109,151,1
5f738de5cd78b40e58fb464b,63f3cfca20052e4ae7554ebf,6453c721a0e711d71abb9590,2023-05-04_16h55.01.347,ga_syllabified_check,2022.2.5,Win32,60.02040694,,,,,,,,,,,,,,./stim/p05_syllable_1_lakabiaisto_hit.wav,p05,lakabiaisto,hit,la-ka-bi-ais-to,la-ka-biais-to,la-ka-bi-ais-to,la-ka-bia-is-to,0.421875,-0.1015625,1,0,0,2.5872,text_option_2,,0,110,110,74,1
5f738de5cd78b40e58fb464b,63f3cfca20052e4ae7554ebf,6453c721a0e711d71abb9590,2023-05-04_16h55.01.347,ga_syllabified_check,2022.2.5,Win32,60.02040694,,,,,,,,,,,,,,./stim/p03_syllable_1_faluduako_hit.wav,p03,faluduako,hit,fa-lu-dua-ko,fa-lu-dua-ko,fa-lu-du-a-ko, ,-0.358072917,-0.111979167,1,0,0,3.1666,text_option_1,,0,111,111,2,1
5f738de5cd78b40e58fb464b,63f3cfca20052e4ae7554ebf,6453c721a0e711d71abb9590,2023-05-04_16h55.01.347,ga_syllabified_check,2022.2.5,Win32,60.02040694,,,,,,,,,,,,,,./stim/p04_syllable_1_faluduako_hit.wav,p04,faluduako,hit,fa-lu-dua-ko,fa-lu-dua-ko,fa-lu-du-a-ko, ,-0.36328125,-0.122395833,1,0,0,0.7664,text_option_1,,0,112,112,36,1
5f738de5cd78b40e58fb464b,63f3cfca20052e4ae7554ebf,6453c721a0e711d71abb9590,2023-05-04_16h55.01.347,ga_syllabified_check,2022.2.5,Win32,60.02040694,,,,,,,,,,,,,,./stim/p06_syllable_1_lakaduaisto_hit.wav,p06,lakaduaisto,hit,la-ka-du-a-is,la-ka-duais-to,la-ka-du-ais-to,la-ka-dua-is-to,0.407552083,-0.109375,1,0,0,6.6337,text_option_2,,0,113,113,111,1
5f738de5cd78b40e58fb464b,63f3cfca20052e4ae7554ebf,6453c721a0e711d71abb9590,2023-05-04_16h55.01.347,ga_syllabified_check,2022.2.5,Win32,60.02040694,,,,,,,,,,,,,,./stim/p03_syllable_1_falutraigo_hit.wav,p03,falutraigo,hit,fa-lu-trai-go,fa-lu-trai-go,fa-lu-tra-i-go, ,-0.368489583,-0.100260417,1,0,0,3.7001,text_option_1,,0,114,114,4,1
5f738de5cd78b40e58fb464b,63f3cfca20052e4ae7554ebf,6453c721a0e711d71abb9590,2023-05-04_16h55.01.347,ga_syllabified_check,2022.2.5,Win32,60.02040694,,,,,,,,,,,,,,./stim/p04_syllable_1_lakaguaisto_hit.wav,p04,lakaguaisto,hit,la-ka-guais-to,la-ka-guais-to,la-ka-gu-ais-to,la-ka-gua-is-to,-0.3828125,-0.098958333,1,0,0,1.5002,text_option_1,,0,115,115,47,1
5f738de5cd78b40e58fb464b,63f3cfca20052e4ae7554ebf,6453c721a0e711d71abb9590,2023-05-04_16h55.01.347,ga_syllabified_check,2022.2.5,Win32,60.02040694,,,,,,,,,,,,,,./stim/p08_syllable_1_lliape_hit.wav,p08,lliape,hit,li-a-pe,llia-pe,lli-a-pe, ,-0.00390625,-0.295572917,1,0,0,2.1167,text_option_other,li-a-pe,0,116,116,190,1
5f738de5cd78b40e58fb464b,63f3cfca20052e4ae7554ebf,6453c721a0e711d71abb9590,2023-05-04_16h55.01.347,ga_syllabified_check,2022.2.5,Win32,60.02040694,,,,,,,,,,,,,,./stim/p06_syllable_1_palufauto_hit.wav,p06,palufauto,hit,pa-lu-fau-to,pa-lu-fau-to,pa-lu-fa-u-to, ,-0.419270833,-0.1015625,1,0,0,2.9501,text_option_1,,0,117,117,128,1
5f738de5cd78b40e58fb464b,63f3cfca20052e4ae7554ebf,6453c721a0e711d71abb9590,2023-05-04_16h55.01.347,ga_syllabified_check,2022.2.5,Win32,60.02040694,,,,,,,,,,,,,,./stim/p05_syllable_1_pachialo_hit.wav,p05,pachialo,hit,pan-chia-lo,pa-chia-lo,pa-chi-a-lo, ,0.369791667,-0.09765625,1,0,0,0.8167,text_option_2,,0,118,118,92,1
5f738de5cd78b40e58fb464b,63f3cfca20052e4ae7554ebf,6453c721a0e711d71abb9590,2023-05-04_16h55.01.347,ga_syllabified_check,2022.2.5,Win32,60.02040694,,,,,,,,,,,,,,./stim/p03_syllable_1_costonhialo_hit.wav,p03,costoñialo,hit,cos-to-nhia-lo,cos-to-ñia-lo,cos-to-ñi-a-lo, ,-0.416666667,-0.092447917,1,0,0,1.2838,text_option_1,,0,119,119,1,1
5f738de5cd78b40e58fb464b,63f3cfca20052e4ae7554ebf,6453c721a0e711d71abb9590,2023-05-04_16h55.01.347,ga_syllabified_check,2022.2.5,Win32,60.02040694,,,,,,,,,,,,,,./stim/p08_syllable_1_palufauto_hit.wav,p08,palufauto,hit,pa-lu-fau-to,pa-lu-fau-to,pa-lu-fa-u-to, ,-0.354166667,-0.095052083,1,0,0,2.7169,text_option_1,,0,120,120,196,1
5f738de5cd78b40e58fb464b,63f3cfca20052e4ae7554ebf,6453c721a0e711d71abb9590,2023-05-04_16h55.01.347,ga_syllabified_check,2022.2.5,Win32,60.02040694,,,,,,,,,,,,,,./stim/p04_syllable_1_lakadiaisto_hit.wav,p04,lakadiaisto,hit,la-ka-dias-to,la-ka-diais-to,la-ka-di-ais-to,la-ka-dia-is-to,-0.352864583,-0.098958333,1,0,0,1.3001,text_option_1,,0,121,121,42,1
5f738de5cd78b40e58fb464b,63f3cfca20052e4ae7554ebf,6453c721a0e711d71abb9590,2023-05-04_16h55.01.347,ga_syllabified_check,2022.2.5,Win32,60.02040694,,,,,,,,,,,,,,./stim/p04_syllable_1_mebochiana_hit.wav,p04,mebochiana,hit,me-bo-chia-na,me-bo-chia-na,me-bo-chi-a-na, ,-0.3828125,-0.100260417,1,0,0,3.3,text_option_1,,0,122,122,56,1
5f738de5cd78b40e58fb464b,63f3cfca20052e4ae7554ebf,6453c721a0e711d71abb9590,2023-05-04_16h55.01.347,ga_syllabified_check,2022.2.5,Win32,60.02040694,,,,,,,,,,,,,,./stim/p07_syllable_1_flauro_hit.wav,p07,flauro,hit,flau-ro,flau-ro,fla-u-ro, ,-0.412760417,-0.106770833,1,0,0,3.0001,text_option_1,,0,123,123,141,1
5f738de5cd78b40e58fb464b,63f3cfca20052e4ae7554ebf,6453c721a0e711d71abb9590,2023-05-04_16h55.01.347,ga_syllabified_check,2022.2.5,Win32,60.02040694,,,,,,,,,,,,,,./stim/p05_syllable_1_palutrauco_hit.wav,p05,palutrauco,hit,pa-lu-trai-co,pa-lu-trau-co,pa-lu-tra-u-co, ,-0.395833333,-0.111979167,1,0,0,1.1166,text_option_1,,0,124,124,97,1
5f738de5cd78b40e58fb464b,63f3cfca20052e4ae7554ebf,6453c721a0e711d71abb9590,2023-05-04_16h55.01.347,ga_syllabified_check,2022.2.5,Win32,60.02040694,,,,,,,,,,,,,,./stim/p08_syllable_1_lakakiaisto_hit.wav,p08,lakakiaisto,hit,la-ka-ki-jas-to,la-ka-kiais-to,la-ka-ki-ais-to,la-ka-kia-is-to,0.01171875,-0.10546875,1,0,0,3.6169,text_option_3,,0,125,125,184,1
5f738de5cd78b40e58fb464b,63f3cfca20052e4ae7554ebf,6453c721a0e711d71abb9590,2023-05-04_16h55.01.347,ga_syllabified_check,2022.2.5,Win32,60.02040694,,,,,,,,,,,,,,./stim/p03_syllable_1_palufauto_hit.wav,p03,palufauto,hit,pa-lu-fau,pa-lu-fau-to,pa-lu-fa-u-to, ,0.40625,-0.1015625,1,0,0,1.9372,text_option_2,,0,126,126,26,1
5f738de5cd78b40e58fb464b,63f3cfca20052e4ae7554ebf,6453c721a0e711d71abb9590,2023-05-04_16h55.01.347,ga_syllabified_check,2022.2.5,Win32,60.02040694,,,,,,,,,,,,,,./stim/p07_syllable_1_palumaisto_hit.wav,p07,palumaisto,hit,pa-lu-mais-to,pa-lu-mais-to,pa-lu-ma-is-to, ,-0.401041667,-0.100260417,1,0,0,3.9137,text_option_1,,0,127,127,164,1
5f738de5cd78b40e58fb464b,63f3cfca20052e4ae7554ebf,6453c721a0e711d71abb9590,2023-05-04_16h55.01.347,ga_syllabified_check,2022.2.5,Win32,60.02040694,,,,,,,,,,,,,,./stim/p06_syllable_1_lakadiaisto_hit.wav,p06,lakadiaisto,hit,la-ka-dia-is-to,la-ka-diais-to,la-ka-di-ais-to,la-ka-dia-is-to,0.065104167,-0.09765625,1,0,0,2.4833,text_option_3,,0,128,128,110,1
5f738de5cd78b40e58fb464b,63f3cfca20052e4ae7554ebf,6453c721a0e711d71abb9590,2023-05-04_16h55.01.347,ga_syllabified_check,2022.2.5,Win32,60.02040694,,,,,,,,,,,,,,./stim/p04_syllable_1_lakafuaisto_hit.wav,p04,lakafuaisto,hit,la-ka-fuais-to,la-ka-fuais-to,la-ka-fu-ais-to,la-ka-fua-is-to,-0.311197917,-0.1171875,1,0,0,0.7646,text_option_1,,0,129,129,45,1
5f738de5cd78b40e58fb464b,63f3cfca20052e4ae7554ebf,6453c721a0e711d71abb9590,2023-05-04_16h55.01.347,ga_syllabified_check,2022.2.5,Win32,60.02040694,,,,,,,,,,,,,,./stim/p07_syllable_1_manhiala_hit.wav,p07,mañiala,hit,ma-nhia-la,ma-ñia-la,ma-ñi-a-la, ,-0.41796875,-0.109375,1,0,0,1.3631,text_option_1,,0,130,130,157,1
5f738de5cd78b40e58fb464b,63f3cfca20052e4ae7554ebf,6453c721a0e711d71abb9590,2023-05-04_16h55.01.347,ga_syllabified_check,2022.2.5,Win32,60.02040694,,,,,,,,,,,,,,./stim/p07_syllable_1_lakagiaisto_hit.wav,p07,lakagiaisto,hit,la-ka-gais-to,la-ka-giais-to,la-ka-gi-ais-to,la-ka-gia-is-to,-0.333333333,-0.09375,1,0,0,2.8834,text_option_1,,0,131,131,148,1
5f738de5cd78b40e58fb464b,63f3cfca20052e4ae7554ebf,6453c721a0e711d71abb9590,2023-05-04_16h55.01.347,ga_syllabified_check,2022.2.5,Win32,60.02040694,,,,,,,,,,,,,,./stim/p03_syllable_1_palufauro_hit.wav,p03,palufauro,hit,pa-lu-fau-ro,pa-lu-fau-ro,pa-lu-fa-u-ro, ,-0.380208333,-0.087239583,1,0,0,1.3839,text_option_1,,0,132,132,25,1
5f738de5cd78b40e58fb464b,63f3cfca20052e4ae7554ebf,6453c721a0e711d71abb9590,2023-05-04_16h55.01.347,ga_syllabified_check,2022.2.5,Win32,60.02040694,,,,,,,,,,,,,,./stim/p03_syllable_1_chiaba_hit.wav,p03,chiaba,hit,chia-ba,chia-ba,chi-a-ba, ,-0.393229167,-0.09375,1,0,0,0.7463,text_option_1,,0,133,133,0,1
5f738de5cd78b40e58fb464b,63f3cfca20052e4ae7554ebf,6453c721a0e711d71abb9590,2023-05-04_16h55.01.347,ga_syllabified_check,2022.2.5,Win32,60.02040694,,,,,,,,,,,,,,./stim/p08_syllable_1_tuliafo_hit.wav,p08,tuliafo,hit,tu-li-a-fo,tu-lia-fo,tu-li-a-fo, ,0.407552083,-0.09375,1,0,0,2.3038,text_option_2,,0,134,134,203,1
5f738de5cd78b40e58fb464b,63f3cfca20052e4ae7554ebf,6453c721a0e711d71abb9590,2023-05-04_16h55.01.347,ga_syllabified_check,2022.2.5,Win32,60.02040694,,,,,,,,,,,,,,./stim/p03_syllable_1_lakapuaisto_hit.wav,p03,lakapuaisto,hit,la-ka-puais-to,la-ka-puais-to,la-ka-pu-ais-to,la-ka-pua-is-to,-0.346354167,-0.083333333,1,0,0,2.2667,text_option_1,,0,135,135,17,1
5f738de5cd78b40e58fb464b,63f3cfca20052e4ae7554ebf,6453c721a0e711d71abb9590,2023-05-04_16h55.01.347,ga_syllabified_check,2022.2.5,Win32,60.02040694,,,,,,,,,,,,,,./stim/p07_syllable_1_paluguato_hit.wav,p07,paluguato,hit,pa-lu-gua-to,pa-lu-gua-to,pa-lu-gu-a-to, ,-0.3828125,-0.092447917,1,0,0,2.1171,text_option_1,,0,136,136,163,1
5f738de5cd78b40e58fb464b,63f3cfca20052e4ae7554ebf,6453c721a0e711d71abb9590,2023-05-04_16h55.01.347,ga_syllabified_check,2022.2.5,Win32,60.02040694,,,,,,,,,,,,,,./stim/p03_syllable_1_palumaisto_hit.wav,p03,palumaisto,hit,pa-lu-mais-to,pa-lu-mais-to,pa-lu-ma-is-to, ,-0.4375,-0.098958333,1,0,0,1.9833,text_option_1,,0,137,137,28,1
5f738de5cd78b40e58fb464b,63f3cfca20052e4ae7554ebf,6453c721a0e711d71abb9590,2023-05-04_16h55.01.347,ga_syllabified_check,2022.2.5,Win32,60.02040694,,,,,,,,,,,,,,./stim/p07_syllable_1_mebochiana_hit.wav,p07,mebochiana,hit,me-bo-chia-na,me-bo-chia-na,me-bo-chi-a-na, ,-0.375,-0.09375,1,0,0,2.2334,text_option_1,,0,138,138,158,1
5f738de5cd78b40e58fb464b,63f3cfca20052e4ae7554ebf,6453c721a0e711d71abb9590,2023-05-04_16h55.01.347,ga_syllabified_check,2022.2.5,Win32,60.02040694,,,,,,,,,,,,,,./stim/p07_syllable_1_lakaduaisto_hit.wav,p07,lakaduaisto,hit,la-ka-duais-to,la-ka-duais-to,la-ka-du-ais-to,la-ka-dua-is-to,-0.412760417,-0.110677083,1,0,0,1.7499,text_option_1,,0,139,139,145,1
5f738de5cd78b40e58fb464b,63f3cfca20052e4ae7554ebf,6453c721a0e711d71abb9590,2023-05-04_16h55.01.347,ga_syllabified_check,2022.2.5,Win32,60.02040694,,,,,,,,,,,,,,./stim/p05_syllable_1_rausto_hit.wav,p05,rausto,hit,raus-to,raus-to,ra-us-to, ,0.372395833,-0.110677083,1,0,0,0.5832,text_option_2,,0,140,140,99,1
5f738de5cd78b40e58fb464b,63f3cfca20052e4ae7554ebf,6453c721a0e711d71abb9590,2023-05-04_16h55.01.347,ga_syllabified_check,2022.2.5,Win32,60.02040694,,,,,,,,,,,,,,./stim/p08_syllable_1_lakaduaisto_hit.wav,p08,lakaduaisto,hit,la-ka-du-ais-to,la-ka-duais-to,la-ka-du-ais-to,la-ka-dua-is-to,0.3671875,-0.1171875,1,0,0,3.0667,text_option_2,,0,141,141,179,1
5f738de5cd78b40e58fb464b,63f3cfca20052e4ae7554ebf,6453c721a0e711d71abb9590,2023-05-04_16h55.01.347,ga_syllabified_check,2022.2.5,Win32,60.02040694,,,,,,,,,,,,,,./stim/p08_syllable_1_palumaisto_hit.wav,p08,palumaisto,hit,pa-lu-mais-to,pa-lu-mais-to,pa-lu-ma-is-to, ,-0.4453125,-0.100260417,1,0,0,1.8,text_option_1,,0,142,142,198,1
5f738de5cd78b40e58fb464b,63f3cfca20052e4ae7554ebf,6453c721a0e711d71abb9590,2023-05-04_16h55.01.347,ga_syllabified_check,2022.2.5,Win32,60.02040694,,,,,,,,,,,,,,./stim/p05_syllable_1_flauro_hit.wav,p05,flauro,hit,fa-lu-ro,flau-ro,fla-u-ro, ,0.38671875,-0.106770833,1,0,0,1.3702,text_option_2,,0,143,143,73,1
5f738de5cd78b40e58fb464b,63f3cfca20052e4ae7554ebf,6453c721a0e711d71abb9590,2023-05-04_16h55.01.347,ga_syllabified_check,2022.2.5,Win32,60.02040694,,,,,,,,,,,,,,./stim/p06_syllable_1_faluduako_hit.wav,p06,faluduako,hit,fa-lu-dua-ko,fa-lu-dua-ko,fa-lu-du-a-ko, ,-0.390625,-0.10546875,1,0,0,4.0468,text_option_1,,0,144,144,104,1
5f738de5cd78b40e58fb464b,63f3cfca20052e4ae7554ebf,6453c721a0e711d71abb9590,2023-05-04_16h55.01.347,ga_syllabified_check,2022.2.5,Win32,60.02040694,,,,,,,,,,,,,,./stim/p08_syllable_1_costonhialo_hit.wav,p08,costoñialo,hit,cos-to-nhia-lo,cos-to-ñia-lo,cos-to-ñi-a-lo, ,-0.380208333,-0.092447917,1,0,0,1.3537,text_option_1,,0,145,145,171,1
5f738de5cd78b40e58fb464b,63f3cfca20052e4ae7554ebf,6453c721a0e711d71abb9590,2023-05-04_16h55.01.347,ga_syllabified_check,2022.2.5,Win32,60.02040694,,,,,,,,,,,,,,./stim/p08_syllable_1_lakafuaisto_hit.wav,p08,lakafuaisto,hit,la-ka-fju-ais-to,la-ka-fuais-to,la-ka-fu-ais-to,la-ka-fua-is-to,-0.010416667,-0.1015625,1,0,0,3.4503,text_option_3,,0,146,146,181,1
5f738de5cd78b40e58fb464b,63f3cfca20052e4ae7554ebf,6453c721a0e711d71abb9590,2023-05-04_16h55.01.347,ga_syllabified_check,2022.2.5,Win32,60.02040694,,,,,,,,,,,,,,./stim/p06_syllable_1_falufaisto_hit.wav,p06,falufaisto,hit,fa-lu-fa-is-to,fa-lu-fais-to,fa-lu-fa-is-to, ,0.432291667,-0.106770833,1,0,0,3.1835,text_option_2,,0,147,147,105,1
5f738de5cd78b40e58fb464b,63f3cfca20052e4ae7554ebf,6453c721a0e711d71abb9590,2023-05-04_16h55.01.347,ga_syllabified_check,2022.2.5,Win32,60.02040694,,,,,,,,,,,,,,./stim/p06_syllable_1_lakabiaisto_hit.wav,p06,lakabiaisto,hit,la-ka-bia-is-to,la-ka-biais-to,la-ka-bi-ais-to,la-ka-bia-is-to,0.016927083,-0.09765625,1,0,0,4.6335,text_option_3,,0,148,148,108,1
5f738de5cd78b40e58fb464b,63f3cfca20052e4ae7554ebf,6453c721a0e711d71abb9590,2023-05-04_16h55.01.347,ga_syllabified_check,2022.2.5,Win32,60.02040694,,,,,,,,,,,,,,./stim/p06_syllable_1_lakapiaisto_hit.wav,p06,lakapiaisto,hit,la-ka-pia-is-to,la-ka-piais-to,la-ka-pi-ais-to,la-ka-pia-is-to,0.015625,-0.106770833,1,0,0,5.1667,text_option_3,,0,149,149,118,1
5f738de5cd78b40e58fb464b,63f3cfca20052e4ae7554ebf,6453c721a0e711d71abb9590,2023-05-04_16h55.01.347,ga_syllabified_check,2022.2.5,Win32,60.02040694,,,,,,,,,,,,,,./stim/p05_syllable_1_lakaguaisto_hit.wav,p05,lakaguaisto,hit,la-ka-gais,la-ka-guais-to,la-ka-gu-ais-to,la-ka-gua-is-to,-0.006510417,-0.305989583,1,0,0,3.5168,text_option_other,la-ka-gais-to,0,150,150,81,1
5f738de5cd78b40e58fb464b,63f3cfca20052e4ae7554ebf,6453c721a0e711d71abb9590,2023-05-04_16h55.01.347,ga_syllabified_check,2022.2.5,Win32,60.02040694,,,,,,,,,,,,,,./stim/p04_syllable_1_ruyiola_hit.wav,p04,ruyiola,hit,ru-yio-la,ru-yio-la,ru-yi-o-la, ,0.37890625,-0.106770833,1,0,0,1.7038,text_option_2,,0,151,151,66,1
5f738de5cd78b40e58fb464b,63f3cfca20052e4ae7554ebf,6453c721a0e711d71abb9590,2023-05-04_16h55.01.347,ga_syllabified_check,2022.2.5,Win32,60.02040694,,,,,,,,,,,,,,./stim/p06_syllable_1_lakatuaisto_hit.wav,p06,lakatuaisto,hit,la-ka-tu-a-is,la-ka-tuais-to,la-ka-tu-ais-to,la-ka-tua-is-to,0.404947917,-0.095052083,1,0,0,3.1325,text_option_2,,0,152,152,121,1
5f738de5cd78b40e58fb464b,63f3cfca20052e4ae7554ebf,6453c721a0e711d71abb9590,2023-05-04_16h55.01.347,ga_syllabified_check,2022.2.5,Win32,60.02040694,,,,,,,,,,,,,,./stim/p04_syllable_1_falutraigo_hit.wav,p04,falutraigo,hit,fa-lu-trai-go,fa-lu-trai-go,fa-lu-tra-i-go, ,-0.377604167,-0.092447917,1,0,0,2.2707,text_option_1,,0,153,153,38,1
5f738de5cd78b40e58fb464b,63f3cfca20052e4ae7554ebf,6453c721a0e711d71abb9590,2023-05-04_16h55.01.347,ga_syllabified_check,2022.2.5,Win32,60.02040694,,,,,,,,,,,,,,./stim/p06_syllable_1_palufauro_hit.wav,p06,palufauro,hit,pa-lu-fau-ro,pa-lu-fau-ro,pa-lu-fa-u-ro, ,0.40625,-0.088541667,1,0,0,4.1164,text_option_2,,0,154,154,127,1
5f738de5cd78b40e58fb464b,63f3cfca20052e4ae7554ebf,6453c721a0e711d71abb9590,2023-05-04_16h55.01.347,ga_syllabified_check,2022.2.5,Win32,60.02040694,,,,,,,,,,,,,,./stim/p08_syllable_1_lakafiaisto_hit.wav,p08,lakafiaisto,hit,la-ka-fi-as-to,la-ka-fiais-to,la-ka-fi-ais-to,la-ka-fia-is-to,-0.006510417,-0.110677083,1,0,0,3.3037,text_option_3,,0,155,155,180,1
5f738de5cd78b40e58fb464b,63f3cfca20052e4ae7554ebf,6453c721a0e711d71abb9590,2023-05-04_16h55.01.347,ga_syllabified_check,2022.2.5,Win32,60.02040694,,,,,,,,,,,,,,./stim/p07_syllable_1_chiaba_hit.wav,p07,chiaba,hit,chia-ba,chia-ba,chi-a-ba, ,-0.39453125,-0.09765625,1,0,0,0.5038,text_option_1,,0,156,156,136,1
5f738de5cd78b40e58fb464b,63f3cfca20052e4ae7554ebf,6453c721a0e711d71abb9590,2023-05-04_16h55.01.347,ga_syllabified_check,2022.2.5,Win32,60.02040694,,,,,,,,,,,,,,./stim/p08_syllable_1_palutrauco_hit.wav,p08,palutrauco,hit,pa-lu-trau-ko,pa-lu-trau-co,pa-lu-tra-u-co, ,-0.342447917,-0.100260417,1,0,0,2.2638,text_option_1,,0,157,157,199,1
5f738de5cd78b40e58fb464b,63f3cfca20052e4ae7554ebf,6453c721a0e711d71abb9590,2023-05-04_16h55.01.347,ga_syllabified_check,2022.2.5,Win32,60.02040694,,,,,,,,,,,,,,./stim/p05_syllable_1_lakabuaisto_hit.wav,p05,lakabuaisto,hit,la-ka-buais-to,la-ka-buais-to,la-ka-bu-ais-to,la-ka-bua-is-to,-0.3984375,-0.108072917,1,0,0,1.65,text_option_1,,0,158,158,75,1
5f738de5cd78b40e58fb464b,63f3cfca20052e4ae7554ebf,6453c721a0e711d71abb9590,2023-05-04_16h55.01.347,ga_syllabified_check,2022.2.5,Win32,60.02040694,,,,,,,,,,,,,,./stim/p07_syllable_1_tuliafo_hit.wav,p07,tuliafo,hit,tu-lia-fo,tu-lia-fo,tu-li-a-fo, ,-0.395833333,-0.114583333,1,0,0,1.0996,text_option_1,,0,159,159,169,1
5f738de5cd78b40e58fb464b,63f3cfca20052e4ae7554ebf,6453c721a0e711d71abb9590,2023-05-04_16h55.01.347,ga_syllabified_check,2022.2.5,Win32,60.02040694,,,,,,,,,,,,,,./stim/p04_syllable_1_tuliafo_hit.wav,p04,tuliafo,hit,tu-lia-fo,tu-lia-fo,tu-li-a-fo, ,-0.376302083,-0.110677083,1,0,0,0.7835,text_option_1,,0,160,160,67,1
5f738de5cd78b40e58fb464b,63f3cfca20052e4ae7554ebf,6453c721a0e711d71abb9590,2023-05-04_16h55.01.347,ga_syllabified_check,2022.2.5,Win32,60.02040694,,,,,,,,,,,,,,./stim/p08_syllable_1_lakabiaisto_hit.wav,p08,lakabiaisto,hit,la-ka-bi-as-to,la-ka-biais-to,la-ka-bi-ais-to,la-ka-bia-is-to,0.39453125,-0.106770833,1,0,0,3.8335,text_option_2,,0,161,161,176,1
5f738de5cd78b40e58fb464b,63f3cfca20052e4ae7554ebf,6453c721a0e711d71abb9590,2023-05-04_16h55.01.347,ga_syllabified_check,2022.2.5,Win32,60.02040694,,,,,,,,,,,,,,./stim/p05_syllable_1_lakagiaisto_hit.wav,p05,lakagiaisto,hit,la-ka-ki-ais-to,la-ka-giais-to,la-ka-gi-ais-to,la-ka-gia-is-to,0.421875,-0.122395833,1,0,0,2.0668,text_option_2,,0,162,162,80,1
5f738de5cd78b40e58fb464b,63f3cfca20052e4ae7554ebf,6453c721a0e711d71abb9590,2023-05-04_16h55.01.347,ga_syllabified_check,2022.2.5,Win32,60.02040694,,,,,,,,,,,,,,./stim/p05_syllable_1_mebochiana_hit.wav,p05,mebochiana,hit,me-cho-chai-na,me-bo-chia-na,me-bo-chi-a-na, ,-0.313802083,-0.11328125,1,0,0,3.3166,text_option_1,,0,163,163,90,1
5f738de5cd78b40e58fb464b,63f3cfca20052e4ae7554ebf,6453c721a0e711d71abb9590,2023-05-04_16h55.01.347,ga_syllabified_check,2022.2.5,Win32,60.02040694,,,,,,,,,,,,,,./stim/p06_syllable_1_lakaguaisto_hit.wav,p06,lakaguaisto,hit,la-ka-gu-a-is,la-ka-guais-to,la-ka-gu-ais-to,la-ka-gua-is-to,0.057291667,-0.083333333,1,0,0,4.7667,text_option_3,,0,164,164,115,1
5f738de5cd78b40e58fb464b,63f3cfca20052e4ae7554ebf,6453c721a0e711d71abb9590,2023-05-04_16h55.01.347,ga_syllabified_check,2022.2.5,Win32,60.02040694,,,,,,,,,,,,,,./stim/p06_syllable_1_nhiape_hit.wav,p06,ñiape,hit,nhi-a-pe,ñia-pe,ñi-a-pe, ,0.41796875,-0.106770833,1,0,0,2.1167,text_option_2,,0,165,165,125,1
5f738de5cd78b40e58fb464b,63f3cfca20052e4ae7554ebf,6453c721a0e711d71abb9590,2023-05-04_16h55.01.347,ga_syllabified_check,2022.2.5,Win32,60.02040694,,,,,,,,,,,,,,./stim/p03_syllable_1_paluguato_hit.wav,p03,paluguato,hit,pa-lu-gua,pa-lu-gua-to,pa-lu-gu-a-to, ,-0.348958333,-0.098958333,1,0,0,1.0831,text_option_1,,0,166,166,27,1
5f738de5cd78b40e58fb464b,63f3cfca20052e4ae7554ebf,6453c721a0e711d71abb9590,2023-05-04_16h55.01.347,ga_syllabified_check,2022.2.5,Win32,60.02040694,,,,,,,,,,,,,,./stim/p05_syllable_1_payielo_hit.wav,p05,payielo,hit,pai-yu-we-lo,pa-yie-lo,pa-yi-e-lo, ,-0.41015625,-0.104166667,1,0,0,1.2667,text_option_1,,0,167,167,98,1
5f738de5cd78b40e58fb464b,63f3cfca20052e4ae7554ebf,6453c721a0e711d71abb9590,2023-05-04_16h55.01.347,ga_syllabified_check,2022.2.5,Win32,60.02040694,,,,,,,,,,,,,,./stim/p04_syllable_1_palumaisto_hit.wav,p04,palumaisto,hit,pa-lu-mais-to,pa-lu-mais-to,pa-lu-ma-is-to, ,-0.359375,-0.106770833,1,0,0,1.2832,text_option_1,,0,168,168,62,1
5f738de5cd78b40e58fb464b,63f3cfca20052e4ae7554ebf,6453c721a0e711d71abb9590,2023-05-04_16h55.01.347,ga_syllabified_check,2022.2.5,Win32,60.02040694,,,,,,,,,,,,,,./stim/p07_syllable_1_palufauto_hit.wav,p07,palufauto,hit,pa-lu-fau-to,pa-lu-fau-to,pa-lu-fa-u-to, ,-0.397135417,-0.10546875,1,0,0,1.6168,text_option_1,,0,169,169,162,1
5f738de5cd78b40e58fb464b,63f3cfca20052e4ae7554ebf,6453c721a0e711d71abb9590,2023-05-04_16h55.01.347,ga_syllabified_check,2022.2.5,Win32,60.02040694,,,,,,,,,,,,,,./stim/p08_syllable_1_pachialo_hit.wav,p08,pachialo,hit,pa-chi-ja-lo,pa-chia-lo,pa-chi-a-lo, ,0.390625,-0.095052083,1,0,0,1.7501,text_option_2,,0,170,170,194,1
5f738de5cd78b40e58fb464b,63f3cfca20052e4ae7554ebf,6453c721a0e711d71abb9590,2023-05-04_16h55.01.347,ga_syllabified_check,2022.2.5,Win32,60.02040694,,,,,,,,,,,,,,./stim/p05_syllable_1_palufauto_hit.wav,p05,palufauto,hit,pa-lu-fau-to,pa-lu-fau-to,pa-lu-fa-u-to, ,-0.358072917,-0.108072917,1,0,0,1.4,text_option_1,,0,171,171,94,1
5f738de5cd78b40e58fb464b,63f3cfca20052e4ae7554ebf,6453c721a0e711d71abb9590,2023-05-04_16h55.01.347,ga_syllabified_check,2022.2.5,Win32,60.02040694,,,,,,,,,,,,,,./stim/p05_syllable_1_tuliafo_hit.wav,p05,tuliafo,hit,tu-lai-fo,tu-lia-fo,tu-li-a-fo, ,-0.4140625,-0.10546875,1,0,0,1.8668,text_option_1,,0,172,172,101,1
5f738de5cd78b40e58fb464b,63f3cfca20052e4ae7554ebf,6453c721a0e711d71abb9590,2023-05-04_16h55.01.347,ga_syllabified_check,2022.2.5,Win32,60.02040694,,,,,,,,,,,,,,./stim/p04_syllable_1_manhiala_hit.wav,p04,mañiala,hit,ma-nhia-la,ma-ñia-la,ma-ñi-a-la, ,-0.373697917,-0.09765625,1,0,0,0.5502,text_option_1,,0,173,173,55,1
5f738de5cd78b40e58fb464b,63f3cfca20052e4ae7554ebf,6453c721a0e711d71abb9590,2023-05-04_16h55.01.347,ga_syllabified_check,2022.2.5,Win32,60.02040694,,,,,,,,,,,,,,./stim/p06_syllable_1_lakatiaisto_hit.wav,p06,lakatiaisto,hit,la-ka-pia-is-to,la-ka-tiais-to,la-ka-ti-ais-to,la-ka-tia-is-to,0.005208333,-0.106770833,1,0,0,3.5501,text_option_3,,0,174,174,120,1
5f738de5cd78b40e58fb464b,63f3cfca20052e4ae7554ebf,6453c721a0e711d71abb9590,2023-05-04_16h55.01.347,ga_syllabified_check,2022.2.5,Win32,60.02040694,,,,,,,,,,,,,,./stim/p05_syllable_1_faluduako_hit.wav,p05,faluduako,hit,fa-lu-ba-ko,fa-lu-dua-ko,fa-lu-du-a-ko, ,0.35546875,-0.111979167,1,0,0,3.1666,text_option_2,,0,175,175,70,1
5f738de5cd78b40e58fb464b,63f3cfca20052e4ae7554ebf,6453c721a0e711d71abb9590,2023-05-04_16h55.01.347,ga_syllabified_check,2022.2.5,Win32,60.02040694,,,,,,,,,,,,,,./stim/p07_syllable_1_lakafuaisto_hit.wav,p07,lakafuaisto,hit,la-ka-fuais-to,la-ka-fuais-to,la-ka-fu-ais-to,la-ka-fua-is-to,-0.380208333,-0.09375,1,0,0,1.8502,text_option_1,,0,176,176,147,1
5f738de5cd78b40e58fb464b,63f3cfca20052e4ae7554ebf,6453c721a0e711d71abb9590,2023-05-04_16h55.01.347,ga_syllabified_check,2022.2.5,Win32,60.02040694,,,,,,,,,,,,,,./stim/p06_syllable_1_paluguato_hit.wav,p06,paluguato,hit,pa-lu-gua-to,pa-lu-gua-to,pa-lu-gu-a-to, ,0.40625,-0.10546875,1,0,0,2.5334,text_option_2,,0,177,177,129,1
5f738de5cd78b40e58fb464b,63f3cfca20052e4ae7554ebf,6453c721a0e711d71abb9590,2023-05-04_16h55.01.347,ga_syllabified_check,2022.2.5,Win32,60.02040694,,,,,,,,,,,,,,./stim/p04_syllable_1_lakapiaisto_hit.wav,p04,lakapiaisto,hit,la-ka-piais-to,la-ka-piais-to,la-ka-pi-ais-to,la-ka-pia-is-to,-0.338541667,-0.110677083,1,0,0,2.4167,text_option_1,,0,178,178,50,1
5f738de5cd78b40e58fb464b,63f3cfca20052e4ae7554ebf,6453c721a0e711d71abb9590,2023-05-04_16h55.01.347,ga_syllabified_check,2022.2.5,Win32,60.02040694,,,,,,,,,,,,,,./stim/p06_syllable_1_chiaba_hit.wav,p06,chiaba,hit,chi-a-ba,chia-ba,chi-a-ba, ,0.40234375,-0.096354167,1,0,0,0.7001,text_option_2,,0,179,179,102,1
5f738de5cd78b40e58fb464b,63f3cfca20052e4ae7554ebf,6453c721a0e711d71abb9590,2023-05-04_16h55.01.347,ga_syllabified_check,2022.2.5,Win32,60.02040694,,,,,,,,,,,,,,./stim/p08_syllable_1_falutraigo_hit.wav,p08,falutraigo,hit,fa-lu-trai-go,fa-lu-trai-go,fa-lu-tra-i-go, ,-0.427083333,-0.102864583,1,0,0,1.6502,text_option_1,,0,180,180,174,1
5f738de5cd78b40e58fb464b,63f3cfca20052e4ae7554ebf,6453c721a0e711d71abb9590,2023-05-04_16h55.01.347,ga_syllabified_check,2022.2.5,Win32,60.02040694,,,,,,,,,,,,,,./stim/p03_syllable_1_lakafiaisto_hit.wav,p03,lakafiaisto,hit,la-ka-fiais-to,la-ka-fiais-to,la-ka-fi-ais-to,la-ka-fia-is-to,-0.368489583,-0.118489583,1,0,0,1.1998,text_option_1,,0,181,181,10,1
5f738de5cd78b40e58fb464b,63f3cfca20052e4ae7554ebf,6453c721a0e711d71abb9590,2023-05-04_16h55.01.347,ga_syllabified_check,2022.2.5,Win32,60.02040694,,,,,,,,,,,,,,./stim/p03_syllable_1_lakatuaisto_hit.wav,p03,lakatuaisto,hit,la-ka-tuais-to,la-ka-tuais-to,la-ka-tu-ais-to,la-ka-tua-is-to,-0.427083333,-0.083333333,1,0,0,1.1499,text_option_1,,0,182,182,19,1
5f738de5cd78b40e58fb464b,63f3cfca20052e4ae7554ebf,6453c721a0e711d71abb9590,2023-05-04_16h55.01.347,ga_syllabified_check,2022.2.5,Win32,60.02040694,,,,,,,,,,,,,,./stim/p06_syllable_1_palumaisto_hit.wav,p06,palumaisto,hit,pa-lu-ma-is-to,pa-lu-mais-to,pa-lu-ma-is-to, ,0.411458333,-0.102864583,1,0,0,2.1002,text_option_2,,0,183,183,130,1
5f738de5cd78b40e58fb464b,63f3cfca20052e4ae7554ebf,6453c721a0e711d71abb9590,2023-05-04_16h55.01.347,ga_syllabified_check,2022.2.5,Win32,60.02040694,,,,,,,,,,,,,,./stim/p04_syllable_1_paluguato_hit.wav,p04,paluguato,hit,pa-lu-gua,pa-lu-gua-to,pa-lu-gu-a-to, ,-0.393229167,-0.10546875,1,0,0,1.3001,text_option_1,,0,184,184,61,1
5f738de5cd78b40e58fb464b,63f3cfca20052e4ae7554ebf,6453c721a0e711d71abb9590,2023-05-04_16h55.01.347,ga_syllabified_check,2022.2.5,Win32,60.02040694,,,,,,,,,,,,,,./stim/p08_syllable_1_lakadiaisto_hit.wav,p08,lakadiaisto,hit,la-ka-di-jas-to,la-ka-diais-to,la-ka-di-ais-to,la-ka-dia-is-to,0.42578125,-0.100260417,1,0,0,3.017,text_option_2,,0,185,185,178,1
5f738de5cd78b40e58fb464b,63f3cfca20052e4ae7554ebf,6453c721a0e711d71abb9590,2023-05-04_16h55.01.347,ga_syllabified_check,2022.2.5,Win32,60.02040694,,,,,,,,,,,,,,./stim/p06_syllable_1_lliape_hit.wav,p06,lliape,hit,lli-lla-pe,llia-pe,lli-a-pe, ,0.40625,-0.09375,1,0,0,0.8834,text_option_2,,0,186,186,122,1
5f738de5cd78b40e58fb464b,63f3cfca20052e4ae7554ebf,6453c721a0e711d71abb9590,2023-05-04_16h55.01.347,ga_syllabified_check,2022.2.5,Win32,60.02040694,,,,,,,,,,,,,,./stim/p04_syllable_1_lakaduaisto_hit.wav,p04,lakaduaisto,hit,la-ka-duais-to,la-ka-duais-to,la-ka-du-ais-to,la-ka-dua-is-to,-0.321614583,-0.114583333,1,0,0,0.8502,text_option_1,,0,187,187,43,1
5f738de5cd78b40e58fb464b,63f3cfca20052e4ae7554ebf,6453c721a0e711d71abb9590,2023-05-04_16h55.01.347,ga_syllabified_check,2022.2.5,Win32,60.02040694,,,,,,,,,,,,,,./stim/p03_syllable_1_lakagiaisto_hit.wav,p03,lakagiaisto,hit,la-ka-giais-to,la-ka-giais-to,la-ka-gi-ais-to,la-ka-gia-is-to,-0.37109375,-0.098958333,1,0,0,2.2667,text_option_1,,0,188,188,12,1
5f738de5cd78b40e58fb464b,63f3cfca20052e4ae7554ebf,6453c721a0e711d71abb9590,2023-05-04_16h55.01.347,ga_syllabified_check,2022.2.5,Win32,60.02040694,,,,,,,,,,,,,,./stim/p08_syllable_1_lakapuaisto_hit.wav,p08,lakapuaisto,hit,la-ka-pu-as-to,la-ka-puais-to,la-ka-pu-ais-to,la-ka-pua-is-to,0.419270833,-0.084635417,1,0,0,3.0834,text_option_2,,0,189,189,187,1
5f738de5cd78b40e58fb464b,63f3cfca20052e4ae7554ebf,6453c721a0e711d71abb9590,2023-05-04_16h55.01.347,ga_syllabified_check,2022.2.5,Win32,60.02040694,,,,,,,,,,,,,,./stim/p07_syllable_1_lakapuaisto_hit.wav,p07,lakapuaisto,hit,la-ka-puais-to,la-ka-puais-to,la-ka-pu-ais-to,la-ka-pua-is-to,-0.330729167,-0.100260417,1,0,0,2.2291,text_option_1,,0,190,190,153,1
5f738de5cd78b40e58fb464b,63f3cfca20052e4ae7554ebf,6453c721a0e711d71abb9590,2023-05-04_16h55.01.347,ga_syllabified_check,2022.2.5,Win32,60.02040694,,,,,,,,,,,,,,./stim/p08_syllable_1_ruyiola_hit.wav,p08,ruyiola,hit,ru-yio-la,ru-yio-la,ru-yi-o-la, ,-0.4453125,-0.114583333,1,0,0,0.9371,text_option_1,,0,191,191,202,1
5f738de5cd78b40e58fb464b,63f3cfca20052e4ae7554ebf,6453c721a0e711d71abb9590,2023-05-04_16h55.01.347,ga_syllabified_check,2022.2.5,Win32,60.02040694,,,,,,,,,,,,,,./stim/p08_syllable_1_nhiape_hit.wav,p08,ñiape,hit,ni-a-pe,ñia-pe,ñi-a-pe, ,-0.391927083,-0.10546875,1,0,0,1.3207,text_option_1,,0,192,192,193,1
5f738de5cd78b40e58fb464b,63f3cfca20052e4ae7554ebf,6453c721a0e711d71abb9590,2023-05-04_16h55.01.347,ga_syllabified_check,2022.2.5,Win32,60.02040694,,,,,,,,,,,,,,./stim/p03_syllable_1_pachialo_hit.wav,p03,pachialo,hit,pa-chia-lo,pa-chia-lo,pa-chi-a-lo, ,-0.412760417,-0.083333333,1,0,0,0.8674,text_option_1,,0,193,193,24,1
5f738de5cd78b40e58fb464b,63f3cfca20052e4ae7554ebf,6453c721a0e711d71abb9590,2023-05-04_16h55.01.347,ga_syllabified_check,2022.2.5,Win32,60.02040694,,,,,,,,,,,,,,./stim/p04_syllable_1_lakatiaisto_hit.wav,p04,lakatiaisto,hit,la-ka-kiais-to,la-ka-tiais-to,la-ka-ti-ais-to,la-ka-tia-is-to,0.01171875,-0.108072917,1,0,0,3.039,text_option_3,,0,194,194,52,1
5f738de5cd78b40e58fb464b,63f3cfca20052e4ae7554ebf,6453c721a0e711d71abb9590,2023-05-04_16h55.01.347,ga_syllabified_check,2022.2.5,Win32,60.02040694,,,,,,,,,,,,,,./stim/p08_syllable_1_lakabuaisto_hit.wav,p08,lakabuaisto,hit,la-ka-bu-ais-to,la-ka-buais-to,la-ka-bu-ais-to,la-ka-bua-is-to,0.40234375,-0.102864583,1,0,0,3.4169,text_option_2,,0,195,195,177,1
5f738de5cd78b40e58fb464b,63f3cfca20052e4ae7554ebf,6453c721a0e711d71abb9590,2023-05-04_16h55.01.347,ga_syllabified_check,2022.2.5,Win32,60.02040694,,,,,,,,,,,,,,./stim/p04_syllable_1_falufaisto_hit.wav,p04,falufaisto,hit,fa-lu-fais-to,fa-lu-fais-to,fa-lu-fa-is-to, ,-0.440104167,-0.104166667,1,0,0,3.8832,text_option_1,,0,196,196,37,1
5f738de5cd78b40e58fb464b,63f3cfca20052e4ae7554ebf,6453c721a0e711d71abb9590,2023-05-04_16h55.01.347,ga_syllabified_check,2022.2.5,Win32,60.02040694,,,,,,,,,,,,,,./stim/p06_syllable_1_palutrauco_hit.wav,p06,palutrauco,hit,pa-lu-tra-u-co,pa-lu-trau-co,pa-lu-tra-u-co, ,0.37109375,-0.109375,1,0,0,3.4835,text_option_2,,0,197,197,131,1
5f738de5cd78b40e58fb464b,63f3cfca20052e4ae7554ebf,6453c721a0e711d71abb9590,2023-05-04_16h55.01.347,ga_syllabified_check,2022.2.5,Win32,60.02040694,,,,,,,,,,,,,,./stim/p03_syllable_1_mebochiana_hit.wav,p03,mebochiana,hit,me-bo-chia-na,me-bo-chia-na,me-bo-chi-a-na, ,-0.40625,-0.092447917,1,0,0,1.5167,text_option_1,,0,198,198,22,1
5f738de5cd78b40e58fb464b,63f3cfca20052e4ae7554ebf,6453c721a0e711d71abb9590,2023-05-04_16h55.01.347,ga_syllabified_check,2022.2.5,Win32,60.02040694,,,,,,,,,,,,,,./stim/p04_syllable_1_lakakiaisto_hit.wav,p04,lakakiaisto,hit,la-ka-kiais-to,la-ka-kiais-to,la-ka-ki-ais-to,la-ka-kia-is-to,0.026041667,-0.09375,1,0,0,2.8668,text_option_3,,0,199,199,48,1
5f738de5cd78b40e58fb464b,63f3cfca20052e4ae7554ebf,6453c721a0e711d71abb9590,2023-05-04_16h55.01.347,ga_syllabified_check,2022.2.5,Win32,60.02040694,,,,,,,,,,,,,,./stim/p05_syllable_1_lakafiaisto_hit.wav,p05,lakafiaisto,hit,la-ka-fi-ais-to,la-ka-fiais-to,la-ka-fi-ais-to,la-ka-fia-is-to,0.388020833,-0.108072917,1,0,0,2.4668,text_option_2,,0,200,200,78,1
5f738de5cd78b40e58fb464b,63f3cfca20052e4ae7554ebf,6453c721a0e711d71abb9590,2023-05-04_16h55.01.347,ga_syllabified_check,2022.2.5,Win32,60.02040694,,,,,,,,,,,,,,./stim/p05_syllable_1_ruyiola_hit.wav,p05,ruyiola,hit,ru-yio-la,ru-yio-la,ru-yi-o-la, ,-0.403645833,-0.1015625,1,0,0,1.1997,text_option_1,,0,201,201,100,1
5f738de5cd78b40e58fb464b,63f3cfca20052e4ae7554ebf,6453c721a0e711d71abb9590,2023-05-04_16h55.01.347,ga_syllabified_check,2022.2.5,Win32,60.02040694,,,,,,,,,,,,,,./stim/p05_syllable_1_lliape_hit.wav,p05,lliape,hit,liai-pe,llia-pe,lli-a-pe, ,-0.395833333,-0.096354167,1,0,0,0.3667,text_option_1,,0,202,202,88,1
5f738de5cd78b40e58fb464b,63f3cfca20052e4ae7554ebf,6453c721a0e711d71abb9590,2023-05-04_16h55.01.347,ga_syllabified_check,2022.2.5,Win32,60.02040694,,,,,,,,,,,,,,./stim/p08_syllable_1_lakaguaisto_hit.wav,p08,lakaguaisto,hit,la-ka-gu-ais-to,la-ka-guais-to,la-ka-gu-ais-to,la-ka-gua-is-to,-0.384114583,-0.1015625,1,0,0,3.4501,text_option_1,,0,203,203,183,1
5f738de5cd78b40e58fb464b,63f3cfca20052e4ae7554ebf,6453c721a0e711d71abb9590,2023-05-04_16h55.01.347,ga_syllabified_check,2022.2.5,Win32,60.02040694,,,,,,,,,,,,,,,,,,,,,,,,,,,,,,,,,,
