participant,study,session,date,expName,psychopyVersion,OS,frameRate,mouse_practice.x,mouse_practice.y,mouse_practice.leftButton,mouse_practice.midButton,mouse_practice.rightButton,mouse_practice.time,mouse_practice.clicked_name,textbox_followup_practice.text,trials_practice.thisRepN,trials_practice.thisTrialN,trials_practice.thisN,trials_practice.thisIndex,trials_practice.ran,file_path,id,item,status,response,op1,op2,op3,mouse.x,mouse.y,mouse.leftButton,mouse.midButton,mouse.rightButton,mouse.time,mouse.clicked_name,textbox_followup.text,trials.thisRepN,trials.thisTrialN,trials.thisN,trials.thisIndex,trials.ran
5f9031f8c4202208aff899c5,63f3cfca20052e4ae7554ebf,6453ce2475b550dfab1c8951,2023-05-04_17h24.58.850,ga_syllabified_check,2022.2.5,Win32,58.82352941,,,,,,,,,,,,,,,,,,,,,,,,,,,,,,,,,,
5f9031f8c4202208aff899c5,63f3cfca20052e4ae7554ebf,6453ce2475b550dfab1c8951,2023-05-04_17h24.58.850,ga_syllabified_check,2022.2.5,Win32,58.82352941,-0.41111109,-0.111111111,1,0,0,11.269,text_option_1_practice,,0,0,0,0,1,./stim/p03_syllable_1_liamo_hit.wav,p03,liamo,hit,lia-mo,lia-mo,li-a-mo, ,,,,,,,,,,,,,
5f9031f8c4202208aff899c5,63f3cfca20052e4ae7554ebf,6453ce2475b550dfab1c8951,2023-05-04_17h24.58.850,ga_syllabified_check,2022.2.5,Win32,58.82352941,-0.41111109,-0.111111111,1,0,0,2.952,text_option_1_practice,,0,1,1,1,1,./stim/p05_syllable_1_matio_hit.wav,p05,matio,hit,ma-tio,ma-tio,ma-ti-o, ,,,,,,,,,,,,,
5f9031f8c4202208aff899c5,63f3cfca20052e4ae7554ebf,6453ce2475b550dfab1c8951,2023-05-04_17h24.58.850,ga_syllabified_check,2022.2.5,Win32,58.82352941,-0.41111109,-0.111111111,1,0,0,10.269,text_option_1_practice,,0,2,2,2,1,./stim/p08_syllable_1_liamo_hit.wav,p08,liamo,hit,ja-mo,lia-mo,li-a-mo, ,,,,,,,,,,,,,
5f9031f8c4202208aff899c5,63f3cfca20052e4ae7554ebf,6453ce2475b550dfab1c8951,2023-05-04_17h24.58.850,ga_syllabified_check,2022.2.5,Win32,58.82352941,,,,,,,,,,,,,,,,,,,,,,,,,,,,,,,,,,
5f9031f8c4202208aff899c5,63f3cfca20052e4ae7554ebf,6453ce2475b550dfab1c8951,2023-05-04_17h24.58.850,ga_syllabified_check,2022.2.5,Win32,58.82352941,,,,,,,,,,,,,,./stim/p06_syllable_1_manhiala_hit.wav,p06,mañiala,hit,ma-nhi-a-la,ma-ñia-la,ma-ñi-a-la, ,0.445370427,-0.100000028,1,0,0,4.534,text_option_2,,0,0,0,123,1
5f9031f8c4202208aff899c5,63f3cfca20052e4ae7554ebf,6453ce2475b550dfab1c8951,2023-05-04_17h24.58.850,ga_syllabified_check,2022.2.5,Win32,58.82352941,,,,,,,,,,,,,,./stim/p04_syllable_1_costonhialo_hit.wav,p04,costoñialo,hit,cos-to-nhia-lo,cos-to-ñia-lo,cos-to-ñi-a-lo, ,-0.368518511,-0.094444487,1,0,0,2.901,text_option_1,,0,1,1,35,1
5f9031f8c4202208aff899c5,63f3cfca20052e4ae7554ebf,6453ce2475b550dfab1c8951,2023-05-04_17h24.58.850,ga_syllabified_check,2022.2.5,Win32,58.82352941,,,,,,,,,,,,,,./stim/p08_syllable_1_lakadiaisto_hit.wav,p08,lakadiaisto,hit,la-ka-di-jas-to,la-ka-diais-to,la-ka-di-ais-to,la-ka-dia-is-to,0.402777778,-0.114814829,1,0,0,5.967,text_option_2,,0,2,2,178,1
5f9031f8c4202208aff899c5,63f3cfca20052e4ae7554ebf,6453ce2475b550dfab1c8951,2023-05-04_17h24.58.850,ga_syllabified_check,2022.2.5,Win32,58.82352941,,,,,,,,,,,,,,./stim/p05_syllable_1_falutraigo_hit.wav,p05,falutraigo,hit,fa-lu-trai-go,fa-lu-trai-go,fa-lu-tra-i-go, ,-0.400925919,-0.109259288,1,0,0,2.802,text_option_1,,0,3,3,72,1
5f9031f8c4202208aff899c5,63f3cfca20052e4ae7554ebf,6453ce2475b550dfab1c8951,2023-05-04_17h24.58.850,ga_syllabified_check,2022.2.5,Win32,58.82352941,,,,,,,,,,,,,,./stim/p06_syllable_1_lliape_hit.wav,p06,lliape,hit,lli-lla-pe,llia-pe,lli-a-pe, ,0.409259231,-0.113888917,1,0,0,1.634,text_option_2,,0,4,4,122,1
5f9031f8c4202208aff899c5,63f3cfca20052e4ae7554ebf,6453ce2475b550dfab1c8951,2023-05-04_17h24.58.850,ga_syllabified_check,2022.2.5,Win32,58.82352941,,,,,,,,,,,,,,./stim/p06_syllable_1_palufauro_hit.wav,p06,palufauro,hit,pa-lu-fau-ro,pa-lu-fau-ro,pa-lu-fa-u-ro, ,0.429629714,-0.107407393,1,0,0,5.6,text_option_2,,0,5,5,127,1
5f9031f8c4202208aff899c5,63f3cfca20052e4ae7554ebf,6453ce2475b550dfab1c8951,2023-05-04_17h24.58.850,ga_syllabified_check,2022.2.5,Win32,58.82352941,,,,,,,,,,,,,,./stim/p04_syllable_1_nhiape_hit.wav,p04,ñiape,hit,nhia-pe,ñia-pe,ñi-a-pe, ,-0.440740727,-0.10092594,1,0,0,1.149,text_option_1,,0,6,6,57,1
5f9031f8c4202208aff899c5,63f3cfca20052e4ae7554ebf,6453ce2475b550dfab1c8951,2023-05-04_17h24.58.850,ga_syllabified_check,2022.2.5,Win32,58.82352941,,,,,,,,,,,,,,./stim/p08_syllable_1_lakabiaisto_hit.wav,p08,lakabiaisto,hit,la-ka-bi-as-to,la-ka-biais-to,la-ka-bi-ais-to,la-ka-bia-is-to,0.385185242,-0.114814829,1,0,0,4.64,text_option_2,,0,7,7,176,1
5f9031f8c4202208aff899c5,63f3cfca20052e4ae7554ebf,6453ce2475b550dfab1c8951,2023-05-04_17h24.58.850,ga_syllabified_check,2022.2.5,Win32,58.82352941,,,,,,,,,,,,,,./stim/p06_syllable_1_lakapiaisto_hit.wav,p06,lakapiaisto,hit,la-ka-pia-is-to,la-ka-piais-to,la-ka-pi-ais-to,la-ka-pia-is-to,0.003703718,-0.110185199,1,0,0,5.967,text_option_3,,0,8,8,118,1
5f9031f8c4202208aff899c5,63f3cfca20052e4ae7554ebf,6453ce2475b550dfab1c8951,2023-05-04_17h24.58.850,ga_syllabified_check,2022.2.5,Win32,58.82352941,,,,,,,,,,,,,,./stim/p07_syllable_1_falufaisto_hit.wav,p07,falufaisto,hit,fa-lu-fais-to,fa-lu-fais-to,fa-lu-fa-is-to, ,-0.332407386,-0.110185199,1,0,0,2.7,text_option_1,,0,9,9,139,1
5f9031f8c4202208aff899c5,63f3cfca20052e4ae7554ebf,6453ce2475b550dfab1c8951,2023-05-04_17h24.58.850,ga_syllabified_check,2022.2.5,Win32,58.82352941,,,,,,,,,,,,,,./stim/p07_syllable_1_payielo_hit.wav,p07,payielo,hit,pa-yie-lo,pa-yie-lo,pa-yi-e-lo, ,-0.375,-0.10555557,1,0,0,1.983,text_option_1,,0,10,10,166,1
5f9031f8c4202208aff899c5,63f3cfca20052e4ae7554ebf,6453ce2475b550dfab1c8951,2023-05-04_17h24.58.850,ga_syllabified_check,2022.2.5,Win32,58.82352941,,,,,,,,,,,,,,./stim/p03_syllable_1_lakakuaisto_hit.wav,p03,lakakuaisto,hit,la-ka-kuais-to,la-ka-kuais-to,la-ka-ku-ais-to,la-ka-kua-is-to,-0.351851852,-0.10092594,1,0,0,4.185,text_option_1,,0,11,11,15,1
5f9031f8c4202208aff899c5,63f3cfca20052e4ae7554ebf,6453ce2475b550dfab1c8951,2023-05-04_17h24.58.850,ga_syllabified_check,2022.2.5,Win32,58.82352941,,,,,,,,,,,,,,./stim/p08_syllable_1_pachialo_hit.wav,p08,pachialo,hit,pa-chi-ja-lo,pa-chia-lo,pa-chi-a-lo, ,0.406481566,-0.109259288,1,0,0,1.667,text_option_2,,0,12,12,194,1
5f9031f8c4202208aff899c5,63f3cfca20052e4ae7554ebf,6453ce2475b550dfab1c8951,2023-05-04_17h24.58.850,ga_syllabified_check,2022.2.5,Win32,58.82352941,,,,,,,,,,,,,,./stim/p05_syllable_1_lakakiaisto_hit.wav,p05,lakakiaisto,hit,la-ka-ki-ais-to,la-ka-kiais-to,la-ka-ki-ais-to,la-ka-kia-is-to,-0.37037037,-0.10555557,1,0,0,3.652,text_option_1,,0,13,13,82,1
5f9031f8c4202208aff899c5,63f3cfca20052e4ae7554ebf,6453ce2475b550dfab1c8951,2023-05-04_17h24.58.850,ga_syllabified_check,2022.2.5,Win32,58.82352941,,,,,,,,,,,,,,./stim/p07_syllable_1_tuliafo_hit.wav,p07,tuliafo,hit,tu-lia-fo,tu-lia-fo,tu-li-a-fo, ,-0.39444443,-0.10555557,1,0,0,2.916,text_option_1,,0,14,14,169,1
5f9031f8c4202208aff899c5,63f3cfca20052e4ae7554ebf,6453ce2475b550dfab1c8951,2023-05-04_17h24.58.850,ga_syllabified_check,2022.2.5,Win32,58.82352941,,,,,,,,,,,,,,./stim/p08_syllable_1_falutraigo_hit.wav,p08,falutraigo,hit,fa-lu-trai-go,fa-lu-trai-go,fa-lu-tra-i-go, ,-0.371296282,-0.106481481,1,0,0,2.822,text_option_1,,0,15,15,174,1
5f9031f8c4202208aff899c5,63f3cfca20052e4ae7554ebf,6453ce2475b550dfab1c8951,2023-05-04_17h24.58.850,ga_syllabified_check,2022.2.5,Win32,58.82352941,,,,,,,,,,,,,,./stim/p07_syllable_1_falutraigo_hit.wav,p07,falutraigo,hit,fa-lu-trai-go,fa-lu-trai-go,fa-lu-tra-i-go, ,-0.375,-0.100000028,1,0,0,3.468,text_option_1,,0,16,16,140,1
5f9031f8c4202208aff899c5,63f3cfca20052e4ae7554ebf,6453ce2475b550dfab1c8951,2023-05-04_17h24.58.850,ga_syllabified_check,2022.2.5,Win32,58.82352941,,,,,,,,,,,,,,./stim/p07_syllable_1_faluduako_hit.wav,p07,faluduako,hit,fa-lu-dua-ko,fa-lu-dua-ko,fa-lu-du-a-ko, ,-0.36296297,-0.101851852,1,0,0,2.916,text_option_1,,0,17,17,138,1
5f9031f8c4202208aff899c5,63f3cfca20052e4ae7554ebf,6453ce2475b550dfab1c8951,2023-05-04_17h24.58.850,ga_syllabified_check,2022.2.5,Win32,58.82352941,,,,,,,,,,,,,,./stim/p07_syllable_1_pachialo_hit.wav,p07,pachialo,hit,pa-cha-lo,pa-chia-lo,pa-chi-a-lo, ,-0.363888882,-0.101851852,1,0,0,2.434,text_option_1,,0,18,18,160,1
5f9031f8c4202208aff899c5,63f3cfca20052e4ae7554ebf,6453ce2475b550dfab1c8951,2023-05-04_17h24.58.850,ga_syllabified_check,2022.2.5,Win32,58.82352941,,,,,,,,,,,,,,./stim/p06_syllable_1_lakaduaisto_hit.wav,p06,lakaduaisto,hit,la-ka-du-a-is,la-ka-duais-to,la-ka-du-ais-to,la-ka-dua-is-to,-0.007407365,-0.306481467,1,0,0,13.783,text_option_other,la-ka-du-a-is-to,0,19,19,111,1
5f9031f8c4202208aff899c5,63f3cfca20052e4ae7554ebf,6453ce2475b550dfab1c8951,2023-05-04_17h24.58.850,ga_syllabified_check,2022.2.5,Win32,58.82352941,,,,,,,,,,,,,,./stim/p03_syllable_1_lakaguaisto_hit.wav,p03,lakaguaisto,hit,la-ka-guais-to,la-ka-guais-to,la-ka-gu-ais-to,la-ka-gua-is-to,-0.419444437,-0.110185199,1,0,0,2.967,text_option_1,,0,20,20,13,1
5f9031f8c4202208aff899c5,63f3cfca20052e4ae7554ebf,6453ce2475b550dfab1c8951,2023-05-04_17h24.58.850,ga_syllabified_check,2022.2.5,Win32,58.82352941,,,,,,,,,,,,,,./stim/p07_syllable_1_palufauro_hit.wav,p07,palufauro,hit,pa-lu-fau-ro,pa-lu-fau-ro,pa-lu-fa-u-ro, ,-0.362037023,-0.107407393,1,0,0,1.801,text_option_1,,0,21,21,161,1
5f9031f8c4202208aff899c5,63f3cfca20052e4ae7554ebf,6453ce2475b550dfab1c8951,2023-05-04_17h24.58.850,ga_syllabified_check,2022.2.5,Win32,58.82352941,,,,,,,,,,,,,,./stim/p08_syllable_1_palumaisto_hit.wav,p08,palumaisto,hit,pa-lu-mais-to,pa-lu-mais-to,pa-lu-ma-is-to, ,-0.344444452,-0.107407393,1,0,0,2.741,text_option_1,,0,22,22,198,1
5f9031f8c4202208aff899c5,63f3cfca20052e4ae7554ebf,6453ce2475b550dfab1c8951,2023-05-04_17h24.58.850,ga_syllabified_check,2022.2.5,Win32,58.82352941,,,,,,,,,,,,,,./stim/p08_syllable_1_falufaisto_hit.wav,p08,falufaisto,hit,fa-lu-fais-to,fa-lu-fais-to,fa-lu-fa-is-to, ,-0.378703683,-0.104629658,1,0,0,2.083,text_option_1,,0,23,23,173,1
5f9031f8c4202208aff899c5,63f3cfca20052e4ae7554ebf,6453ce2475b550dfab1c8951,2023-05-04_17h24.58.850,ga_syllabified_check,2022.2.5,Win32,58.82352941,,,,,,,,,,,,,,./stim/p04_syllable_1_lakabuaisto_hit.wav,p04,lakabuaisto,hit,la-ka-buais-to,la-ka-buais-to,la-ka-bu-ais-to,la-ka-bua-is-to,-0.383333312,-0.101851852,1,0,0,1.665,text_option_1,,0,24,24,41,1
5f9031f8c4202208aff899c5,63f3cfca20052e4ae7554ebf,6453ce2475b550dfab1c8951,2023-05-04_17h24.58.850,ga_syllabified_check,2022.2.5,Win32,58.82352941,,,,,,,,,,,,,,./stim/p07_syllable_1_lakakiaisto_hit.wav,p07,lakakiaisto,hit,la-ka-kais-to,la-ka-kiais-to,la-ka-ki-ais-to,la-ka-kia-is-to,-0.345370363,-0.109259288,1,0,0,4.2,text_option_1,,0,25,25,150,1
5f9031f8c4202208aff899c5,63f3cfca20052e4ae7554ebf,6453ce2475b550dfab1c8951,2023-05-04_17h24.58.850,ga_syllabified_check,2022.2.5,Win32,58.82352941,,,,,,,,,,,,,,./stim/p04_syllable_1_lakaguaisto_hit.wav,p04,lakaguaisto,hit,la-ka-guais-to,la-ka-guais-to,la-ka-gu-ais-to,la-ka-gua-is-to,-0.353703711,-0.106481481,1,0,0,1.367,text_option_1,,0,26,26,47,1
5f9031f8c4202208aff899c5,63f3cfca20052e4ae7554ebf,6453ce2475b550dfab1c8951,2023-05-04_17h24.58.850,ga_syllabified_check,2022.2.5,Win32,58.82352941,,,,,,,,,,,,,,./stim/p04_syllable_1_faluduako_hit.wav,p04,faluduako,hit,fa-lu-dua-ko,fa-lu-dua-ko,fa-lu-du-a-ko, ,-0.349074081,-0.102777764,1,0,0,0.822,text_option_1,,0,27,27,36,1
5f9031f8c4202208aff899c5,63f3cfca20052e4ae7554ebf,6453ce2475b550dfab1c8951,2023-05-04_17h24.58.850,ga_syllabified_check,2022.2.5,Win32,58.82352941,,,,,,,,,,,,,,./stim/p05_syllable_1_chiaba_hit.wav,p05,chiaba,hit,chia-ba,chia-ba,chi-a-ba, ,-0.378703683,-0.104629658,1,0,0,1.668,text_option_1,,0,28,28,68,1
5f9031f8c4202208aff899c5,63f3cfca20052e4ae7554ebf,6453ce2475b550dfab1c8951,2023-05-04_17h24.58.850,ga_syllabified_check,2022.2.5,Win32,58.82352941,,,,,,,,,,,,,,./stim/p03_syllable_1_rausto_hit.wav,p03,rausto,hit,raus-to,raus-to,ra-us-to, ,-0.377777771,-0.109259288,1,0,0,1.168,text_option_1,,0,29,29,31,1
5f9031f8c4202208aff899c5,63f3cfca20052e4ae7554ebf,6453ce2475b550dfab1c8951,2023-05-04_17h24.58.850,ga_syllabified_check,2022.2.5,Win32,58.82352941,,,,,,,,,,,,,,./stim/p05_syllable_1_lakagiaisto_hit.wav,p05,lakagiaisto,hit,la-ka-ki-ais-to,la-ka-giais-to,la-ka-gi-ais-to,la-ka-gia-is-to,-0.340740734,-0.108333376,1,0,0,1.65,text_option_1,,0,30,30,80,1
5f9031f8c4202208aff899c5,63f3cfca20052e4ae7554ebf,6453ce2475b550dfab1c8951,2023-05-04_17h24.58.850,ga_syllabified_check,2022.2.5,Win32,58.82352941,,,,,,,,,,,,,,./stim/p03_syllable_1_palumaisto_hit.wav,p03,palumaisto,hit,pa-lu-mais-to,pa-lu-mais-to,pa-lu-ma-is-to, ,-0.342592593,-0.098148134,1,0,0,1.434,text_option_1,,0,31,31,28,1
5f9031f8c4202208aff899c5,63f3cfca20052e4ae7554ebf,6453ce2475b550dfab1c8951,2023-05-04_17h24.58.850,ga_syllabified_check,2022.2.5,Win32,58.82352941,,,,,,,,,,,,,,./stim/p07_syllable_1_manhiala_hit.wav,p07,mañiala,hit,ma-nhia-la,ma-ñia-la,ma-ñi-a-la, ,-0.378703683,-0.102777764,1,0,0,1.984,text_option_1,,0,32,32,157,1
5f9031f8c4202208aff899c5,63f3cfca20052e4ae7554ebf,6453ce2475b550dfab1c8951,2023-05-04_17h24.58.850,ga_syllabified_check,2022.2.5,Win32,58.82352941,,,,,,,,,,,,,,./stim/p06_syllable_1_lakafuaisto_hit.wav,p06,lakafuaisto,hit,la-ka-fu-a-is,la-ka-fuais-to,la-ka-fu-ais-to,la-ka-fua-is-to,-0.034259231,-0.297222208,1,0,0,10.833,text_option_other,la-ka-fu-a-is-to,0,33,33,113,1
5f9031f8c4202208aff899c5,63f3cfca20052e4ae7554ebf,6453ce2475b550dfab1c8951,2023-05-04_17h24.58.850,ga_syllabified_check,2022.2.5,Win32,58.82352941,,,,,,,,,,,,,,./stim/p07_syllable_1_palumaisto_hit.wav,p07,palumaisto,hit,pa-lu-mais-to,pa-lu-mais-to,pa-lu-ma-is-to, ,-0.380555541,-0.106481481,1,0,0,2.584,text_option_1,,0,34,34,164,1
5f9031f8c4202208aff899c5,63f3cfca20052e4ae7554ebf,6453ce2475b550dfab1c8951,2023-05-04_17h24.58.850,ga_syllabified_check,2022.2.5,Win32,58.82352941,,,,,,,,,,,,,,./stim/p06_syllable_1_paluguato_hit.wav,p06,paluguato,hit,pa-lu-gua-to,pa-lu-gua-to,pa-lu-gu-a-to, ,-0.352777764,-0.106481481,1,0,0,2.382,text_option_1,,0,35,35,129,1
5f9031f8c4202208aff899c5,63f3cfca20052e4ae7554ebf,6453ce2475b550dfab1c8951,2023-05-04_17h24.58.850,ga_syllabified_check,2022.2.5,Win32,58.82352941,,,,,,,,,,,,,,./stim/p06_syllable_1_pachialo_hit.wav,p06,pachialo,hit,pa-shi-a-lo,pa-chia-lo,pa-chi-a-lo, ,0.44722225,-0.106481481,1,0,0,1.383,text_option_2,,0,36,36,126,1
5f9031f8c4202208aff899c5,63f3cfca20052e4ae7554ebf,6453ce2475b550dfab1c8951,2023-05-04_17h24.58.850,ga_syllabified_check,2022.2.5,Win32,58.82352941,,,,,,,,,,,,,,./stim/p06_syllable_1_lakakuaisto_hit.wav,p06,lakakuaisto,hit,la-ka-ku-a-is,la-ka-kuais-to,la-ka-ku-ais-to,la-ka-kua-is-to,-0.059259273,-0.305555556,1,0,0,7.432,text_option_other,la-ka-ku-a-is-to,0,37,37,117,1
5f9031f8c4202208aff899c5,63f3cfca20052e4ae7554ebf,6453ce2475b550dfab1c8951,2023-05-04_17h24.58.850,ga_syllabified_check,2022.2.5,Win32,58.82352941,,,,,,,,,,,,,,./stim/p07_syllable_1_costonhialo_hit.wav,p07,costoñialo,hit,cos-to-nhia-lo,cos-to-ñia-lo,cos-to-ñi-a-lo, ,-0.343518504,-0.112037023,1,0,0,1.899,text_option_1,,0,38,38,137,1
5f9031f8c4202208aff899c5,63f3cfca20052e4ae7554ebf,6453ce2475b550dfab1c8951,2023-05-04_17h24.58.850,ga_syllabified_check,2022.2.5,Win32,58.82352941,,,,,,,,,,,,,,./stim/p03_syllable_1_manhiala_hit.wav,p03,mañiala,hit,ma-nhia-la,ma-ñia-la,ma-ñi-a-la, ,-0.371296282,-0.107407393,1,0,0,0.817,text_option_1,,0,39,39,21,1
5f9031f8c4202208aff899c5,63f3cfca20052e4ae7554ebf,6453ce2475b550dfab1c8951,2023-05-04_17h24.58.850,ga_syllabified_check,2022.2.5,Win32,58.82352941,,,,,,,,,,,,,,./stim/p08_syllable_1_lakagiaisto_hit.wav,p08,lakagiaisto,hit,la-ka-gi-jas-to,la-ka-giais-to,la-ka-gi-ais-to,la-ka-gia-is-to,0.439814815,-0.116666653,1,0,0,4.966,text_option_2,,0,40,40,182,1
5f9031f8c4202208aff899c5,63f3cfca20052e4ae7554ebf,6453ce2475b550dfab1c8951,2023-05-04_17h24.58.850,ga_syllabified_check,2022.2.5,Win32,58.82352941,,,,,,,,,,,,,,./stim/p07_syllable_1_palufauto_hit.wav,p07,palufauto,hit,pa-lu-fau-to,pa-lu-fau-to,pa-lu-fa-u-to, ,-0.37037037,-0.095370399,1,0,0,1.765,text_option_1,,0,41,41,162,1
5f9031f8c4202208aff899c5,63f3cfca20052e4ae7554ebf,6453ce2475b550dfab1c8951,2023-05-04_17h24.58.850,ga_syllabified_check,2022.2.5,Win32,58.82352941,,,,,,,,,,,,,,./stim/p05_syllable_1_lakafuaisto_hit.wav,p05,lakafuaisto,hit,la-ka-fais-to,la-ka-fuais-to,la-ka-fu-ais-to,la-ka-fua-is-to,-0.36296297,-0.106481481,1,0,0,2.65,text_option_1,,0,42,42,79,1
5f9031f8c4202208aff899c5,63f3cfca20052e4ae7554ebf,6453ce2475b550dfab1c8951,2023-05-04_17h24.58.850,ga_syllabified_check,2022.2.5,Win32,58.82352941,,,,,,,,,,,,,,./stim/p03_syllable_1_paluguato_hit.wav,p03,paluguato,hit,pa-lu-gua,pa-lu-gua-to,pa-lu-gu-a-to, ,-0.350925905,-0.115740741,1,0,0,1.417,text_option_1,,0,43,43,27,1
5f9031f8c4202208aff899c5,63f3cfca20052e4ae7554ebf,6453ce2475b550dfab1c8951,2023-05-04_17h24.58.850,ga_syllabified_check,2022.2.5,Win32,58.82352941,,,,,,,,,,,,,,./stim/p05_syllable_1_lakadiaisto_hit.wav,p05,lakadiaisto,hit,la-ka-di-ais-to,la-ka-diais-to,la-ka-di-ais-to,la-ka-dia-is-to,-0.335185192,-0.110185199,1,0,0,3.75,text_option_1,,0,44,44,76,1
5f9031f8c4202208aff899c5,63f3cfca20052e4ae7554ebf,6453ce2475b550dfab1c8951,2023-05-04_17h24.58.850,ga_syllabified_check,2022.2.5,Win32,58.82352941,,,,,,,,,,,,,,./stim/p08_syllable_1_flauro_hit.wav,p08,flauro,hit,flau-ro,flau-ro,fla-u-ro, ,-0.393518519,-0.112963005,1,0,0,0.985,text_option_1,,0,45,45,175,1
5f9031f8c4202208aff899c5,63f3cfca20052e4ae7554ebf,6453ce2475b550dfab1c8951,2023-05-04_17h24.58.850,ga_syllabified_check,2022.2.5,Win32,58.82352941,,,,,,,,,,,,,,./stim/p06_syllable_1_payielo_hit.wav,p06,payielo,hit,pa-yi-e-lo,pa-yie-lo,pa-yi-e-lo, ,0.439814815,-0.108333376,1,0,0,2,text_option_2,,0,46,46,132,1
5f9031f8c4202208aff899c5,63f3cfca20052e4ae7554ebf,6453ce2475b550dfab1c8951,2023-05-04_17h24.58.850,ga_syllabified_check,2022.2.5,Win32,58.82352941,,,,,,,,,,,,,,./stim/p06_syllable_1_lakaguaisto_hit.wav,p06,lakaguaisto,hit,la-ka-gu-a-is,la-ka-guais-to,la-ka-gu-ais-to,la-ka-gua-is-to,-0.007407365,-0.298148191,1,0,0,7.051,text_option_other,la-ka-gu-a-is-to,0,47,47,115,1
5f9031f8c4202208aff899c5,63f3cfca20052e4ae7554ebf,6453ce2475b550dfab1c8951,2023-05-04_17h24.58.850,ga_syllabified_check,2022.2.5,Win32,58.82352941,,,,,,,,,,,,,,./stim/p04_syllable_1_pachialo_hit.wav,p04,pachialo,hit,pa-chia-lo,pa-chia-lo,pa-chi-a-lo, ,-0.439814815,-0.094444487,1,0,0,0.734,text_option_1,,0,48,48,58,1
5f9031f8c4202208aff899c5,63f3cfca20052e4ae7554ebf,6453ce2475b550dfab1c8951,2023-05-04_17h24.58.850,ga_syllabified_check,2022.2.5,Win32,58.82352941,,,,,,,,,,,,,,./stim/p03_syllable_1_lakadiaisto_hit.wav,p03,lakadiaisto,hit,la-ka-diais-to,la-ka-diais-to,la-ka-di-ais-to,la-ka-dia-is-to,-0.346296275,-0.102777764,1,0,0,1.538,text_option_1,,0,49,49,8,1
5f9031f8c4202208aff899c5,63f3cfca20052e4ae7554ebf,6453ce2475b550dfab1c8951,2023-05-04_17h24.58.850,ga_syllabified_check,2022.2.5,Win32,58.82352941,,,,,,,,,,,,,,./stim/p07_syllable_1_ruyiola_hit.wav,p07,ruyiola,hit,ru-yio-la,ru-yio-la,ru-yi-o-la, ,-0.357407393,-0.101851852,1,0,0,1.133,text_option_1,,0,50,50,168,1
5f9031f8c4202208aff899c5,63f3cfca20052e4ae7554ebf,6453ce2475b550dfab1c8951,2023-05-04_17h24.58.850,ga_syllabified_check,2022.2.5,Win32,58.82352941,,,,,,,,,,,,,,./stim/p04_syllable_1_palumaisto_hit.wav,p04,palumaisto,hit,pa-lu-mais-to,pa-lu-mais-to,pa-lu-ma-is-to, ,-0.337962963,-0.103703746,1,0,0,1.017,text_option_1,,0,51,51,62,1
5f9031f8c4202208aff899c5,63f3cfca20052e4ae7554ebf,6453ce2475b550dfab1c8951,2023-05-04_17h24.58.850,ga_syllabified_check,2022.2.5,Win32,58.82352941,,,,,,,,,,,,,,./stim/p03_syllable_1_payielo_hit.wav,p03,payielo,hit,pa-yie-lo,pa-yie-lo,pa-yi-e-lo, ,-0.37037037,-0.10092594,1,0,0,0.606,text_option_1,,0,52,52,30,1
5f9031f8c4202208aff899c5,63f3cfca20052e4ae7554ebf,6453ce2475b550dfab1c8951,2023-05-04_17h24.58.850,ga_syllabified_check,2022.2.5,Win32,58.82352941,,,,,,,,,,,,,,./stim/p06_syllable_1_falutraigo_hit.wav,p06,falutraigo,hit,fa-lu-tra-i-go,fa-lu-trai-go,fa-lu-tra-i-go, ,0.428703732,-0.106481481,1,0,0,4.407,text_option_2,,0,53,53,106,1
5f9031f8c4202208aff899c5,63f3cfca20052e4ae7554ebf,6453ce2475b550dfab1c8951,2023-05-04_17h24.58.850,ga_syllabified_check,2022.2.5,Win32,58.82352941,,,,,,,,,,,,,,./stim/p03_syllable_1_palufauro_hit.wav,p03,palufauro,hit,pa-lu-fau-ro,pa-lu-fau-ro,pa-lu-fa-u-ro, ,-0.37037037,-0.103703746,1,0,0,1.584,text_option_1,,0,54,54,25,1
5f9031f8c4202208aff899c5,63f3cfca20052e4ae7554ebf,6453ce2475b550dfab1c8951,2023-05-04_17h24.58.850,ga_syllabified_check,2022.2.5,Win32,58.82352941,,,,,,,,,,,,,,./stim/p03_syllable_1_palufauto_hit.wav,p03,palufauto,hit,pa-lu-fau,pa-lu-fau-to,pa-lu-fa-u-to, ,-0.334259245,-0.102777764,1,0,0,1.351,text_option_1,,0,55,55,26,1
5f9031f8c4202208aff899c5,63f3cfca20052e4ae7554ebf,6453ce2475b550dfab1c8951,2023-05-04_17h24.58.850,ga_syllabified_check,2022.2.5,Win32,58.82352941,,,,,,,,,,,,,,./stim/p05_syllable_1_faluduako_hit.wav,p05,faluduako,hit,fa-lu-ba-ko,fa-lu-dua-ko,fa-lu-du-a-ko, ,-0.351851852,-0.103703746,1,0,0,1.448,text_option_1,,0,56,56,70,1
5f9031f8c4202208aff899c5,63f3cfca20052e4ae7554ebf,6453ce2475b550dfab1c8951,2023-05-04_17h24.58.850,ga_syllabified_check,2022.2.5,Win32,58.82352941,,,,,,,,,,,,,,./stim/p05_syllable_1_tuliafo_hit.wav,p05,tuliafo,hit,tu-lai-fo,tu-lia-fo,tu-li-a-fo, ,-0.361111111,-0.108333376,1,0,0,0.683,text_option_1,,0,57,57,101,1
5f9031f8c4202208aff899c5,63f3cfca20052e4ae7554ebf,6453ce2475b550dfab1c8951,2023-05-04_17h24.58.850,ga_syllabified_check,2022.2.5,Win32,58.82352941,,,,,,,,,,,,,,./stim/p03_syllable_1_lakafiaisto_hit.wav,p03,lakafiaisto,hit,la-ka-fiais-to,la-ka-fiais-to,la-ka-fi-ais-to,la-ka-fia-is-to,-0.343518504,-0.101851852,1,0,0,1.217,text_option_1,,0,58,58,10,1
5f9031f8c4202208aff899c5,63f3cfca20052e4ae7554ebf,6453ce2475b550dfab1c8951,2023-05-04_17h24.58.850,ga_syllabified_check,2022.2.5,Win32,58.82352941,,,,,,,,,,,,,,./stim/p04_syllable_1_lakafiaisto_hit.wav,p04,lakafiaisto,hit,la-ka-fiais-to,la-ka-fiais-to,la-ka-fi-ais-to,la-ka-fia-is-to,-0.35833334,-0.09629631,1,0,0,1.117,text_option_1,,0,59,59,44,1
5f9031f8c4202208aff899c5,63f3cfca20052e4ae7554ebf,6453ce2475b550dfab1c8951,2023-05-04_17h24.58.850,ga_syllabified_check,2022.2.5,Win32,58.82352941,,,,,,,,,,,,,,./stim/p06_syllable_1_rausto_hit.wav,p06,rausto,hit,ra-us-to,raus-to,ra-us-to, ,0.401851937,-0.108333376,1,0,0,1.769,text_option_2,,0,60,60,133,1
5f9031f8c4202208aff899c5,63f3cfca20052e4ae7554ebf,6453ce2475b550dfab1c8951,2023-05-04_17h24.58.850,ga_syllabified_check,2022.2.5,Win32,58.82352941,,,,,,,,,,,,,,./stim/p04_syllable_1_lakakiaisto_hit.wav,p04,lakakiaisto,hit,la-ka-kiais-to,la-ka-kiais-to,la-ka-ki-ais-to,la-ka-kia-is-to,-0.388888889,-0.10555557,1,0,0,1.468,text_option_1,,0,61,61,48,1
5f9031f8c4202208aff899c5,63f3cfca20052e4ae7554ebf,6453ce2475b550dfab1c8951,2023-05-04_17h24.58.850,ga_syllabified_check,2022.2.5,Win32,58.82352941,,,,,,,,,,,,,,./stim/p03_syllable_1_lliape_hit.wav,p03,lliape,hit,llia,llia-pe,lli-a-pe, ,-0.40370369,-0.101851852,1,0,0,0.952,text_option_1,,0,62,62,20,1
5f9031f8c4202208aff899c5,63f3cfca20052e4ae7554ebf,6453ce2475b550dfab1c8951,2023-05-04_17h24.58.850,ga_syllabified_check,2022.2.5,Win32,58.82352941,,,,,,,,,,,,,,./stim/p05_syllable_1_manhiala_hit.wav,p05,mañiala,hit,ma-nhia-la,ma-ñia-la,ma-ñi-a-la, ,-0.383333312,-0.109259288,1,0,0,1.584,text_option_1,,0,63,63,89,1
5f9031f8c4202208aff899c5,63f3cfca20052e4ae7554ebf,6453ce2475b550dfab1c8951,2023-05-04_17h24.58.850,ga_syllabified_check,2022.2.5,Win32,58.82352941,,,,,,,,,,,,,,./stim/p06_syllable_1_falufaisto_hit.wav,p06,falufaisto,hit,fa-lu-fa-is-to,fa-lu-fais-to,fa-lu-fa-is-to, ,0.450925898,-0.101851852,1,0,0,2.767,text_option_2,,0,64,64,105,1
5f9031f8c4202208aff899c5,63f3cfca20052e4ae7554ebf,6453ce2475b550dfab1c8951,2023-05-04_17h24.58.850,ga_syllabified_check,2022.2.5,Win32,58.82352941,,,,,,,,,,,,,,./stim/p03_syllable_1_lakaduaisto_hit.wav,p03,lakaduaisto,hit,la-ka-duais-to,la-ka-duais-to,la-ka-du-ais-to,la-ka-dua-is-to,-0.377777771,-0.110185199,1,0,0,1.299,text_option_1,,0,65,65,9,1
5f9031f8c4202208aff899c5,63f3cfca20052e4ae7554ebf,6453ce2475b550dfab1c8951,2023-05-04_17h24.58.850,ga_syllabified_check,2022.2.5,Win32,58.82352941,,,,,,,,,,,,,,./stim/p07_syllable_1_paluguato_hit.wav,p07,paluguato,hit,pa-lu-gua-to,pa-lu-gua-to,pa-lu-gu-a-to, ,-0.359259252,-0.112037023,1,0,0,1.633,text_option_1,,0,66,66,163,1
5f9031f8c4202208aff899c5,63f3cfca20052e4ae7554ebf,6453ce2475b550dfab1c8951,2023-05-04_17h24.58.850,ga_syllabified_check,2022.2.5,Win32,58.82352941,,,,,,,,,,,,,,./stim/p05_syllable_1_lakaguaisto_hit.wav,p05,lakaguaisto,hit,la-ka-gais,la-ka-guais-to,la-ka-gu-ais-to,la-ka-gua-is-to,-0.344444452,-0.10555557,1,0,0,1.386,text_option_1,,0,67,67,81,1
5f9031f8c4202208aff899c5,63f3cfca20052e4ae7554ebf,6453ce2475b550dfab1c8951,2023-05-04_17h24.58.850,ga_syllabified_check,2022.2.5,Win32,58.82352941,,,,,,,,,,,,,,./stim/p05_syllable_1_lliape_hit.wav,p05,lliape,hit,liai-pe,llia-pe,lli-a-pe, ,-0.365740741,-0.104629658,1,0,0,0.429,text_option_1,,0,68,68,88,1
5f9031f8c4202208aff899c5,63f3cfca20052e4ae7554ebf,6453ce2475b550dfab1c8951,2023-05-04_17h24.58.850,ga_syllabified_check,2022.2.5,Win32,58.82352941,,,,,,,,,,,,,,./stim/p03_syllable_1_lakatuaisto_hit.wav,p03,lakatuaisto,hit,la-ka-tuais-to,la-ka-tuais-to,la-ka-tu-ais-to,la-ka-tua-is-to,-0.342592593,-0.108333376,1,0,0,1.502,text_option_1,,0,69,69,19,1
5f9031f8c4202208aff899c5,63f3cfca20052e4ae7554ebf,6453ce2475b550dfab1c8951,2023-05-04_17h24.58.850,ga_syllabified_check,2022.2.5,Win32,58.82352941,,,,,,,,,,,,,,./stim/p04_syllable_1_lakatiaisto_hit.wav,p04,lakatiaisto,hit,la-ka-kiais-to,la-ka-tiais-to,la-ka-ti-ais-to,la-ka-tia-is-to,-0.327777757,-0.101851852,1,0,0,1,text_option_1,,0,70,70,52,1
5f9031f8c4202208aff899c5,63f3cfca20052e4ae7554ebf,6453ce2475b550dfab1c8951,2023-05-04_17h24.58.850,ga_syllabified_check,2022.2.5,Win32,58.82352941,,,,,,,,,,,,,,./stim/p07_syllable_1_lakagiaisto_hit.wav,p07,lakagiaisto,hit,la-ka-gais-to,la-ka-giais-to,la-ka-gi-ais-to,la-ka-gia-is-to,-0.340740734,-0.104629658,1,0,0,1.966,text_option_1,,0,71,71,148,1
5f9031f8c4202208aff899c5,63f3cfca20052e4ae7554ebf,6453ce2475b550dfab1c8951,2023-05-04_17h24.58.850,ga_syllabified_check,2022.2.5,Win32,58.82352941,,,,,,,,,,,,,,./stim/p08_syllable_1_lakafiaisto_hit.wav,p08,lakafiaisto,hit,la-ka-fi-as-to,la-ka-fiais-to,la-ka-fi-ais-to,la-ka-fia-is-to,0.437037009,-0.09629631,1,0,0,5.985,text_option_2,,0,72,72,180,1
5f9031f8c4202208aff899c5,63f3cfca20052e4ae7554ebf,6453ce2475b550dfab1c8951,2023-05-04_17h24.58.850,ga_syllabified_check,2022.2.5,Win32,58.82352941,,,,,,,,,,,,,,./stim/p08_syllable_1_palufauto_hit.wav,p08,palufauto,hit,pa-lu-fau-to,pa-lu-fau-to,pa-lu-fa-u-to, ,-0.360185164,-0.113888917,1,0,0,4.734,text_option_1,,0,73,73,196,1
5f9031f8c4202208aff899c5,63f3cfca20052e4ae7554ebf,6453ce2475b550dfab1c8951,2023-05-04_17h24.58.850,ga_syllabified_check,2022.2.5,Win32,58.82352941,,,,,,,,,,,,,,./stim/p05_syllable_1_palutrauco_hit.wav,p05,palutrauco,hit,pa-lu-trai-co,pa-lu-trau-co,pa-lu-tra-u-co, ,-0.331481474,-0.10092594,1,0,0,1.989,text_option_1,,0,74,74,97,1
5f9031f8c4202208aff899c5,63f3cfca20052e4ae7554ebf,6453ce2475b550dfab1c8951,2023-05-04_17h24.58.850,ga_syllabified_check,2022.2.5,Win32,58.82352941,,,,,,,,,,,,,,./stim/p05_syllable_1_rausto_hit.wav,p05,rausto,hit,raus-to,raus-to,ra-us-to, ,-0.373148141,-0.099074116,1,0,0,0.35,text_option_1,,0,75,75,99,1
5f9031f8c4202208aff899c5,63f3cfca20052e4ae7554ebf,6453ce2475b550dfab1c8951,2023-05-04_17h24.58.850,ga_syllabified_check,2022.2.5,Win32,58.82352941,,,,,,,,,,,,,,./stim/p05_syllable_1_nhiape_hit.wav,p05,ñiape,hit,nhia-pe,ñia-pe,ñi-a-pe, ,-0.378703683,-0.118518547,1,0,0,0.15,text_option_1,,0,76,76,91,1
5f9031f8c4202208aff899c5,63f3cfca20052e4ae7554ebf,6453ce2475b550dfab1c8951,2023-05-04_17h24.58.850,ga_syllabified_check,2022.2.5,Win32,58.82352941,,,,,,,,,,,,,,./stim/p05_syllable_1_lakapiaisto_hit.wav,p05,lakapiaisto,hit,la-ka-pais-to,la-ka-piais-to,la-ka-pi-ais-to,la-ka-pia-is-to,-0.354629623,-0.107407393,1,0,0,1.867,text_option_1,,0,77,77,84,1
5f9031f8c4202208aff899c5,63f3cfca20052e4ae7554ebf,6453ce2475b550dfab1c8951,2023-05-04_17h24.58.850,ga_syllabified_check,2022.2.5,Win32,58.82352941,,,,,,,,,,,,,,./stim/p06_syllable_1_lakatuaisto_hit.wav,p06,lakatuaisto,hit,la-ka-tu-a-is,la-ka-tuais-to,la-ka-tu-ais-to,la-ka-tua-is-to,0.441666638,-0.106481481,1,0,0,6.033,text_option_2,,0,78,78,121,1
5f9031f8c4202208aff899c5,63f3cfca20052e4ae7554ebf,6453ce2475b550dfab1c8951,2023-05-04_17h24.58.850,ga_syllabified_check,2022.2.5,Win32,58.82352941,,,,,,,,,,,,,,./stim/p04_syllable_1_palufauto_hit.wav,p04,palufauto,hit,pa-lu-fau-to,pa-lu-fau-to,pa-lu-fa-u-to, ,-0.385185171,-0.118518547,1,0,0,1.948,text_option_1,,0,79,79,60,1
5f9031f8c4202208aff899c5,63f3cfca20052e4ae7554ebf,6453ce2475b550dfab1c8951,2023-05-04_17h24.58.850,ga_syllabified_check,2022.2.5,Win32,58.82352941,,,,,,,,,,,,,,./stim/p04_syllable_1_falutraigo_hit.wav,p04,falutraigo,hit,fa-lu-trai-go,fa-lu-trai-go,fa-lu-tra-i-go, ,-0.385185171,-0.111111111,1,0,0,0.708,text_option_1,,0,80,80,38,1
5f9031f8c4202208aff899c5,63f3cfca20052e4ae7554ebf,6453ce2475b550dfab1c8951,2023-05-04_17h24.58.850,ga_syllabified_check,2022.2.5,Win32,58.82352941,,,,,,,,,,,,,,./stim/p07_syllable_1_lliape_hit.wav,p07,lliape,hit,lliai-pe,llia-pe,lli-a-pe, ,-0.385185171,-0.111111111,1,0,0,1,text_option_1,,0,81,81,156,1
5f9031f8c4202208aff899c5,63f3cfca20052e4ae7554ebf,6453ce2475b550dfab1c8951,2023-05-04_17h24.58.850,ga_syllabified_check,2022.2.5,Win32,58.82352941,,,,,,,,,,,,,,./stim/p06_syllable_1_lakabiaisto_hit.wav,p06,lakabiaisto,hit,la-ka-bia-is-to,la-ka-biais-to,la-ka-bi-ais-to,la-ka-bia-is-to,0.021296325,-0.10092594,1,0,0,3.885,text_option_3,,0,82,82,108,1
5f9031f8c4202208aff899c5,63f3cfca20052e4ae7554ebf,6453ce2475b550dfab1c8951,2023-05-04_17h24.58.850,ga_syllabified_check,2022.2.5,Win32,58.82352941,,,,,,,,,,,,,,./stim/p04_syllable_1_lakatuaisto_hit.wav,p04,lakatuaisto,hit,la-ka-kuais-to,la-ka-tuais-to,la-ka-tu-ais-to,la-ka-tua-is-to,-0.346296275,-0.110185199,1,0,0,1.157,text_option_1,,0,83,83,53,1
5f9031f8c4202208aff899c5,63f3cfca20052e4ae7554ebf,6453ce2475b550dfab1c8951,2023-05-04_17h24.58.850,ga_syllabified_check,2022.2.5,Win32,58.82352941,,,,,,,,,,,,,,./stim/p08_syllable_1_manhiala_hit.wav,p08,mañiala,hit,ma-nhia-la,ma-ñia-la,ma-ñi-a-la, ,-0.366666653,-0.099074116,1,0,0,1.417,text_option_1,,0,84,84,191,1
5f9031f8c4202208aff899c5,63f3cfca20052e4ae7554ebf,6453ce2475b550dfab1c8951,2023-05-04_17h24.58.850,ga_syllabified_check,2022.2.5,Win32,58.82352941,,,,,,,,,,,,,,./stim/p08_syllable_1_costonhialo_hit.wav,p08,costoñialo,hit,cos-to-nhia-lo,cos-to-ñia-lo,cos-to-ñi-a-lo, ,-0.331481474,-0.101851852,1,0,0,1.683,text_option_1,,0,85,85,171,1
5f9031f8c4202208aff899c5,63f3cfca20052e4ae7554ebf,6453ce2475b550dfab1c8951,2023-05-04_17h24.58.850,ga_syllabified_check,2022.2.5,Win32,58.82352941,,,,,,,,,,,,,,./stim/p06_syllable_1_palumaisto_hit.wav,p06,palumaisto,hit,pa-lu-ma-is-to,pa-lu-mais-to,pa-lu-ma-is-to, ,0.466666751,-0.102777764,1,0,0,3.218,text_option_2,,0,86,86,130,1
5f9031f8c4202208aff899c5,63f3cfca20052e4ae7554ebf,6453ce2475b550dfab1c8951,2023-05-04_17h24.58.850,ga_syllabified_check,2022.2.5,Win32,58.82352941,,,,,,,,,,,,,,./stim/p06_syllable_1_nhiape_hit.wav,p06,ñiape,hit,nhi-a-pe,ñia-pe,ñi-a-pe, ,0.424074102,-0.111111111,1,0,0,1.484,text_option_2,,0,87,87,125,1
5f9031f8c4202208aff899c5,63f3cfca20052e4ae7554ebf,6453ce2475b550dfab1c8951,2023-05-04_17h24.58.850,ga_syllabified_check,2022.2.5,Win32,58.82352941,,,,,,,,,,,,,,./stim/p08_syllable_1_chiaba_hit.wav,p08,chiaba,hit,chi-a-ba,chia-ba,chi-a-ba, ,0.365740741,-0.097222222,1,0,0,1.267,text_option_2,,0,88,88,170,1
5f9031f8c4202208aff899c5,63f3cfca20052e4ae7554ebf,6453ce2475b550dfab1c8951,2023-05-04_17h24.58.850,ga_syllabified_check,2022.2.5,Win32,58.82352941,,,,,,,,,,,,,,./stim/p03_syllable_1_lakabuaisto_hit.wav,p03,lakabuaisto,hit,la-ka-buais-to,la-ka-buais-to,la-ka-bu-ais-to,la-ka-bua-is-to,-0.364814794,-0.106481481,1,0,0,1.268,text_option_1,,0,89,89,7,1
5f9031f8c4202208aff899c5,63f3cfca20052e4ae7554ebf,6453ce2475b550dfab1c8951,2023-05-04_17h24.58.850,ga_syllabified_check,2022.2.5,Win32,58.82352941,,,,,,,,,,,,,,./stim/p08_syllable_1_lakakiaisto_hit.wav,p08,lakakiaisto,hit,la-ka-ki-jas-to,la-ka-kiais-to,la-ka-ki-ais-to,la-ka-kia-is-to,0.395370342,-0.106481481,1,0,0,2.999,text_option_2,,0,90,90,184,1
5f9031f8c4202208aff899c5,63f3cfca20052e4ae7554ebf,6453ce2475b550dfab1c8951,2023-05-04_17h24.58.850,ga_syllabified_check,2022.2.5,Win32,58.82352941,,,,,,,,,,,,,,./stim/p05_syllable_1_mebochiana_hit.wav,p05,mebochiana,hit,me-cho-chai-na,me-bo-chia-na,me-bo-chi-a-na, ,-0.343518504,-0.099074116,1,0,0,7.501,text_option_1,,0,91,91,90,1
5f9031f8c4202208aff899c5,63f3cfca20052e4ae7554ebf,6453ce2475b550dfab1c8951,2023-05-04_17h24.58.850,ga_syllabified_check,2022.2.5,Win32,58.82352941,,,,,,,,,,,,,,./stim/p04_syllable_1_palutrauco_hit.wav,p04,palutrauco,hit,pa-lu-trau-co,pa-lu-trau-co,pa-lu-tra-u-co, ,-0.351851852,-0.093518504,1,0,0,1.005,text_option_1,,0,92,92,63,1
5f9031f8c4202208aff899c5,63f3cfca20052e4ae7554ebf,6453ce2475b550dfab1c8951,2023-05-04_17h24.58.850,ga_syllabified_check,2022.2.5,Win32,58.82352941,,,,,,,,,,,,,,./stim/p05_syllable_1_lakabuaisto_hit.wav,p05,lakabuaisto,hit,la-ka-buais-to,la-ka-buais-to,la-ka-bu-ais-to,la-ka-bua-is-to,-0.311111097,-0.10092594,1,0,0,1.25,text_option_1,,0,93,93,75,1
5f9031f8c4202208aff899c5,63f3cfca20052e4ae7554ebf,6453ce2475b550dfab1c8951,2023-05-04_17h24.58.850,ga_syllabified_check,2022.2.5,Win32,58.82352941,,,,,,,,,,,,,,./stim/p04_syllable_1_lliape_hit.wav,p04,lliape,hit,lia-pe,llia-pe,lli-a-pe, ,-0.375925912,-0.103703746,1,0,0,0.311,text_option_1,,0,94,94,54,1
5f9031f8c4202208aff899c5,63f3cfca20052e4ae7554ebf,6453ce2475b550dfab1c8951,2023-05-04_17h24.58.850,ga_syllabified_check,2022.2.5,Win32,58.82352941,,,,,,,,,,,,,,./stim/p07_syllable_1_lakaguaisto_hit.wav,p07,lakaguaisto,hit,la-ka-guais-to,la-ka-guais-to,la-ka-gu-ais-to,la-ka-gua-is-to,-0.343518504,-0.102777764,1,0,0,1.967,text_option_1,,0,95,95,149,1
5f9031f8c4202208aff899c5,63f3cfca20052e4ae7554ebf,6453ce2475b550dfab1c8951,2023-05-04_17h24.58.850,ga_syllabified_check,2022.2.5,Win32,58.82352941,,,,,,,,,,,,,,./stim/p07_syllable_1_lakaduaisto_hit.wav,p07,lakaduaisto,hit,la-ka-duais-to,la-ka-duais-to,la-ka-du-ais-to,la-ka-dua-is-to,-0.337962963,-0.101851852,1,0,0,1.9,text_option_1,,0,96,96,145,1
5f9031f8c4202208aff899c5,63f3cfca20052e4ae7554ebf,6453ce2475b550dfab1c8951,2023-05-04_17h24.58.850,ga_syllabified_check,2022.2.5,Win32,58.82352941,,,,,,,,,,,,,,./stim/p06_syllable_1_palutrauco_hit.wav,p06,palutrauco,hit,pa-lu-tra-u-co,pa-lu-trau-co,pa-lu-tra-u-co, ,0.435185185,-0.109259288,1,0,0,2.423,text_option_2,,0,97,97,131,1
5f9031f8c4202208aff899c5,63f3cfca20052e4ae7554ebf,6453ce2475b550dfab1c8951,2023-05-04_17h24.58.850,ga_syllabified_check,2022.2.5,Win32,58.82352941,,,,,,,,,,,,,,./stim/p03_syllable_1_faluduako_hit.wav,p03,faluduako,hit,fa-lu-dua-ko,fa-lu-dua-ko,fa-lu-du-a-ko, ,-0.401851831,-0.101851852,1,0,0,1.341,text_option_1,,0,98,98,2,1
5f9031f8c4202208aff899c5,63f3cfca20052e4ae7554ebf,6453ce2475b550dfab1c8951,2023-05-04_17h24.58.850,ga_syllabified_check,2022.2.5,Win32,58.82352941,,,,,,,,,,,,,,./stim/p04_syllable_1_rausto_hit.wav,p04,rausto,hit,raus-to,raus-to,ra-us-to, ,-0.409259266,-0.104629658,1,0,0,0.313,text_option_1,,0,99,99,65,1
5f9031f8c4202208aff899c5,63f3cfca20052e4ae7554ebf,6453ce2475b550dfab1c8951,2023-05-04_17h24.58.850,ga_syllabified_check,2022.2.5,Win32,58.82352941,,,,,,,,,,,,,,./stim/p05_syllable_1_ruyiola_hit.wav,p05,ruyiola,hit,ru-yio-la,ru-yio-la,ru-yi-o-la, ,-0.38703703,-0.101851852,1,0,0,0.718,text_option_1,,0,100,100,100,1
5f9031f8c4202208aff899c5,63f3cfca20052e4ae7554ebf,6453ce2475b550dfab1c8951,2023-05-04_17h24.58.850,ga_syllabified_check,2022.2.5,Win32,58.82352941,,,,,,,,,,,,,,./stim/p05_syllable_1_payielo_hit.wav,p05,payielo,hit,pai-yu-we-lo,pa-yie-lo,pa-yi-e-lo, ,-0.369444423,-0.102777764,1,0,0,0.734,text_option_1,,0,101,101,98,1
5f9031f8c4202208aff899c5,63f3cfca20052e4ae7554ebf,6453ce2475b550dfab1c8951,2023-05-04_17h24.58.850,ga_syllabified_check,2022.2.5,Win32,58.82352941,,,,,,,,,,,,,,./stim/p06_syllable_1_lakakiaisto_hit.wav,p06,lakakiaisto,hit,la-ka-kia-is-to,la-ka-kiais-to,la-ka-ki-ais-to,la-ka-kia-is-to,0.077777792,-0.101851852,1,0,0,3.901,text_option_3,,0,102,102,116,1
5f9031f8c4202208aff899c5,63f3cfca20052e4ae7554ebf,6453ce2475b550dfab1c8951,2023-05-04_17h24.58.850,ga_syllabified_check,2022.2.5,Win32,58.82352941,,,,,,,,,,,,,,./stim/p08_syllable_1_lakatuaisto_hit.wav,p08,lakatuaisto,hit,la-ka-tu-i-jis,la-ka-tuais-to,la-ka-tu-ais-to,la-ka-tua-is-to,0.435185185,-0.103703746,1,0,0,4.883,text_option_2,,0,103,103,189,1
5f9031f8c4202208aff899c5,63f3cfca20052e4ae7554ebf,6453ce2475b550dfab1c8951,2023-05-04_17h24.58.850,ga_syllabified_check,2022.2.5,Win32,58.82352941,,,,,,,,,,,,,,./stim/p04_syllable_1_lakabiaisto_hit.wav,p04,lakabiaisto,hit,la-ka-biais-to,la-ka-biais-to,la-ka-bi-ais-to,la-ka-bia-is-to,-0.402777778,-0.112963005,1,0,0,1.634,text_option_1,,0,104,104,40,1
5f9031f8c4202208aff899c5,63f3cfca20052e4ae7554ebf,6453ce2475b550dfab1c8951,2023-05-04_17h24.58.850,ga_syllabified_check,2022.2.5,Win32,58.82352941,,,,,,,,,,,,,,./stim/p08_syllable_1_lakaduaisto_hit.wav,p08,lakaduaisto,hit,la-ka-du-ais-to,la-ka-duais-to,la-ka-du-ais-to,la-ka-dua-is-to,0.42777775,-0.103703746,1,0,0,2.749,text_option_2,,0,105,105,179,1
5f9031f8c4202208aff899c5,63f3cfca20052e4ae7554ebf,6453ce2475b550dfab1c8951,2023-05-04_17h24.58.850,ga_syllabified_check,2022.2.5,Win32,58.82352941,,,,,,,,,,,,,,./stim/p04_syllable_1_palufauro_hit.wav,p04,palufauro,hit,pa-lu-fau-ro,pa-lu-fau-ro,pa-lu-fa-u-ro, ,-0.393518519,-0.107407393,1,0,0,1.084,text_option_1,,0,106,106,59,1
5f9031f8c4202208aff899c5,63f3cfca20052e4ae7554ebf,6453ce2475b550dfab1c8951,2023-05-04_17h24.58.850,ga_syllabified_check,2022.2.5,Win32,58.82352941,,,,,,,,,,,,,,./stim/p07_syllable_1_lakatiaisto_hit.wav,p07,lakatiaisto,hit,la-ka-tiai-sto,la-ka-tiais-to,la-ka-ti-ais-to,la-ka-tia-is-to,-0.349074081,-0.107407393,1,0,0,2.517,text_option_1,,0,107,107,154,1
5f9031f8c4202208aff899c5,63f3cfca20052e4ae7554ebf,6453ce2475b550dfab1c8951,2023-05-04_17h24.58.850,ga_syllabified_check,2022.2.5,Win32,58.82352941,,,,,,,,,,,,,,./stim/p08_syllable_1_payielo_hit.wav,p08,payielo,hit,pa-yie-lo,pa-yie-lo,pa-yi-e-lo, ,-0.368518511,-0.102777764,1,0,0,1.65,text_option_1,,0,108,108,200,1
5f9031f8c4202208aff899c5,63f3cfca20052e4ae7554ebf,6453ce2475b550dfab1c8951,2023-05-04_17h24.58.850,ga_syllabified_check,2022.2.5,Win32,58.82352941,,,,,,,,,,,,,,./stim/p08_syllable_1_lakapuaisto_hit.wav,p08,lakapuaisto,hit,la-ka-pu-as-to,la-ka-puais-to,la-ka-pu-ais-to,la-ka-pua-is-to,0.400925954,-0.10555557,1,0,0,2.766,text_option_2,,0,109,109,187,1
5f9031f8c4202208aff899c5,63f3cfca20052e4ae7554ebf,6453ce2475b550dfab1c8951,2023-05-04_17h24.58.850,ga_syllabified_check,2022.2.5,Win32,58.82352941,,,,,,,,,,,,,,./stim/p06_syllable_1_faluduako_hit.wav,p06,faluduako,hit,fa-lu-dua-ko,fa-lu-dua-ko,fa-lu-du-a-ko, ,-0.397222201,-0.109259288,1,0,0,3.734,text_option_1,,0,110,110,104,1
5f9031f8c4202208aff899c5,63f3cfca20052e4ae7554ebf,6453ce2475b550dfab1c8951,2023-05-04_17h24.58.850,ga_syllabified_check,2022.2.5,Win32,58.82352941,,,,,,,,,,,,,,./stim/p03_syllable_1_chiaba_hit.wav,p03,chiaba,hit,chia-ba,chia-ba,chi-a-ba, ,-0.395370377,-0.103703746,1,0,0,0.512,text_option_1,,0,111,111,0,1
5f9031f8c4202208aff899c5,63f3cfca20052e4ae7554ebf,6453ce2475b550dfab1c8951,2023-05-04_17h24.58.850,ga_syllabified_check,2022.2.5,Win32,58.82352941,,,,,,,,,,,,,,./stim/p03_syllable_1_mebochiana_hit.wav,p03,mebochiana,hit,me-bo-chia-na,me-bo-chia-na,me-bo-chi-a-na, ,-0.322222215,-0.110185199,1,0,0,1.25,text_option_1,,0,112,112,22,1
5f9031f8c4202208aff899c5,63f3cfca20052e4ae7554ebf,6453ce2475b550dfab1c8951,2023-05-04_17h24.58.850,ga_syllabified_check,2022.2.5,Win32,58.82352941,,,,,,,,,,,,,,./stim/p03_syllable_1_costonhialo_hit.wav,p03,costoñialo,hit,cos-to-nhia-lo,cos-to-ñia-lo,cos-to-ñi-a-lo, ,-0.318518497,-0.10555557,1,0,0,1.321,text_option_1,,0,113,113,1,1
5f9031f8c4202208aff899c5,63f3cfca20052e4ae7554ebf,6453ce2475b550dfab1c8951,2023-05-04_17h24.58.850,ga_syllabified_check,2022.2.5,Win32,58.82352941,,,,,,,,,,,,,,./stim/p05_syllable_1_costonhialo_hit.wav,p05,costoñialo,hit,cos-to-nhia-lo,cos-to-ñia-lo,cos-to-ñi-a-lo, ,-0.326851845,-0.108333376,1,0,0,1.063,text_option_1,,0,114,114,69,1
5f9031f8c4202208aff899c5,63f3cfca20052e4ae7554ebf,6453ce2475b550dfab1c8951,2023-05-04_17h24.58.850,ga_syllabified_check,2022.2.5,Win32,58.82352941,,,,,,,,,,,,,,./stim/p04_syllable_1_lakapiaisto_hit.wav,p04,lakapiaisto,hit,la-ka-piais-to,la-ka-piais-to,la-ka-pi-ais-to,la-ka-pia-is-to,-0.326851845,-0.108333376,1,0,0,1.03,text_option_1,,0,115,115,50,1
5f9031f8c4202208aff899c5,63f3cfca20052e4ae7554ebf,6453ce2475b550dfab1c8951,2023-05-04_17h24.58.850,ga_syllabified_check,2022.2.5,Win32,58.82352941,,,,,,,,,,,,,,./stim/p05_syllable_1_palufauro_hit.wav,p05,palufauro,hit,pa-lu-fau-ro,pa-lu-fau-ro,pa-lu-fa-u-ro, ,-0.326851845,-0.108333376,1,0,0,0.884,text_option_1,,0,116,116,93,1
5f9031f8c4202208aff899c5,63f3cfca20052e4ae7554ebf,6453ce2475b550dfab1c8951,2023-05-04_17h24.58.850,ga_syllabified_check,2022.2.5,Win32,58.82352941,,,,,,,,,,,,,,./stim/p05_syllable_1_lakaduaisto_hit.wav,p05,lakaduaisto,hit,la-ka-dais-to,la-ka-duais-to,la-ka-du-ais-to,la-ka-dua-is-to,-0.326851845,-0.108333376,1,0,0,0.867,text_option_1,,0,117,117,77,1
5f9031f8c4202208aff899c5,63f3cfca20052e4ae7554ebf,6453ce2475b550dfab1c8951,2023-05-04_17h24.58.850,ga_syllabified_check,2022.2.5,Win32,58.82352941,,,,,,,,,,,,,,./stim/p06_syllable_1_lakagiaisto_hit.wav,p06,lakagiaisto,hit,la-ka-gia-is-to,la-ka-giais-to,la-ka-gi-ais-to,la-ka-gia-is-to,0.066666709,-0.109259288,1,0,0,3.817,text_option_3,,0,118,118,114,1
5f9031f8c4202208aff899c5,63f3cfca20052e4ae7554ebf,6453ce2475b550dfab1c8951,2023-05-04_17h24.58.850,ga_syllabified_check,2022.2.5,Win32,58.82352941,,,,,,,,,,,,,,./stim/p08_syllable_1_lakaguaisto_hit.wav,p08,lakaguaisto,hit,la-ka-gu-ais-to,la-ka-guais-to,la-ka-gu-ais-to,la-ka-gua-is-to,0.416666667,-0.112037023,1,0,0,2.85,text_option_2,,0,119,119,183,1
5f9031f8c4202208aff899c5,63f3cfca20052e4ae7554ebf,6453ce2475b550dfab1c8951,2023-05-04_17h24.58.850,ga_syllabified_check,2022.2.5,Win32,58.82352941,,,,,,,,,,,,,,./stim/p04_syllable_1_mebochiana_hit.wav,p04,mebochiana,hit,me-bo-chia-na,me-bo-chia-na,me-bo-chi-a-na, ,-0.356481481,-0.107407393,1,0,0,1.134,text_option_1,,0,120,120,56,1
5f9031f8c4202208aff899c5,63f3cfca20052e4ae7554ebf,6453ce2475b550dfab1c8951,2023-05-04_17h24.58.850,ga_syllabified_check,2022.2.5,Win32,58.82352941,,,,,,,,,,,,,,./stim/p08_syllable_1_ruyiola_hit.wav,p08,ruyiola,hit,ru-yio-la,ru-yio-la,ru-yi-o-la, ,-0.365740741,-0.112037023,1,0,0,0.901,text_option_1,,0,121,121,202,1
5f9031f8c4202208aff899c5,63f3cfca20052e4ae7554ebf,6453ce2475b550dfab1c8951,2023-05-04_17h24.58.850,ga_syllabified_check,2022.2.5,Win32,58.82352941,,,,,,,,,,,,,,./stim/p05_syllable_1_flauro_hit.wav,p05,flauro,hit,fa-lu-ro,flau-ro,fla-u-ro, ,0.384259259,-0.10555557,1,0,0,9.951,text_option_2,,0,122,122,73,1
5f9031f8c4202208aff899c5,63f3cfca20052e4ae7554ebf,6453ce2475b550dfab1c8951,2023-05-04_17h24.58.850,ga_syllabified_check,2022.2.5,Win32,58.82352941,,,,,,,,,,,,,,./stim/p07_syllable_1_flauro_hit.wav,p07,flauro,hit,flau-ro,flau-ro,fla-u-ro, ,-0.39907406,-0.100000028,1,0,0,0.899,text_option_1,,0,123,123,141,1
5f9031f8c4202208aff899c5,63f3cfca20052e4ae7554ebf,6453ce2475b550dfab1c8951,2023-05-04_17h24.58.850,ga_syllabified_check,2022.2.5,Win32,58.82352941,,,,,,,,,,,,,,./stim/p05_syllable_1_paluguato_hit.wav,p05,paluguato,hit,pa-lu-gau-to,pa-lu-gua-to,pa-lu-gu-a-to, ,-0.368518511,-0.113888917,1,0,0,2.85,text_option_1,,0,124,124,95,1
5f9031f8c4202208aff899c5,63f3cfca20052e4ae7554ebf,6453ce2475b550dfab1c8951,2023-05-04_17h24.58.850,ga_syllabified_check,2022.2.5,Win32,58.82352941,,,,,,,,,,,,,,./stim/p03_syllable_1_lakakiaisto_hit.wav,p03,lakakiaisto,hit,la-ka-kiais-to,la-ka-kiais-to,la-ka-ki-ais-to,la-ka-kia-is-to,-0.368518511,-0.113888917,1,0,0,1.451,text_option_1,,0,125,125,14,1
5f9031f8c4202208aff899c5,63f3cfca20052e4ae7554ebf,6453ce2475b550dfab1c8951,2023-05-04_17h24.58.850,ga_syllabified_check,2022.2.5,Win32,58.82352941,,,,,,,,,,,,,,./stim/p03_syllable_1_lakatiaisto_hit.wav,p03,lakatiaisto,hit,la-ka-tiais-to,la-ka-tiais-to,la-ka-ti-ais-to,la-ka-tia-is-to,-0.368518511,-0.113888917,1,0,0,1.3,text_option_1,,0,126,126,18,1
5f9031f8c4202208aff899c5,63f3cfca20052e4ae7554ebf,6453ce2475b550dfab1c8951,2023-05-04_17h24.58.850,ga_syllabified_check,2022.2.5,Win32,58.82352941,,,,,,,,,,,,,,./stim/p07_syllable_1_lakapiaisto_hit.wav,p07,lakapiaisto,hit,la-ka-pia-sto,la-ka-piais-to,la-ka-pi-ais-to,la-ka-pia-is-to,-0.368518511,-0.113888917,1,0,0,2.451,text_option_1,,0,127,127,152,1
5f9031f8c4202208aff899c5,63f3cfca20052e4ae7554ebf,6453ce2475b550dfab1c8951,2023-05-04_17h24.58.850,ga_syllabified_check,2022.2.5,Win32,58.82352941,,,,,,,,,,,,,,./stim/p07_syllable_1_lakapuaisto_hit.wav,p07,lakapuaisto,hit,la-ka-puais-to,la-ka-puais-to,la-ka-pu-ais-to,la-ka-pua-is-to,-0.368518511,-0.113888917,1,0,0,2.333,text_option_1,,0,128,128,153,1
5f9031f8c4202208aff899c5,63f3cfca20052e4ae7554ebf,6453ce2475b550dfab1c8951,2023-05-04_17h24.58.850,ga_syllabified_check,2022.2.5,Win32,58.82352941,,,,,,,,,,,,,,./stim/p08_syllable_1_tuliafo_hit.wav,p08,tuliafo,hit,tu-li-a-fo,tu-lia-fo,tu-li-a-fo, ,0.400925954,-0.10092594,1,0,0,1.467,text_option_2,,0,129,129,203,1
5f9031f8c4202208aff899c5,63f3cfca20052e4ae7554ebf,6453ce2475b550dfab1c8951,2023-05-04_17h24.58.850,ga_syllabified_check,2022.2.5,Win32,58.82352941,,,,,,,,,,,,,,./stim/p06_syllable_1_costonhialo_hit.wav,p06,costoñialo,hit,cos-to-nhia-lo,cos-to-ñia-lo,cos-to-ñi-a-lo, ,-0.348148134,-0.107407393,1,0,0,2.512,text_option_1,,0,130,130,103,1
5f9031f8c4202208aff899c5,63f3cfca20052e4ae7554ebf,6453ce2475b550dfab1c8951,2023-05-04_17h24.58.850,ga_syllabified_check,2022.2.5,Win32,58.82352941,,,,,,,,,,,,,,./stim/p04_syllable_1_lakapuaisto_hit.wav,p04,lakapuaisto,hit,la-ka-puais-to,la-ka-puais-to,la-ka-pu-ais-to,la-ka-pua-is-to,-0.348148134,-0.107407393,1,0,0,0.733,text_option_1,,0,131,131,51,1
5f9031f8c4202208aff899c5,63f3cfca20052e4ae7554ebf,6453ce2475b550dfab1c8951,2023-05-04_17h24.58.850,ga_syllabified_check,2022.2.5,Win32,58.82352941,,,,,,,,,,,,,,./stim/p06_syllable_1_lakafiaisto_hit.wav,p06,lakafiaisto,hit,la-ka-fia-is-to,la-ka-fiais-to,la-ka-fi-ais-to,la-ka-fia-is-to,0.058333362,-0.107407393,1,0,0,3.483,text_option_3,,0,132,132,112,1
5f9031f8c4202208aff899c5,63f3cfca20052e4ae7554ebf,6453ce2475b550dfab1c8951,2023-05-04_17h24.58.850,ga_syllabified_check,2022.2.5,Win32,58.82352941,,,,,,,,,,,,,,./stim/p05_syllable_1_lakabiaisto_hit.wav,p05,lakabiaisto,hit,la-ka-bi-ais-to,la-ka-biais-to,la-ka-bi-ais-to,la-ka-bia-is-to,0.382407436,-0.110185199,1,0,0,4.401,text_option_2,,0,133,133,74,1
5f9031f8c4202208aff899c5,63f3cfca20052e4ae7554ebf,6453ce2475b550dfab1c8951,2023-05-04_17h24.58.850,ga_syllabified_check,2022.2.5,Win32,58.82352941,,,,,,,,,,,,,,./stim/p03_syllable_1_lakafuaisto_hit.wav,p03,lakafuaisto,hit,la-ka-fuais-to,la-ka-fuais-to,la-ka-fu-ais-to,la-ka-fua-is-to,-0.40370369,-0.095370399,1,0,0,1.7,text_option_1,,0,134,134,11,1
5f9031f8c4202208aff899c5,63f3cfca20052e4ae7554ebf,6453ce2475b550dfab1c8951,2023-05-04_17h24.58.850,ga_syllabified_check,2022.2.5,Win32,58.82352941,,,,,,,,,,,,,,./stim/p06_syllable_1_palufauto_hit.wav,p06,palufauto,hit,pa-lu-fau-to,pa-lu-fau-to,pa-lu-fa-u-to, ,-0.334259245,-0.098148134,1,0,0,3.082,text_option_1,,0,135,135,128,1
5f9031f8c4202208aff899c5,63f3cfca20052e4ae7554ebf,6453ce2475b550dfab1c8951,2023-05-04_17h24.58.850,ga_syllabified_check,2022.2.5,Win32,58.82352941,,,,,,,,,,,,,,./stim/p06_syllable_1_lakatiaisto_hit.wav,p06,lakatiaisto,hit,la-ka-pia-is-to,la-ka-tiais-to,la-ka-ti-ais-to,la-ka-tia-is-to,0.073148162,-0.098148134,1,0,0,3.15,text_option_3,,0,136,136,120,1
5f9031f8c4202208aff899c5,63f3cfca20052e4ae7554ebf,6453ce2475b550dfab1c8951,2023-05-04_17h24.58.850,ga_syllabified_check,2022.2.5,Win32,58.82352941,,,,,,,,,,,,,,./stim/p08_syllable_1_palufauro_hit.wav,p08,palufauro,hit,pa-lu-fau-ro,pa-lu-fau-ro,pa-lu-fa-u-ro, ,-0.329629616,-0.103703746,1,0,0,2.451,text_option_1,,0,137,137,195,1
5f9031f8c4202208aff899c5,63f3cfca20052e4ae7554ebf,6453ce2475b550dfab1c8951,2023-05-04_17h24.58.850,ga_syllabified_check,2022.2.5,Win32,58.82352941,,,,,,,,,,,,,,./stim/p08_syllable_1_palutrauco_hit.wav,p08,palutrauco,hit,pa-lu-trau-ko,pa-lu-trau-co,pa-lu-tra-u-co, ,-0.329629616,-0.103703746,1,0,0,2.217,text_option_1,,0,138,138,199,1
5f9031f8c4202208aff899c5,63f3cfca20052e4ae7554ebf,6453ce2475b550dfab1c8951,2023-05-04_17h24.58.850,ga_syllabified_check,2022.2.5,Win32,58.82352941,,,,,,,,,,,,,,./stim/p05_syllable_1_pachialo_hit.wav,p05,pachialo,hit,pan-chia-lo,pa-chia-lo,pa-chi-a-lo, ,-0.329629616,-0.103703746,1,0,0,1.035,text_option_1,,0,139,139,92,1
5f9031f8c4202208aff899c5,63f3cfca20052e4ae7554ebf,6453ce2475b550dfab1c8951,2023-05-04_17h24.58.850,ga_syllabified_check,2022.2.5,Win32,58.82352941,,,,,,,,,,,,,,./stim/p07_syllable_1_lakadiaisto_hit.wav,p07,lakadiaisto,hit,la-ka-dia-is-to,la-ka-diais-to,la-ka-di-ais-to,la-ka-dia-is-to,0.012962977,-0.103703746,1,0,0,3.251,text_option_3,,0,140,140,144,1
5f9031f8c4202208aff899c5,63f3cfca20052e4ae7554ebf,6453ce2475b550dfab1c8951,2023-05-04_17h24.58.850,ga_syllabified_check,2022.2.5,Win32,58.82352941,,,,,,,,,,,,,,./stim/p03_syllable_1_lakagiaisto_hit.wav,p03,lakagiaisto,hit,la-ka-giais-to,la-ka-giais-to,la-ka-gi-ais-to,la-ka-gia-is-to,-0.356481481,-0.101851852,1,0,0,1.766,text_option_1,,0,141,141,12,1
5f9031f8c4202208aff899c5,63f3cfca20052e4ae7554ebf,6453ce2475b550dfab1c8951,2023-05-04_17h24.58.850,ga_syllabified_check,2022.2.5,Win32,58.82352941,,,,,,,,,,,,,,./stim/p05_syllable_1_palufauto_hit.wav,p05,palufauto,hit,pa-lu-fau-to,pa-lu-fau-to,pa-lu-fa-u-to, ,-0.310185185,-0.097222222,1,0,0,1.55,text_option_1,,0,142,142,94,1
5f9031f8c4202208aff899c5,63f3cfca20052e4ae7554ebf,6453ce2475b550dfab1c8951,2023-05-04_17h24.58.850,ga_syllabified_check,2022.2.5,Win32,58.82352941,,,,,,,,,,,,,,./stim/p05_syllable_1_lakafiaisto_hit.wav,p05,lakafiaisto,hit,la-ka-fi-ais-to,la-ka-fiais-to,la-ka-fi-ais-to,la-ka-fia-is-to,0.40833339,-0.104629658,1,0,0,3.816,text_option_2,,0,143,143,78,1
5f9031f8c4202208aff899c5,63f3cfca20052e4ae7554ebf,6453ce2475b550dfab1c8951,2023-05-04_17h24.58.850,ga_syllabified_check,2022.2.5,Win32,58.82352941,,,,,,,,,,,,,,./stim/p07_syllable_1_rausto_hit.wav,p07,rausto,hit,raus-to,raus-to,ra-us-to, ,-0.425925926,-0.101851852,1,0,0,1.315,text_option_1,,0,144,144,167,1
5f9031f8c4202208aff899c5,63f3cfca20052e4ae7554ebf,6453ce2475b550dfab1c8951,2023-05-04_17h24.58.850,ga_syllabified_check,2022.2.5,Win32,58.82352941,,,,,,,,,,,,,,./stim/p06_syllable_1_mebochiana_hit.wav,p06,mebochiana,hit,me-bo-shi-a-na,me-bo-chia-na,me-bo-chi-a-na, ,0.446296268,-0.109259288,1,0,0,3.035,text_option_2,,0,145,145,124,1
5f9031f8c4202208aff899c5,63f3cfca20052e4ae7554ebf,6453ce2475b550dfab1c8951,2023-05-04_17h24.58.850,ga_syllabified_check,2022.2.5,Win32,58.82352941,,,,,,,,,,,,,,./stim/p06_syllable_1_lakadiaisto_hit.wav,p06,lakadiaisto,hit,la-ka-dia-is-to,la-ka-diais-to,la-ka-di-ais-to,la-ka-dia-is-to,0.062962991,-0.10092594,1,0,0,3.568,text_option_3,,0,146,146,110,1
5f9031f8c4202208aff899c5,63f3cfca20052e4ae7554ebf,6453ce2475b550dfab1c8951,2023-05-04_17h24.58.850,ga_syllabified_check,2022.2.5,Win32,58.82352941,,,,,,,,,,,,,,./stim/p03_syllable_1_pachialo_hit.wav,p03,pachialo,hit,pa-chia-lo,pa-chia-lo,pa-chi-a-lo, ,-0.375925912,-0.111111111,1,0,0,1.108,text_option_1,,0,147,147,24,1
5f9031f8c4202208aff899c5,63f3cfca20052e4ae7554ebf,6453ce2475b550dfab1c8951,2023-05-04_17h24.58.850,ga_syllabified_check,2022.2.5,Win32,58.82352941,,,,,,,,,,,,,,./stim/p03_syllable_1_falutraigo_hit.wav,p03,falutraigo,hit,fa-lu-trai-go,fa-lu-trai-go,fa-lu-tra-i-go, ,-0.324999986,-0.111111111,1,0,0,1.266,text_option_1,,0,148,148,4,1
5f9031f8c4202208aff899c5,63f3cfca20052e4ae7554ebf,6453ce2475b550dfab1c8951,2023-05-04_17h24.58.850,ga_syllabified_check,2022.2.5,Win32,58.82352941,,,,,,,,,,,,,,./stim/p03_syllable_1_lakabiaisto_hit.wav,p03,lakabiaisto,hit,la-ka-biais-to,la-ka-biais-to,la-ka-bi-ais-to,la-ka-bia-is-to,-0.328703704,-0.108333376,1,0,0,1.15,text_option_1,,0,149,149,6,1
5f9031f8c4202208aff899c5,63f3cfca20052e4ae7554ebf,6453ce2475b550dfab1c8951,2023-05-04_17h24.58.850,ga_syllabified_check,2022.2.5,Win32,58.82352941,,,,,,,,,,,,,,./stim/p06_syllable_1_tuliafo_hit.wav,p06,tuliafo,hit,tu-li-a-fo,tu-lia-fo,tu-li-a-fo, ,0.415740826,-0.10555557,1,0,0,1.55,text_option_2,,0,150,150,135,1
5f9031f8c4202208aff899c5,63f3cfca20052e4ae7554ebf,6453ce2475b550dfab1c8951,2023-05-04_17h24.58.850,ga_syllabified_check,2022.2.5,Win32,58.82352941,,,,,,,,,,,,,,./stim/p08_syllable_1_faluduako_hit.wav,p08,faluduako,hit,fa-lu-duai-ko,fa-lu-dua-ko,fa-lu-du-a-ko, ,-0.410185178,-0.097222222,1,0,0,3.066,text_option_1,,0,151,151,172,1
5f9031f8c4202208aff899c5,63f3cfca20052e4ae7554ebf,6453ce2475b550dfab1c8951,2023-05-04_17h24.58.850,ga_syllabified_check,2022.2.5,Win32,58.82352941,,,,,,,,,,,,,,./stim/p07_syllable_1_chiaba_hit.wav,p07,chiaba,hit,chia-ba,chia-ba,chi-a-ba, ,-0.393518519,-0.116666653,1,0,0,0.499,text_option_1,,0,152,152,136,1
5f9031f8c4202208aff899c5,63f3cfca20052e4ae7554ebf,6453ce2475b550dfab1c8951,2023-05-04_17h24.58.850,ga_syllabified_check,2022.2.5,Win32,58.82352941,,,,,,,,,,,,,,./stim/p08_syllable_1_lakatiaisto_hit.wav,p08,lakatiaisto,hit,la-ka-ti-as-to,la-ka-tiais-to,la-ka-ti-ais-to,la-ka-tia-is-to,0.465740769,-0.104629658,1,0,0,6,text_option_2,,0,153,153,188,1
5f9031f8c4202208aff899c5,63f3cfca20052e4ae7554ebf,6453ce2475b550dfab1c8951,2023-05-04_17h24.58.850,ga_syllabified_check,2022.2.5,Win32,58.82352941,,,,,,,,,,,,,,./stim/p08_syllable_1_paluguato_hit.wav,p08,paluguato,hit,pa-lu-gua-to,pa-lu-gua-to,pa-lu-gu-a-to, ,-0.349999993,-0.108333376,1,0,0,1.983,text_option_1,,0,154,154,197,1
5f9031f8c4202208aff899c5,63f3cfca20052e4ae7554ebf,6453ce2475b550dfab1c8951,2023-05-04_17h24.58.850,ga_syllabified_check,2022.2.5,Win32,58.82352941,,,,,,,,,,,,,,./stim/p04_syllable_1_flauro_hit.wav,p04,flauro,hit,flau-ro,flau-ro,fla-u-ro, ,-0.409259266,-0.111111111,1,0,0,0.534,text_option_1,,0,155,155,39,1
5f9031f8c4202208aff899c5,63f3cfca20052e4ae7554ebf,6453ce2475b550dfab1c8951,2023-05-04_17h24.58.850,ga_syllabified_check,2022.2.5,Win32,58.82352941,,,,,,,,,,,,,,./stim/p04_syllable_1_tuliafo_hit.wav,p04,tuliafo,hit,tu-lia-fo,tu-lia-fo,tu-li-a-fo, ,-0.39444443,-0.108333376,1,0,0,0.57,text_option_1,,0,156,156,67,1
5f9031f8c4202208aff899c5,63f3cfca20052e4ae7554ebf,6453ce2475b550dfab1c8951,2023-05-04_17h24.58.850,ga_syllabified_check,2022.2.5,Win32,58.82352941,,,,,,,,,,,,,,./stim/p05_syllable_1_lakakuaisto_hit.wav,p05,lakakuaisto,hit,la-ka-kais-to,la-ka-kuais-to,la-ka-ku-ais-to,la-ka-kua-is-to,-0.36296297,-0.103703746,1,0,0,1.084,text_option_1,,0,157,157,83,1
5f9031f8c4202208aff899c5,63f3cfca20052e4ae7554ebf,6453ce2475b550dfab1c8951,2023-05-04_17h24.58.850,ga_syllabified_check,2022.2.5,Win32,58.82352941,,,,,,,,,,,,,,./stim/p04_syllable_1_ruyiola_hit.wav,p04,ruyiola,hit,ru-yio-la,ru-yio-la,ru-yi-o-la, ,-0.372222229,-0.109259288,1,0,0,0.596,text_option_1,,0,158,158,66,1
5f9031f8c4202208aff899c5,63f3cfca20052e4ae7554ebf,6453ce2475b550dfab1c8951,2023-05-04_17h24.58.850,ga_syllabified_check,2022.2.5,Win32,58.82352941,,,,,,,,,,,,,,./stim/p08_syllable_1_lakakuaisto_hit.wav,p08,lakakuaisto,hit,la-ka-ku-ais-to,la-ka-kuais-to,la-ka-ku-ais-to,la-ka-kua-is-to,0.437037009,-0.102777764,1,0,0,2.855,text_option_2,,0,159,159,185,1
5f9031f8c4202208aff899c5,63f3cfca20052e4ae7554ebf,6453ce2475b550dfab1c8951,2023-05-04_17h24.58.850,ga_syllabified_check,2022.2.5,Win32,58.82352941,,,,,,,,,,,,,,./stim/p08_syllable_1_rausto_hit.wav,p08,rausto,hit,raus-to,raus-to,ra-us-to, ,-0.423148155,-0.093518504,1,0,0,0.782,text_option_1,,0,160,160,201,1
5f9031f8c4202208aff899c5,63f3cfca20052e4ae7554ebf,6453ce2475b550dfab1c8951,2023-05-04_17h24.58.850,ga_syllabified_check,2022.2.5,Win32,58.82352941,,,,,,,,,,,,,,./stim/p07_syllable_1_lakabiaisto_hit.wav,p07,lakabiaisto,hit,la-ka-bais-to,la-ka-biais-to,la-ka-bi-ais-to,la-ka-bia-is-to,-0.338888875,-0.104629658,1,0,0,2.85,text_option_1,,0,161,161,142,1
5f9031f8c4202208aff899c5,63f3cfca20052e4ae7554ebf,6453ce2475b550dfab1c8951,2023-05-04_17h24.58.850,ga_syllabified_check,2022.2.5,Win32,58.82352941,,,,,,,,,,,,,,./stim/p07_syllable_1_lakabuaisto_hit.wav,p07,lakabuaisto,hit,la-ka-buais-to,la-ka-buais-to,la-ka-bu-ais-to,la-ka-bua-is-to,-0.36296297,-0.111111111,1,0,0,2.549,text_option_1,,0,162,162,143,1
5f9031f8c4202208aff899c5,63f3cfca20052e4ae7554ebf,6453ce2475b550dfab1c8951,2023-05-04_17h24.58.850,ga_syllabified_check,2022.2.5,Win32,58.82352941,,,,,,,,,,,,,,./stim/p08_syllable_1_lliape_hit.wav,p08,lliape,hit,li-a-pe,llia-pe,lli-a-pe, ,0.386111083,-0.107407393,1,0,0,0.816,text_option_2,,0,163,163,190,1
5f9031f8c4202208aff899c5,63f3cfca20052e4ae7554ebf,6453ce2475b550dfab1c8951,2023-05-04_17h24.58.850,ga_syllabified_check,2022.2.5,Win32,58.82352941,,,,,,,,,,,,,,./stim/p04_syllable_1_lakakuaisto_hit.wav,p04,lakakuaisto,hit,la-ka-kuais-to,la-ka-kuais-to,la-ka-ku-ais-to,la-ka-kua-is-to,-0.375,-0.098148134,1,0,0,0.884,text_option_1,,0,164,164,49,1
5f9031f8c4202208aff899c5,63f3cfca20052e4ae7554ebf,6453ce2475b550dfab1c8951,2023-05-04_17h24.58.850,ga_syllabified_check,2022.2.5,Win32,58.82352941,,,,,,,,,,,,,,./stim/p03_syllable_1_flauro_hit.wav,p03,flauro,hit,flau-ro,flau-ro,fla-u-ro, ,-0.386111118,-0.097222222,1,0,0,0.449,text_option_1,,0,165,165,5,1
5f9031f8c4202208aff899c5,63f3cfca20052e4ae7554ebf,6453ce2475b550dfab1c8951,2023-05-04_17h24.58.850,ga_syllabified_check,2022.2.5,Win32,58.82352941,,,,,,,,,,,,,,./stim/p03_syllable_1_lakapiaisto_hit.wav,p03,lakapiaisto,hit,la-ka-piais-to,la-ka-piais-to,la-ka-pi-ais-to,la-ka-pia-is-to,-0.351851852,-0.095370399,1,0,0,1.067,text_option_1,,0,166,166,16,1
5f9031f8c4202208aff899c5,63f3cfca20052e4ae7554ebf,6453ce2475b550dfab1c8951,2023-05-04_17h24.58.850,ga_syllabified_check,2022.2.5,Win32,58.82352941,,,,,,,,,,,,,,./stim/p07_syllable_1_mebochiana_hit.wav,p07,mebochiana,hit,me-bo-chia-na,me-bo-chia-na,me-bo-chi-a-na, ,-0.346296275,-0.110185199,1,0,0,2.134,text_option_1,,0,167,167,158,1
5f9031f8c4202208aff899c5,63f3cfca20052e4ae7554ebf,6453ce2475b550dfab1c8951,2023-05-04_17h24.58.850,ga_syllabified_check,2022.2.5,Win32,58.82352941,,,,,,,,,,,,,,./stim/p04_syllable_1_chiaba_hit.wav,p04,chiaba,hit,chia-ba,chia-ba,chi-a-ba, ,-0.346296275,-0.110185199,1,0,0,0.282,text_option_1,,0,168,168,34,1
5f9031f8c4202208aff899c5,63f3cfca20052e4ae7554ebf,6453ce2475b550dfab1c8951,2023-05-04_17h24.58.850,ga_syllabified_check,2022.2.5,Win32,58.82352941,,,,,,,,,,,,,,./stim/p04_syllable_1_lakagiaisto_hit.wav,p04,lakagiaisto,hit,la-ka-giais-to,la-ka-giais-to,la-ka-gi-ais-to,la-ka-gia-is-to,-0.345370363,-0.109259288,1,0,0,1.068,text_option_1,,0,169,169,46,1
5f9031f8c4202208aff899c5,63f3cfca20052e4ae7554ebf,6453ce2475b550dfab1c8951,2023-05-04_17h24.58.850,ga_syllabified_check,2022.2.5,Win32,58.82352941,,,,,,,,,,,,,,./stim/p03_syllable_1_palutrauco_hit.wav,p03,palutrauco,hit,pa-lu-trau-co,pa-lu-trau-co,pa-lu-tra-u-co, ,-0.345370363,-0.109259288,1,0,0,1.101,text_option_1,,0,170,170,29,1
5f9031f8c4202208aff899c5,63f3cfca20052e4ae7554ebf,6453ce2475b550dfab1c8951,2023-05-04_17h24.58.850,ga_syllabified_check,2022.2.5,Win32,58.82352941,,,,,,,,,,,,,,./stim/p04_syllable_1_lakafuaisto_hit.wav,p04,lakafuaisto,hit,la-ka-fuais-to,la-ka-fuais-to,la-ka-fu-ais-to,la-ka-fua-is-to,-0.345370363,-0.109259288,1,0,0,0.592,text_option_1,,0,171,171,45,1
5f9031f8c4202208aff899c5,63f3cfca20052e4ae7554ebf,6453ce2475b550dfab1c8951,2023-05-04_17h24.58.850,ga_syllabified_check,2022.2.5,Win32,58.82352941,,,,,,,,,,,,,,./stim/p03_syllable_1_lakapuaisto_hit.wav,p03,lakapuaisto,hit,la-ka-puais-to,la-ka-puais-to,la-ka-pu-ais-to,la-ka-pua-is-to,-0.345370363,-0.109259288,1,0,0,1.199,text_option_1,,0,172,172,17,1
5f9031f8c4202208aff899c5,63f3cfca20052e4ae7554ebf,6453ce2475b550dfab1c8951,2023-05-04_17h24.58.850,ga_syllabified_check,2022.2.5,Win32,58.82352941,,,,,,,,,,,,,,./stim/p03_syllable_1_ruyiola_hit.wav,p03,ruyiola,hit,ru-yio-la,ru-yio-la,ru-yi-o-la, ,-0.345370363,-0.109259288,1,0,0,0.381,text_option_1,,0,173,173,32,1
5f9031f8c4202208aff899c5,63f3cfca20052e4ae7554ebf,6453ce2475b550dfab1c8951,2023-05-04_17h24.58.850,ga_syllabified_check,2022.2.5,Win32,58.82352941,,,,,,,,,,,,,,./stim/p07_syllable_1_lakakuaisto_hit.wav,p07,lakakuaisto,hit,la-ka-kuais-to,la-ka-kuais-to,la-ka-ku-ais-to,la-ka-kua-is-to,-0.345370363,-0.109259288,1,0,0,1.951,text_option_1,,0,174,174,151,1
5f9031f8c4202208aff899c5,63f3cfca20052e4ae7554ebf,6453ce2475b550dfab1c8951,2023-05-04_17h24.58.850,ga_syllabified_check,2022.2.5,Win32,58.82352941,,,,,,,,,,,,,,./stim/p03_syllable_1_tuliafo_hit.wav,p03,tuliafo,hit,tu-lia-fo,tu-lia-fo,tu-li-a-fo, ,-0.345370363,-0.109259288,1,0,0,0.634,text_option_1,,0,175,175,33,1
5f9031f8c4202208aff899c5,63f3cfca20052e4ae7554ebf,6453ce2475b550dfab1c8951,2023-05-04_17h24.58.850,ga_syllabified_check,2022.2.5,Win32,58.82352941,,,,,,,,,,,,,,./stim/p07_syllable_1_lakafuaisto_hit.wav,p07,lakafuaisto,hit,la-ka-fuais-to,la-ka-fuais-to,la-ka-fu-ais-to,la-ka-fua-is-to,-0.345370363,-0.109259288,1,0,0,1.507,text_option_1,,0,176,176,147,1
5f9031f8c4202208aff899c5,63f3cfca20052e4ae7554ebf,6453ce2475b550dfab1c8951,2023-05-04_17h24.58.850,ga_syllabified_check,2022.2.5,Win32,58.82352941,,,,,,,,,,,,,,./stim/p05_syllable_1_falufaisto_hit.wav,p05,falufaisto,hit,fa-lu-fais-to,fa-lu-fais-to,fa-lu-fa-is-to, ,-0.345370363,-0.109259288,1,0,0,1.166,text_option_1,,0,177,177,71,1
5f9031f8c4202208aff899c5,63f3cfca20052e4ae7554ebf,6453ce2475b550dfab1c8951,2023-05-04_17h24.58.850,ga_syllabified_check,2022.2.5,Win32,58.82352941,,,,,,,,,,,,,,./stim/p03_syllable_1_nhiape_hit.wav,p03,ñiape,hit,nhia-pe,ñia-pe,ñi-a-pe, ,-0.365740741,-0.104629658,1,0,0,0.684,text_option_1,,0,178,178,23,1
5f9031f8c4202208aff899c5,63f3cfca20052e4ae7554ebf,6453ce2475b550dfab1c8951,2023-05-04_17h24.58.850,ga_syllabified_check,2022.2.5,Win32,58.82352941,,,,,,,,,,,,,,./stim/p07_syllable_1_palutrauco_hit.wav,p07,palutrauco,hit,pa-lu-trau-co,pa-lu-trau-co,pa-lu-tra-u-co, ,-0.365740741,-0.104629658,1,0,0,1.033,text_option_1,,0,179,179,165,1
5f9031f8c4202208aff899c5,63f3cfca20052e4ae7554ebf,6453ce2475b550dfab1c8951,2023-05-04_17h24.58.850,ga_syllabified_check,2022.2.5,Win32,58.82352941,,,,,,,,,,,,,,./stim/p08_syllable_1_lakabuaisto_hit.wav,p08,lakabuaisto,hit,la-ka-bu-ais-to,la-ka-buais-to,la-ka-bu-ais-to,la-ka-bua-is-to,0.439814815,-0.101851852,1,0,0,2.883,text_option_2,,0,180,180,177,1
5f9031f8c4202208aff899c5,63f3cfca20052e4ae7554ebf,6453ce2475b550dfab1c8951,2023-05-04_17h24.58.850,ga_syllabified_check,2022.2.5,Win32,58.82352941,,,,,,,,,,,,,,./stim/p06_syllable_1_flauro_hit.wav,p06,flauro,hit,fla-u-ro,flau-ro,fla-u-ro, ,0.417592649,-0.111111111,1,0,0,1.267,text_option_2,,0,181,181,107,1
5f9031f8c4202208aff899c5,63f3cfca20052e4ae7554ebf,6453ce2475b550dfab1c8951,2023-05-04_17h24.58.850,ga_syllabified_check,2022.2.5,Win32,58.82352941,,,,,,,,,,,,,,./stim/p04_syllable_1_paluguato_hit.wav,p04,paluguato,hit,pa-lu-gua,pa-lu-gua-to,pa-lu-gu-a-to, ,-0.349074081,-0.10555557,1,0,0,1.95,text_option_1,,0,182,182,61,1
5f9031f8c4202208aff899c5,63f3cfca20052e4ae7554ebf,6453ce2475b550dfab1c8951,2023-05-04_17h24.58.850,ga_syllabified_check,2022.2.5,Win32,58.82352941,,,,,,,,,,,,,,./stim/p04_syllable_1_falufaisto_hit.wav,p04,falufaisto,hit,fa-lu-fais-to,fa-lu-fais-to,fa-lu-fa-is-to, ,-0.348148134,-0.104629658,1,0,0,1,text_option_1,,0,183,183,37,1
5f9031f8c4202208aff899c5,63f3cfca20052e4ae7554ebf,6453ce2475b550dfab1c8951,2023-05-04_17h24.58.850,ga_syllabified_check,2022.2.5,Win32,58.82352941,,,,,,,,,,,,,,./stim/p08_syllable_1_nhiape_hit.wav,p08,ñiape,hit,ni-a-pe,ñia-pe,ñi-a-pe, ,0.386111083,-0.106481481,1,0,0,1.033,text_option_2,,0,184,184,193,1
5f9031f8c4202208aff899c5,63f3cfca20052e4ae7554ebf,6453ce2475b550dfab1c8951,2023-05-04_17h24.58.850,ga_syllabified_check,2022.2.5,Win32,58.82352941,,,,,,,,,,,,,,./stim/p06_syllable_1_lakabuaisto_hit.wav,p06,lakabuaisto,hit,la-ka-bu-a-is,la-ka-buais-to,la-ka-bu-ais-to,la-ka-bua-is-to,0.399999972,-0.100000028,1,0,0,4.034,text_option_2,,0,185,185,109,1
5f9031f8c4202208aff899c5,63f3cfca20052e4ae7554ebf,6453ce2475b550dfab1c8951,2023-05-04_17h24.58.850,ga_syllabified_check,2022.2.5,Win32,58.82352941,,,,,,,,,,,,,,./stim/p08_syllable_1_mebochiana_hit.wav,p08,mebochiana,hit,me-bo-chi-a-na,me-bo-chia-na,me-bo-chi-a-na, ,0.462037122,-0.10092594,1,0,0,2.484,text_option_2,,0,186,186,192,1
5f9031f8c4202208aff899c5,63f3cfca20052e4ae7554ebf,6453ce2475b550dfab1c8951,2023-05-04_17h24.58.850,ga_syllabified_check,2022.2.5,Win32,58.82352941,,,,,,,,,,,,,,./stim/p05_syllable_1_palumaisto_hit.wav,p05,palumaisto,hit,pa-lu-mais-to,pa-lu-mais-to,pa-lu-ma-is-to, ,-0.335185192,-0.10555557,1,0,0,1.066,text_option_1,,0,187,187,96,1
5f9031f8c4202208aff899c5,63f3cfca20052e4ae7554ebf,6453ce2475b550dfab1c8951,2023-05-04_17h24.58.850,ga_syllabified_check,2022.2.5,Win32,58.82352941,,,,,,,,,,,,,,./stim/p04_syllable_1_lakaduaisto_hit.wav,p04,lakaduaisto,hit,la-ka-duais-to,la-ka-duais-to,la-ka-du-ais-to,la-ka-dua-is-to,-0.334259245,-0.10555557,1,0,0,0.684,text_option_1,,0,188,188,43,1
5f9031f8c4202208aff899c5,63f3cfca20052e4ae7554ebf,6453ce2475b550dfab1c8951,2023-05-04_17h24.58.850,ga_syllabified_check,2022.2.5,Win32,58.82352941,,,,,,,,,,,,,,./stim/p08_syllable_1_lakapiaisto_hit.wav,p08,lakapiaisto,hit,la-ka-pi-as-to,la-ka-piais-to,la-ka-pi-ais-to,la-ka-pia-is-to,0.420370455,-0.100000028,1,0,0,2.382,text_option_2,,0,189,189,186,1
5f9031f8c4202208aff899c5,63f3cfca20052e4ae7554ebf,6453ce2475b550dfab1c8951,2023-05-04_17h24.58.850,ga_syllabified_check,2022.2.5,Win32,58.82352941,,,,,,,,,,,,,,./stim/p04_syllable_1_payielo_hit.wav,p04,payielo,hit,pa-yie-lo,pa-yie-lo,pa-yi-e-lo, ,-0.402777778,-0.107407393,1,0,0,0.683,text_option_1,,0,190,190,64,1
5f9031f8c4202208aff899c5,63f3cfca20052e4ae7554ebf,6453ce2475b550dfab1c8951,2023-05-04_17h24.58.850,ga_syllabified_check,2022.2.5,Win32,58.82352941,,,,,,,,,,,,,,./stim/p07_syllable_1_lakatuaisto_hit.wav,p07,lakatuaisto,hit,la-ka-tuais-to,la-ka-tuais-to,la-ka-tu-ais-to,la-ka-tua-is-to,-0.360185164,-0.10555557,1,0,0,1.668,text_option_1,,0,191,191,155,1
5f9031f8c4202208aff899c5,63f3cfca20052e4ae7554ebf,6453ce2475b550dfab1c8951,2023-05-04_17h24.58.850,ga_syllabified_check,2022.2.5,Win32,58.82352941,,,,,,,,,,,,,,./stim/p04_syllable_1_manhiala_hit.wav,p04,mañiala,hit,ma-nhia-la,ma-ñia-la,ma-ñi-a-la, ,-0.360185164,-0.10555557,1,0,0,0.683,text_option_1,,0,192,192,55,1
5f9031f8c4202208aff899c5,63f3cfca20052e4ae7554ebf,6453ce2475b550dfab1c8951,2023-05-04_17h24.58.850,ga_syllabified_check,2022.2.5,Win32,58.82352941,,,,,,,,,,,,,,./stim/p06_syllable_1_chiaba_hit.wav,p06,chiaba,hit,chi-a-ba,chia-ba,chi-a-ba, ,-0.360185164,-0.10555557,1,0,0,1.3,text_option_1,,0,193,193,102,1
5f9031f8c4202208aff899c5,63f3cfca20052e4ae7554ebf,6453ce2475b550dfab1c8951,2023-05-04_17h24.58.850,ga_syllabified_check,2022.2.5,Win32,58.82352941,,,,,,,,,,,,,,./stim/p07_syllable_1_lakafiaisto_hit.wav,p07,lakafiaisto,hit,la-ka-fiais-to,la-ka-fiais-to,la-ka-fi-ais-to,la-ka-fia-is-to,-0.360185164,-0.10555557,1,0,0,1.384,text_option_1,,0,194,194,146,1
5f9031f8c4202208aff899c5,63f3cfca20052e4ae7554ebf,6453ce2475b550dfab1c8951,2023-05-04_17h24.58.850,ga_syllabified_check,2022.2.5,Win32,58.82352941,,,,,,,,,,,,,,./stim/p05_syllable_1_lakatuaisto_hit.wav,p05,lakatuaisto,hit,la-ka-tais-to,la-ka-tuais-to,la-ka-tu-ais-to,la-ka-tua-is-to,-0.360185164,-0.10555557,1,0,0,1.168,text_option_1,,0,195,195,87,1
5f9031f8c4202208aff899c5,63f3cfca20052e4ae7554ebf,6453ce2475b550dfab1c8951,2023-05-04_17h24.58.850,ga_syllabified_check,2022.2.5,Win32,58.82352941,,,,,,,,,,,,,,./stim/p07_syllable_1_nhiape_hit.wav,p07,ñiape,hit,nhia-pe,ñia-pe,ñi-a-pe, ,-0.360185164,-0.10555557,1,0,0,0.784,text_option_1,,0,196,196,159,1
5f9031f8c4202208aff899c5,63f3cfca20052e4ae7554ebf,6453ce2475b550dfab1c8951,2023-05-04_17h24.58.850,ga_syllabified_check,2022.2.5,Win32,58.82352941,,,,,,,,,,,,,,./stim/p05_syllable_1_lakatiaisto_hit.wav,p05,lakatiaisto,hit,la-ka-ti-ais-to,la-ka-tiais-to,la-ka-ti-ais-to,la-ka-tia-is-to,-0.360185164,-0.10555557,1,0,0,1.485,text_option_1,,0,197,197,86,1
5f9031f8c4202208aff899c5,63f3cfca20052e4ae7554ebf,6453ce2475b550dfab1c8951,2023-05-04_17h24.58.850,ga_syllabified_check,2022.2.5,Win32,58.82352941,,,,,,,,,,,,,,./stim/p08_syllable_1_lakafuaisto_hit.wav,p08,lakafuaisto,hit,la-ka-fju-ais-to,la-ka-fuais-to,la-ka-fu-ais-to,la-ka-fua-is-to,-0.360185164,-0.10555557,1,0,0,2.334,text_option_1,,0,198,198,181,1
5f9031f8c4202208aff899c5,63f3cfca20052e4ae7554ebf,6453ce2475b550dfab1c8951,2023-05-04_17h24.58.850,ga_syllabified_check,2022.2.5,Win32,58.82352941,,,,,,,,,,,,,,./stim/p04_syllable_1_lakadiaisto_hit.wav,p04,lakadiaisto,hit,la-ka-dias-to,la-ka-diais-to,la-ka-di-ais-to,la-ka-dia-is-to,-0.360185164,-0.10555557,1,0,0,0.917,text_option_1,,0,199,199,42,1
5f9031f8c4202208aff899c5,63f3cfca20052e4ae7554ebf,6453ce2475b550dfab1c8951,2023-05-04_17h24.58.850,ga_syllabified_check,2022.2.5,Win32,58.82352941,,,,,,,,,,,,,,./stim/p05_syllable_1_lakapuaisto_hit.wav,p05,lakapuaisto,hit,la-ka-pais-to,la-ka-puais-to,la-ka-pu-ais-to,la-ka-pua-is-to,-0.360185164,-0.10555557,1,0,0,1.501,text_option_1,,0,200,200,85,1
5f9031f8c4202208aff899c5,63f3cfca20052e4ae7554ebf,6453ce2475b550dfab1c8951,2023-05-04_17h24.58.850,ga_syllabified_check,2022.2.5,Win32,58.82352941,,,,,,,,,,,,,,./stim/p06_syllable_1_lakapuaisto_hit.wav,p06,lakapuaisto,hit,la-ka-pu-a-is,la-ka-puais-to,la-ka-pu-ais-to,la-ka-pua-is-to,-0.056481467,-0.306481467,1,0,0,6.835,text_option_other,la-ka-pu-a-is-to,0,201,201,119,1
5f9031f8c4202208aff899c5,63f3cfca20052e4ae7554ebf,6453ce2475b550dfab1c8951,2023-05-04_17h24.58.850,ga_syllabified_check,2022.2.5,Win32,58.82352941,,,,,,,,,,,,,,./stim/p03_syllable_1_falufaisto_hit.wav,p03,falufaisto,hit,fa-lu-fais-to,fa-lu-fais-to,fa-lu-fa-is-to, ,-0.396296289,-0.10092594,1,0,0,1.168,text_option_1,,0,202,202,3,1
5f9031f8c4202208aff899c5,63f3cfca20052e4ae7554ebf,6453ce2475b550dfab1c8951,2023-05-04_17h24.58.850,ga_syllabified_check,2022.2.5,Win32,58.82352941,,,,,,,,,,,,,,./stim/p06_syllable_1_ruyiola_hit.wav,p06,ruyiola,hit,ru-yi-o-la,ru-yio-la,ru-yi-o-la, ,0.462037122,-0.108333376,1,0,0,1.667,text_option_2,,0,203,203,134,1
5f9031f8c4202208aff899c5,63f3cfca20052e4ae7554ebf,6453ce2475b550dfab1c8951,2023-05-04_17h24.58.850,ga_syllabified_check,2022.2.5,Win32,58.82352941,,,,,,,,,,,,,,,,,,,,,,,,,,,,,,,,,,
