participant,study,session,date,expName,psychopyVersion,OS,frameRate,mouse_practice.x,mouse_practice.y,mouse_practice.leftButton,mouse_practice.midButton,mouse_practice.rightButton,mouse_practice.time,mouse_practice.clicked_name,textbox_followup_practice.text,trials_practice.thisRepN,trials_practice.thisTrialN,trials_practice.thisN,trials_practice.thisIndex,trials_practice.ran,file_path,id,item,status,response,op1,op2,op3,mouse.x,mouse.y,mouse.leftButton,mouse.midButton,mouse.rightButton,mouse.time,mouse.clicked_name,textbox_followup.text,trials.thisRepN,trials.thisTrialN,trials.thisN,trials.thisIndex,trials.ran
5fac2995bbe58415e0ac6a1e,63f3cfca20052e4ae7554ebf,6453ccff656291203d17b502,2023-05-04_17h20.10.251,ga_syllabified_check,2022.2.5,Win32,17.99661664,,,,,,,,,,,,,,,,,,,,,,,,,,,,,,,,,,
5fac2995bbe58415e0ac6a1e,63f3cfca20052e4ae7554ebf,6453ccff656291203d17b502,2023-05-04_17h20.10.251,ga_syllabified_check,2022.2.5,Win32,17.99661664,-0.374074074,-0.103703704,1,0,0,2.6629,text_option_1_practice,,0,0,0,0,1,./stim/p03_syllable_1_liamo_hit.wav,p03,liamo,hit,lia-mo,lia-mo,li-a-mo, ,,,,,,,,,,,,,
5fac2995bbe58415e0ac6a1e,63f3cfca20052e4ae7554ebf,6453ccff656291203d17b502,2023-05-04_17h20.10.251,ga_syllabified_check,2022.2.5,Win32,17.99661664,-0.378703704,-0.094444444,1,0,0,1.048,text_option_1_practice,,0,1,1,1,1,./stim/p05_syllable_1_matio_hit.wav,p05,matio,hit,ma-tio,ma-tio,ma-ti-o, ,,,,,,,,,,,,,
5fac2995bbe58415e0ac6a1e,63f3cfca20052e4ae7554ebf,6453ccff656291203d17b502,2023-05-04_17h20.10.251,ga_syllabified_check,2022.2.5,Win32,17.99661664,-0.380555556,-0.103703704,1,0,0,2.657,text_option_1_practice,,0,2,2,2,1,./stim/p08_syllable_1_liamo_hit.wav,p08,liamo,hit,ja-mo,lia-mo,li-a-mo, ,,,,,,,,,,,,,
5fac2995bbe58415e0ac6a1e,63f3cfca20052e4ae7554ebf,6453ccff656291203d17b502,2023-05-04_17h20.10.251,ga_syllabified_check,2022.2.5,Win32,17.99661664,,,,,,,,,,,,,,,,,,,,,,,,,,,,,,,,,,
5fac2995bbe58415e0ac6a1e,63f3cfca20052e4ae7554ebf,6453ccff656291203d17b502,2023-05-04_17h20.10.251,ga_syllabified_check,2022.2.5,Win32,17.99661664,,,,,,,,,,,,,,./stim/p06_syllable_1_ruyiola_hit.wav,p06,ruyiola,hit,ru-yi-o-la,ru-yio-la,ru-yi-o-la, ,0.401851852,-0.107407407,1,0,0,2.5703,text_option_2,,0,0,0,134,1
5fac2995bbe58415e0ac6a1e,63f3cfca20052e4ae7554ebf,6453ccff656291203d17b502,2023-05-04_17h20.10.251,ga_syllabified_check,2022.2.5,Win32,17.99661664,,,,,,,,,,,,,,./stim/p04_syllable_1_lakagiaisto_hit.wav,p04,lakagiaisto,hit,la-ka-giais-to,la-ka-giais-to,la-ka-gi-ais-to,la-ka-gia-is-to,-0.328703704,-0.109259259,1,0,0,4.8707,text_option_1,,0,1,1,46,1
5fac2995bbe58415e0ac6a1e,63f3cfca20052e4ae7554ebf,6453ccff656291203d17b502,2023-05-04_17h20.10.251,ga_syllabified_check,2022.2.5,Win32,17.99661664,,,,,,,,,,,,,,./stim/p07_syllable_1_lakafiaisto_hit.wav,p07,lakafiaisto,hit,la-ka-fiais-to,la-ka-fiais-to,la-ka-fi-ais-to,la-ka-fia-is-to,-0.364814815,-0.107407407,1,0,0,2.3486,text_option_1,,0,2,2,146,1
5fac2995bbe58415e0ac6a1e,63f3cfca20052e4ae7554ebf,6453ccff656291203d17b502,2023-05-04_17h20.10.251,ga_syllabified_check,2022.2.5,Win32,17.99661664,,,,,,,,,,,,,,./stim/p08_syllable_1_lakaguaisto_hit.wav,p08,lakaguaisto,hit,la-ka-gu-ais-to,la-ka-guais-to,la-ka-gu-ais-to,la-ka-gua-is-to,0.430555556,-0.108333333,1,0,0,3.3153,text_option_2,,0,3,3,183,1
5fac2995bbe58415e0ac6a1e,63f3cfca20052e4ae7554ebf,6453ccff656291203d17b502,2023-05-04_17h20.10.251,ga_syllabified_check,2022.2.5,Win32,17.99661664,,,,,,,,,,,,,,./stim/p08_syllable_1_lakakuaisto_hit.wav,p08,lakakuaisto,hit,la-ka-ku-ais-to,la-ka-kuais-to,la-ka-ku-ais-to,la-ka-kua-is-to,0.427777778,-0.10462963,1,0,0,4.1607,text_option_2,,0,4,4,185,1
5fac2995bbe58415e0ac6a1e,63f3cfca20052e4ae7554ebf,6453ccff656291203d17b502,2023-05-04_17h20.10.251,ga_syllabified_check,2022.2.5,Win32,17.99661664,,,,,,,,,,,,,,./stim/p04_syllable_1_palufauto_hit.wav,p04,palufauto,hit,pa-lu-fau-to,pa-lu-fau-to,pa-lu-fa-u-to, ,-0.374074074,-0.111111111,1,0,0,1.7381,text_option_1,,0,5,5,60,1
5fac2995bbe58415e0ac6a1e,63f3cfca20052e4ae7554ebf,6453ccff656291203d17b502,2023-05-04_17h20.10.251,ga_syllabified_check,2022.2.5,Win32,17.99661664,,,,,,,,,,,,,,./stim/p05_syllable_1_lakafuaisto_hit.wav,p05,lakafuaisto,hit,la-ka-fais-to,la-ka-fuais-to,la-ka-fu-ais-to,la-ka-fua-is-to,-0.008333333,-0.300925926,1,0,0,5.2269,text_option_other,la-ka-fais-to,0,6,6,79,1
5fac2995bbe58415e0ac6a1e,63f3cfca20052e4ae7554ebf,6453ccff656291203d17b502,2023-05-04_17h20.10.251,ga_syllabified_check,2022.2.5,Win32,17.99661664,,,,,,,,,,,,,,./stim/p08_syllable_1_paluguato_hit.wav,p08,paluguato,hit,pa-lu-gua-to,pa-lu-gua-to,pa-lu-gu-a-to, ,-0.392592593,-0.111111111,1,0,0,3.3936,text_option_1,,0,7,7,197,1
5fac2995bbe58415e0ac6a1e,63f3cfca20052e4ae7554ebf,6453ccff656291203d17b502,2023-05-04_17h20.10.251,ga_syllabified_check,2022.2.5,Win32,17.99661664,,,,,,,,,,,,,,./stim/p03_syllable_1_paluguato_hit.wav,p03,paluguato,hit,pa-lu-gua,pa-lu-gua-to,pa-lu-gu-a-to, ,-0.383333333,-0.112962963,1,0,0,2.1679,text_option_1,,0,8,8,27,1
5fac2995bbe58415e0ac6a1e,63f3cfca20052e4ae7554ebf,6453ccff656291203d17b502,2023-05-04_17h20.10.251,ga_syllabified_check,2022.2.5,Win32,17.99661664,,,,,,,,,,,,,,./stim/p04_syllable_1_falutraigo_hit.wav,p04,falutraigo,hit,fa-lu-trai-go,fa-lu-trai-go,fa-lu-tra-i-go, ,-0.381481481,-0.110185185,1,0,0,1.3878,text_option_1,,0,9,9,38,1
5fac2995bbe58415e0ac6a1e,63f3cfca20052e4ae7554ebf,6453ccff656291203d17b502,2023-05-04_17h20.10.251,ga_syllabified_check,2022.2.5,Win32,17.99661664,,,,,,,,,,,,,,./stim/p05_syllable_1_faluduako_hit.wav,p05,faluduako,hit,fa-lu-ba-ko,fa-lu-dua-ko,fa-lu-du-a-ko, ,-0.044444444,-0.306481481,1,0,0,3.9493,text_option_other,fa-lu-da-ko,0,10,10,70,1
5fac2995bbe58415e0ac6a1e,63f3cfca20052e4ae7554ebf,6453ccff656291203d17b502,2023-05-04_17h20.10.251,ga_syllabified_check,2022.2.5,Win32,17.99661664,,,,,,,,,,,,,,./stim/p08_syllable_1_palutrauco_hit.wav,p08,palutrauco,hit,pa-lu-trau-ko,pa-lu-trau-co,pa-lu-tra-u-co, ,-0.362962963,-0.106481481,1,0,0,2.3208,text_option_1,,0,11,11,199,1
5fac2995bbe58415e0ac6a1e,63f3cfca20052e4ae7554ebf,6453ccff656291203d17b502,2023-05-04_17h20.10.251,ga_syllabified_check,2022.2.5,Win32,17.99661664,,,,,,,,,,,,,,./stim/p07_syllable_1_mebochiana_hit.wav,p07,mebochiana,hit,me-bo-chia-na,me-bo-chia-na,me-bo-chi-a-na, ,-0.346296296,-0.105555556,1,0,0,2.4084,text_option_1,,0,12,12,158,1
5fac2995bbe58415e0ac6a1e,63f3cfca20052e4ae7554ebf,6453ccff656291203d17b502,2023-05-04_17h20.10.251,ga_syllabified_check,2022.2.5,Win32,17.99661664,,,,,,,,,,,,,,./stim/p07_syllable_1_ruyiola_hit.wav,p07,ruyiola,hit,ru-yio-la,ru-yio-la,ru-yi-o-la, ,-0.405555556,-0.106481481,1,0,0,1.7695,text_option_1,,0,13,13,168,1
5fac2995bbe58415e0ac6a1e,63f3cfca20052e4ae7554ebf,6453ccff656291203d17b502,2023-05-04_17h20.10.251,ga_syllabified_check,2022.2.5,Win32,17.99661664,,,,,,,,,,,,,,./stim/p04_syllable_1_chiaba_hit.wav,p04,chiaba,hit,chia-ba,chia-ba,chi-a-ba, ,-0.413888889,-0.108333333,1,0,0,0.5891,text_option_1,,0,14,14,34,1
5fac2995bbe58415e0ac6a1e,63f3cfca20052e4ae7554ebf,6453ccff656291203d17b502,2023-05-04_17h20.10.251,ga_syllabified_check,2022.2.5,Win32,17.99661664,,,,,,,,,,,,,,./stim/p08_syllable_1_lakabuaisto_hit.wav,p08,lakabuaisto,hit,la-ka-bu-ais-to,la-ka-buais-to,la-ka-bu-ais-to,la-ka-bua-is-to,0.418518519,-0.10462963,1,0,0,3.0358,text_option_2,,0,15,15,177,1
5fac2995bbe58415e0ac6a1e,63f3cfca20052e4ae7554ebf,6453ccff656291203d17b502,2023-05-04_17h20.10.251,ga_syllabified_check,2022.2.5,Win32,17.99661664,,,,,,,,,,,,,,./stim/p04_syllable_1_ruyiola_hit.wav,p04,ruyiola,hit,ru-yio-la,ru-yio-la,ru-yi-o-la, ,-0.40462963,-0.094444444,1,0,0,0.7732,text_option_1,,0,16,16,66,1
5fac2995bbe58415e0ac6a1e,63f3cfca20052e4ae7554ebf,6453ccff656291203d17b502,2023-05-04_17h20.10.251,ga_syllabified_check,2022.2.5,Win32,17.99661664,,,,,,,,,,,,,,./stim/p08_syllable_1_tuliafo_hit.wav,p08,tuliafo,hit,tu-li-a-fo,tu-lia-fo,tu-li-a-fo, ,0.408333333,-0.111111111,1,0,0,1.7587,text_option_2,,0,17,17,203,1
5fac2995bbe58415e0ac6a1e,63f3cfca20052e4ae7554ebf,6453ccff656291203d17b502,2023-05-04_17h20.10.251,ga_syllabified_check,2022.2.5,Win32,17.99661664,,,,,,,,,,,,,,./stim/p04_syllable_1_mebochiana_hit.wav,p04,mebochiana,hit,me-bo-chia-na,me-bo-chia-na,me-bo-chi-a-na, ,-0.409259259,-0.106481481,1,0,0,1.4422,text_option_1,,0,18,18,56,1
5fac2995bbe58415e0ac6a1e,63f3cfca20052e4ae7554ebf,6453ccff656291203d17b502,2023-05-04_17h20.10.251,ga_syllabified_check,2022.2.5,Win32,17.99661664,,,,,,,,,,,,,,./stim/p05_syllable_1_ruyiola_hit.wav,p05,ruyiola,hit,ru-yio-la,ru-yio-la,ru-yi-o-la, ,-0.399074074,-0.10462963,1,0,0,5.8346,text_option_1,,0,19,19,100,1
5fac2995bbe58415e0ac6a1e,63f3cfca20052e4ae7554ebf,6453ccff656291203d17b502,2023-05-04_17h20.10.251,ga_syllabified_check,2022.2.5,Win32,17.99661664,,,,,,,,,,,,,,./stim/p07_syllable_1_tuliafo_hit.wav,p07,tuliafo,hit,tu-lia-fo,tu-lia-fo,tu-li-a-fo, ,-0.409259259,-0.098148148,1,0,0,0.7245,text_option_1,,0,20,20,169,1
5fac2995bbe58415e0ac6a1e,63f3cfca20052e4ae7554ebf,6453ccff656291203d17b502,2023-05-04_17h20.10.251,ga_syllabified_check,2022.2.5,Win32,17.99661664,,,,,,,,,,,,,,./stim/p03_syllable_1_lakafiaisto_hit.wav,p03,lakafiaisto,hit,la-ka-fiais-to,la-ka-fiais-to,la-ka-fi-ais-to,la-ka-fia-is-to,-0.375925926,-0.107407407,1,0,0,1.2876,text_option_1,,0,21,21,10,1
5fac2995bbe58415e0ac6a1e,63f3cfca20052e4ae7554ebf,6453ccff656291203d17b502,2023-05-04_17h20.10.251,ga_syllabified_check,2022.2.5,Win32,17.99661664,,,,,,,,,,,,,,./stim/p08_syllable_1_lakadiaisto_hit.wav,p08,lakadiaisto,hit,la-ka-di-jas-to,la-ka-diais-to,la-ka-di-ais-to,la-ka-dia-is-to,0.386111111,-0.106481481,1,0,0,6.7711,text_option_2,,0,22,22,178,1
5fac2995bbe58415e0ac6a1e,63f3cfca20052e4ae7554ebf,6453ccff656291203d17b502,2023-05-04_17h20.10.251,ga_syllabified_check,2022.2.5,Win32,17.99661664,,,,,,,,,,,,,,./stim/p07_syllable_1_paluguato_hit.wav,p07,paluguato,hit,pa-lu-gua-to,pa-lu-gua-to,pa-lu-gu-a-to, ,-0.350925926,-0.108333333,1,0,0,1.6853,text_option_1,,0,23,23,163,1
5fac2995bbe58415e0ac6a1e,63f3cfca20052e4ae7554ebf,6453ccff656291203d17b502,2023-05-04_17h20.10.251,ga_syllabified_check,2022.2.5,Win32,17.99661664,,,,,,,,,,,,,,./stim/p07_syllable_1_costonhialo_hit.wav,p07,costoñialo,hit,cos-to-nhia-lo,cos-to-ñia-lo,cos-to-ñi-a-lo, ,-0.377777778,-0.107407407,1,0,0,3.678,text_option_1,,0,24,24,137,1
5fac2995bbe58415e0ac6a1e,63f3cfca20052e4ae7554ebf,6453ccff656291203d17b502,2023-05-04_17h20.10.251,ga_syllabified_check,2022.2.5,Win32,17.99661664,,,,,,,,,,,,,,./stim/p05_syllable_1_falufaisto_hit.wav,p05,falufaisto,hit,fa-lu-fais-to,fa-lu-fais-to,fa-lu-fa-is-to, ,-0.389814815,-0.101851852,1,0,0,1.126,text_option_1,,0,25,25,71,1
5fac2995bbe58415e0ac6a1e,63f3cfca20052e4ae7554ebf,6453ccff656291203d17b502,2023-05-04_17h20.10.251,ga_syllabified_check,2022.2.5,Win32,17.99661664,,,,,,,,,,,,,,./stim/p05_syllable_1_palufauro_hit.wav,p05,palufauro,hit,pa-lu-fau-ro,pa-lu-fau-ro,pa-lu-fa-u-ro, ,-0.381481481,-0.112962963,1,0,0,1.2892,text_option_1,,0,26,26,93,1
5fac2995bbe58415e0ac6a1e,63f3cfca20052e4ae7554ebf,6453ccff656291203d17b502,2023-05-04_17h20.10.251,ga_syllabified_check,2022.2.5,Win32,17.99661664,,,,,,,,,,,,,,./stim/p05_syllable_1_lakakuaisto_hit.wav,p05,lakakuaisto,hit,la-ka-kais-to,la-ka-kuais-to,la-ka-ku-ais-to,la-ka-kua-is-to,-0.075925926,-0.311111111,1,0,0,3.8865,text_option_other,la-ka-kais-to,0,27,27,83,1
5fac2995bbe58415e0ac6a1e,63f3cfca20052e4ae7554ebf,6453ccff656291203d17b502,2023-05-04_17h20.10.251,ga_syllabified_check,2022.2.5,Win32,17.99661664,,,,,,,,,,,,,,./stim/p07_syllable_1_payielo_hit.wav,p07,payielo,hit,pa-yie-lo,pa-yie-lo,pa-yi-e-lo, ,-0.386111111,-0.101851852,1,0,0,1.5709,text_option_1,,0,28,28,166,1
5fac2995bbe58415e0ac6a1e,63f3cfca20052e4ae7554ebf,6453ccff656291203d17b502,2023-05-04_17h20.10.251,ga_syllabified_check,2022.2.5,Win32,17.99661664,,,,,,,,,,,,,,./stim/p05_syllable_1_lakadiaisto_hit.wav,p05,lakadiaisto,hit,la-ka-di-ais-to,la-ka-diais-to,la-ka-di-ais-to,la-ka-dia-is-to,0.403703704,-0.105555556,1,0,0,7.4331,text_option_2,,0,29,29,76,1
5fac2995bbe58415e0ac6a1e,63f3cfca20052e4ae7554ebf,6453ccff656291203d17b502,2023-05-04_17h20.10.251,ga_syllabified_check,2022.2.5,Win32,17.99661664,,,,,,,,,,,,,,./stim/p06_syllable_1_palutrauco_hit.wav,p06,palutrauco,hit,pa-lu-tra-u-co,pa-lu-trau-co,pa-lu-tra-u-co, ,0.374074074,-0.1,1,0,0,2.7566,text_option_2,,0,30,30,131,1
5fac2995bbe58415e0ac6a1e,63f3cfca20052e4ae7554ebf,6453ccff656291203d17b502,2023-05-04_17h20.10.251,ga_syllabified_check,2022.2.5,Win32,17.99661664,,,,,,,,,,,,,,./stim/p06_syllable_1_lakafuaisto_hit.wav,p06,lakafuaisto,hit,la-ka-fu-a-is,la-ka-fuais-to,la-ka-fu-ais-to,la-ka-fua-is-to,0.001851852,-0.301851852,1,0,0,5.3735,text_option_other,la-ka-fu-a-is-to,0,31,31,113,1
5fac2995bbe58415e0ac6a1e,63f3cfca20052e4ae7554ebf,6453ccff656291203d17b502,2023-05-04_17h20.10.251,ga_syllabified_check,2022.2.5,Win32,17.99661664,,,,,,,,,,,,,,./stim/p04_syllable_1_lakabuaisto_hit.wav,p04,lakabuaisto,hit,la-ka-buais-to,la-ka-buais-to,la-ka-bu-ais-to,la-ka-bua-is-to,-0.366666667,-0.112962963,1,0,0,4.6985,text_option_1,,0,32,32,41,1
5fac2995bbe58415e0ac6a1e,63f3cfca20052e4ae7554ebf,6453ccff656291203d17b502,2023-05-04_17h20.10.251,ga_syllabified_check,2022.2.5,Win32,17.99661664,,,,,,,,,,,,,,./stim/p07_syllable_1_palutrauco_hit.wav,p07,palutrauco,hit,pa-lu-trau-co,pa-lu-trau-co,pa-lu-tra-u-co, ,-0.380555556,-0.110185185,1,0,0,0.979,text_option_1,,0,33,33,165,1
5fac2995bbe58415e0ac6a1e,63f3cfca20052e4ae7554ebf,6453ccff656291203d17b502,2023-05-04_17h20.10.251,ga_syllabified_check,2022.2.5,Win32,17.99661664,,,,,,,,,,,,,,./stim/p06_syllable_1_lakapuaisto_hit.wav,p06,lakapuaisto,hit,la-ka-pu-a-is,la-ka-puais-to,la-ka-pu-ais-to,la-ka-pua-is-to,-0.009259259,-0.303703704,1,0,0,4.9166,text_option_other,la-ka-pu-a-is-to,0,34,34,119,1
5fac2995bbe58415e0ac6a1e,63f3cfca20052e4ae7554ebf,6453ccff656291203d17b502,2023-05-04_17h20.10.251,ga_syllabified_check,2022.2.5,Win32,17.99661664,,,,,,,,,,,,,,./stim/p05_syllable_1_palumaisto_hit.wav,p05,palumaisto,hit,pa-lu-mais-to,pa-lu-mais-to,pa-lu-ma-is-to, ,-0.357407407,-0.105555556,1,0,0,1.2151,text_option_1,,0,35,35,96,1
5fac2995bbe58415e0ac6a1e,63f3cfca20052e4ae7554ebf,6453ccff656291203d17b502,2023-05-04_17h20.10.251,ga_syllabified_check,2022.2.5,Win32,17.99661664,,,,,,,,,,,,,,./stim/p08_syllable_1_lakapiaisto_hit.wav,p08,lakapiaisto,hit,la-ka-pi-as-to,la-ka-piais-to,la-ka-pi-ais-to,la-ka-pia-is-to,-0.025,-0.30462963,1,0,0,3.2777,text_option_other,la-ka-pi-as-to,0,36,36,186,1
5fac2995bbe58415e0ac6a1e,63f3cfca20052e4ae7554ebf,6453ccff656291203d17b502,2023-05-04_17h20.10.251,ga_syllabified_check,2022.2.5,Win32,17.99661664,,,,,,,,,,,,,,./stim/p08_syllable_1_manhiala_hit.wav,p08,mañiala,hit,ma-nhia-la,ma-ñia-la,ma-ñi-a-la, ,-0.416666667,-0.086111111,1,0,0,1.579,text_option_1,,0,37,37,191,1
5fac2995bbe58415e0ac6a1e,63f3cfca20052e4ae7554ebf,6453ccff656291203d17b502,2023-05-04_17h20.10.251,ga_syllabified_check,2022.2.5,Win32,17.99661664,,,,,,,,,,,,,,./stim/p08_syllable_1_lakafiaisto_hit.wav,p08,lakafiaisto,hit,la-ka-fi-as-to,la-ka-fiais-to,la-ka-fi-ais-to,la-ka-fia-is-to,0.012037037,-0.305555556,1,0,0,5.2732,text_option_other,la-ka-fi-as-to,0,38,38,180,1
5fac2995bbe58415e0ac6a1e,63f3cfca20052e4ae7554ebf,6453ccff656291203d17b502,2023-05-04_17h20.10.251,ga_syllabified_check,2022.2.5,Win32,17.99661664,,,,,,,,,,,,,,./stim/p07_syllable_1_lakatuaisto_hit.wav,p07,lakatuaisto,hit,la-ka-tuais-to,la-ka-tuais-to,la-ka-tu-ais-to,la-ka-tua-is-to,-0.426851852,-0.102777778,1,0,0,2.5717,text_option_1,,0,39,39,155,1
5fac2995bbe58415e0ac6a1e,63f3cfca20052e4ae7554ebf,6453ccff656291203d17b502,2023-05-04_17h20.10.251,ga_syllabified_check,2022.2.5,Win32,17.99661664,,,,,,,,,,,,,,./stim/p04_syllable_1_nhiape_hit.wav,p04,ñiape,hit,nhia-pe,ñia-pe,ñi-a-pe, ,-0.413888889,-0.101851852,1,0,0,0.5968,text_option_1,,0,40,40,57,1
5fac2995bbe58415e0ac6a1e,63f3cfca20052e4ae7554ebf,6453ccff656291203d17b502,2023-05-04_17h20.10.251,ga_syllabified_check,2022.2.5,Win32,17.99661664,,,,,,,,,,,,,,./stim/p08_syllable_1_lakapuaisto_hit.wav,p08,lakapuaisto,hit,la-ka-pu-as-to,la-ka-puais-to,la-ka-pu-ais-to,la-ka-pua-is-to,0.017592593,-0.3,1,0,0,3.8579,text_option_other,la-ka-pu-as-to,0,41,41,187,1
5fac2995bbe58415e0ac6a1e,63f3cfca20052e4ae7554ebf,6453ccff656291203d17b502,2023-05-04_17h20.10.251,ga_syllabified_check,2022.2.5,Win32,17.99661664,,,,,,,,,,,,,,./stim/p06_syllable_1_nhiape_hit.wav,p06,ñiape,hit,nhi-a-pe,ñia-pe,ñi-a-pe, ,0.39537037,-0.110185185,1,0,0,1.4635,text_option_2,,0,42,42,125,1
5fac2995bbe58415e0ac6a1e,63f3cfca20052e4ae7554ebf,6453ccff656291203d17b502,2023-05-04_17h20.10.251,ga_syllabified_check,2022.2.5,Win32,17.99661664,,,,,,,,,,,,,,./stim/p06_syllable_1_lakatuaisto_hit.wav,p06,lakatuaisto,hit,la-ka-tu-a-is,la-ka-tuais-to,la-ka-tu-ais-to,la-ka-tua-is-to,0.003703704,-0.302777778,1,0,0,4.1636,text_option_other,la-ka-tu-a-is-to,0,43,43,121,1
5fac2995bbe58415e0ac6a1e,63f3cfca20052e4ae7554ebf,6453ccff656291203d17b502,2023-05-04_17h20.10.251,ga_syllabified_check,2022.2.5,Win32,17.99661664,,,,,,,,,,,,,,./stim/p03_syllable_1_chiaba_hit.wav,p03,chiaba,hit,chia-ba,chia-ba,chi-a-ba, ,-0.383333333,-0.100925926,1,0,0,0.784,text_option_1,,0,44,44,0,1
5fac2995bbe58415e0ac6a1e,63f3cfca20052e4ae7554ebf,6453ccff656291203d17b502,2023-05-04_17h20.10.251,ga_syllabified_check,2022.2.5,Win32,17.99661664,,,,,,,,,,,,,,./stim/p07_syllable_1_lakaduaisto_hit.wav,p07,lakaduaisto,hit,la-ka-duais-to,la-ka-duais-to,la-ka-du-ais-to,la-ka-dua-is-to,-0.337962963,-0.109259259,1,0,0,2.1396,text_option_1,,0,45,45,145,1
5fac2995bbe58415e0ac6a1e,63f3cfca20052e4ae7554ebf,6453ccff656291203d17b502,2023-05-04_17h20.10.251,ga_syllabified_check,2022.2.5,Win32,17.99661664,,,,,,,,,,,,,,./stim/p08_syllable_1_falufaisto_hit.wav,p08,falufaisto,hit,fa-lu-fais-to,fa-lu-fais-to,fa-lu-fa-is-to, ,-0.361111111,-0.096296296,1,0,0,2.0677,text_option_1,,0,46,46,173,1
5fac2995bbe58415e0ac6a1e,63f3cfca20052e4ae7554ebf,6453ccff656291203d17b502,2023-05-04_17h20.10.251,ga_syllabified_check,2022.2.5,Win32,17.99661664,,,,,,,,,,,,,,./stim/p04_syllable_1_pachialo_hit.wav,p04,pachialo,hit,pa-chia-lo,pa-chia-lo,pa-chi-a-lo, ,-0.411111111,-0.109259259,1,0,0,1.0439,text_option_1,,0,47,47,58,1
5fac2995bbe58415e0ac6a1e,63f3cfca20052e4ae7554ebf,6453ccff656291203d17b502,2023-05-04_17h20.10.251,ga_syllabified_check,2022.2.5,Win32,17.99661664,,,,,,,,,,,,,,./stim/p03_syllable_1_lakatiaisto_hit.wav,p03,lakatiaisto,hit,la-ka-tiais-to,la-ka-tiais-to,la-ka-ti-ais-to,la-ka-tia-is-to,-0.384259259,-0.113888889,1,0,0,2.0646,text_option_1,,0,48,48,18,1
5fac2995bbe58415e0ac6a1e,63f3cfca20052e4ae7554ebf,6453ccff656291203d17b502,2023-05-04_17h20.10.251,ga_syllabified_check,2022.2.5,Win32,17.99661664,,,,,,,,,,,,,,./stim/p08_syllable_1_payielo_hit.wav,p08,payielo,hit,pa-yie-lo,pa-yie-lo,pa-yi-e-lo, ,-0.384259259,-0.113888889,1,0,0,0.9477,text_option_1,,0,49,49,200,1
5fac2995bbe58415e0ac6a1e,63f3cfca20052e4ae7554ebf,6453ccff656291203d17b502,2023-05-04_17h20.10.251,ga_syllabified_check,2022.2.5,Win32,17.99661664,,,,,,,,,,,,,,./stim/p04_syllable_1_palufauro_hit.wav,p04,palufauro,hit,pa-lu-fau-ro,pa-lu-fau-ro,pa-lu-fa-u-ro, ,-0.384259259,-0.113888889,1,0,0,1.0252,text_option_1,,0,50,50,59,1
5fac2995bbe58415e0ac6a1e,63f3cfca20052e4ae7554ebf,6453ccff656291203d17b502,2023-05-04_17h20.10.251,ga_syllabified_check,2022.2.5,Win32,17.99661664,,,,,,,,,,,,,,./stim/p04_syllable_1_lakaguaisto_hit.wav,p04,lakaguaisto,hit,la-ka-guais-to,la-ka-guais-to,la-ka-gu-ais-to,la-ka-gua-is-to,-0.37037037,-0.121296296,1,0,0,3.0494,text_option_1,,0,51,51,47,1
5fac2995bbe58415e0ac6a1e,63f3cfca20052e4ae7554ebf,6453ccff656291203d17b502,2023-05-04_17h20.10.251,ga_syllabified_check,2022.2.5,Win32,17.99661664,,,,,,,,,,,,,,./stim/p06_syllable_1_lakagiaisto_hit.wav,p06,lakagiaisto,hit,la-ka-gia-is-to,la-ka-giais-to,la-ka-gi-ais-to,la-ka-gia-is-to,-0.003703704,-0.110185185,1,0,0,5.0506,text_option_3,,0,52,52,114,1
5fac2995bbe58415e0ac6a1e,63f3cfca20052e4ae7554ebf,6453ccff656291203d17b502,2023-05-04_17h20.10.251,ga_syllabified_check,2022.2.5,Win32,17.99661664,,,,,,,,,,,,,,./stim/p08_syllable_1_lliape_hit.wav,p08,lliape,hit,li-a-pe,llia-pe,lli-a-pe, ,0.410185185,-0.106481481,1,0,0,1.1356,text_option_2,,0,53,53,190,1
5fac2995bbe58415e0ac6a1e,63f3cfca20052e4ae7554ebf,6453ccff656291203d17b502,2023-05-04_17h20.10.251,ga_syllabified_check,2022.2.5,Win32,17.99661664,,,,,,,,,,,,,,./stim/p07_syllable_1_lakaguaisto_hit.wav,p07,lakaguaisto,hit,la-ka-guais-to,la-ka-guais-to,la-ka-gu-ais-to,la-ka-gua-is-to,-0.361111111,-0.107407407,1,0,0,2.6573,text_option_1,,0,54,54,149,1
5fac2995bbe58415e0ac6a1e,63f3cfca20052e4ae7554ebf,6453ccff656291203d17b502,2023-05-04_17h20.10.251,ga_syllabified_check,2022.2.5,Win32,17.99661664,,,,,,,,,,,,,,./stim/p06_syllable_1_lliape_hit.wav,p06,lliape,hit,lli-lla-pe,llia-pe,lli-a-pe, ,0.410185185,-0.10462963,1,0,0,3.76,text_option_2,,0,55,55,122,1
5fac2995bbe58415e0ac6a1e,63f3cfca20052e4ae7554ebf,6453ccff656291203d17b502,2023-05-04_17h20.10.251,ga_syllabified_check,2022.2.5,Win32,17.99661664,,,,,,,,,,,,,,./stim/p03_syllable_1_lakapiaisto_hit.wav,p03,lakapiaisto,hit,la-ka-piais-to,la-ka-piais-to,la-ka-pi-ais-to,la-ka-pia-is-to,-0.375925926,-0.110185185,1,0,0,1.2937,text_option_1,,0,56,56,16,1
5fac2995bbe58415e0ac6a1e,63f3cfca20052e4ae7554ebf,6453ccff656291203d17b502,2023-05-04_17h20.10.251,ga_syllabified_check,2022.2.5,Win32,17.99661664,,,,,,,,,,,,,,./stim/p05_syllable_1_costonhialo_hit.wav,p05,costoñialo,hit,cos-to-nhia-lo,cos-to-ñia-lo,cos-to-ñi-a-lo, ,-0.410185185,-0.100925926,1,0,0,5.5378,text_option_1,,0,57,57,69,1
5fac2995bbe58415e0ac6a1e,63f3cfca20052e4ae7554ebf,6453ccff656291203d17b502,2023-05-04_17h20.10.251,ga_syllabified_check,2022.2.5,Win32,17.99661664,,,,,,,,,,,,,,./stim/p04_syllable_1_palumaisto_hit.wav,p04,palumaisto,hit,pa-lu-mais-to,pa-lu-mais-to,pa-lu-ma-is-to, ,-0.383333333,-0.109259259,1,0,0,1.0613,text_option_1,,0,58,58,62,1
5fac2995bbe58415e0ac6a1e,63f3cfca20052e4ae7554ebf,6453ccff656291203d17b502,2023-05-04_17h20.10.251,ga_syllabified_check,2022.2.5,Win32,17.99661664,,,,,,,,,,,,,,./stim/p06_syllable_1_tuliafo_hit.wav,p06,tuliafo,hit,tu-li-a-fo,tu-lia-fo,tu-li-a-fo, ,0.400925926,-0.110185185,1,0,0,1.7365,text_option_2,,0,59,59,135,1
5fac2995bbe58415e0ac6a1e,63f3cfca20052e4ae7554ebf,6453ccff656291203d17b502,2023-05-04_17h20.10.251,ga_syllabified_check,2022.2.5,Win32,17.99661664,,,,,,,,,,,,,,./stim/p05_syllable_1_lakafiaisto_hit.wav,p05,lakafiaisto,hit,la-ka-fi-ais-to,la-ka-fiais-to,la-ka-fi-ais-to,la-ka-fia-is-to,0.407407407,-0.10462963,1,0,0,3.4782,text_option_2,,0,60,60,78,1
5fac2995bbe58415e0ac6a1e,63f3cfca20052e4ae7554ebf,6453ccff656291203d17b502,2023-05-04_17h20.10.251,ga_syllabified_check,2022.2.5,Win32,17.99661664,,,,,,,,,,,,,,./stim/p03_syllable_1_flauro_hit.wav,p03,flauro,hit,flau-ro,flau-ro,fla-u-ro, ,-0.407407407,-0.110185185,1,0,0,0.6874,text_option_1,,0,61,61,5,1
5fac2995bbe58415e0ac6a1e,63f3cfca20052e4ae7554ebf,6453ccff656291203d17b502,2023-05-04_17h20.10.251,ga_syllabified_check,2022.2.5,Win32,17.99661664,,,,,,,,,,,,,,./stim/p08_syllable_1_palufauro_hit.wav,p08,palufauro,hit,pa-lu-fau-ro,pa-lu-fau-ro,pa-lu-fa-u-ro, ,-0.389814815,-0.110185185,1,0,0,2.507,text_option_1,,0,62,62,195,1
5fac2995bbe58415e0ac6a1e,63f3cfca20052e4ae7554ebf,6453ccff656291203d17b502,2023-05-04_17h20.10.251,ga_syllabified_check,2022.2.5,Win32,17.99661664,,,,,,,,,,,,,,./stim/p03_syllable_1_palufauro_hit.wav,p03,palufauro,hit,pa-lu-fau-ro,pa-lu-fau-ro,pa-lu-fa-u-ro, ,-0.384259259,-0.099074074,1,0,0,1.3103,text_option_1,,0,63,63,25,1
5fac2995bbe58415e0ac6a1e,63f3cfca20052e4ae7554ebf,6453ccff656291203d17b502,2023-05-04_17h20.10.251,ga_syllabified_check,2022.2.5,Win32,17.99661664,,,,,,,,,,,,,,./stim/p04_syllable_1_lakadiaisto_hit.wav,p04,lakadiaisto,hit,la-ka-dias-to,la-ka-diais-to,la-ka-di-ais-to,la-ka-dia-is-to,-0.37962963,-0.105555556,1,0,0,1.7172,text_option_1,,0,64,64,42,1
5fac2995bbe58415e0ac6a1e,63f3cfca20052e4ae7554ebf,6453ccff656291203d17b502,2023-05-04_17h20.10.251,ga_syllabified_check,2022.2.5,Win32,17.99661664,,,,,,,,,,,,,,./stim/p07_syllable_1_palumaisto_hit.wav,p07,palumaisto,hit,pa-lu-mais-to,pa-lu-mais-to,pa-lu-ma-is-to, ,-0.37037037,-0.110185185,1,0,0,3.0994,text_option_1,,0,65,65,164,1
5fac2995bbe58415e0ac6a1e,63f3cfca20052e4ae7554ebf,6453ccff656291203d17b502,2023-05-04_17h20.10.251,ga_syllabified_check,2022.2.5,Win32,17.99661664,,,,,,,,,,,,,,./stim/p07_syllable_1_lakapiaisto_hit.wav,p07,lakapiaisto,hit,la-ka-pia-sto,la-ka-piais-to,la-ka-pi-ais-to,la-ka-pia-is-to,0.043518519,-0.115740741,1,0,0,10.0358,text_option_3,,0,66,66,152,1
5fac2995bbe58415e0ac6a1e,63f3cfca20052e4ae7554ebf,6453ccff656291203d17b502,2023-05-04_17h20.10.251,ga_syllabified_check,2022.2.5,Win32,17.99661664,,,,,,,,,,,,,,./stim/p05_syllable_1_palutrauco_hit.wav,p05,palutrauco,hit,pa-lu-trai-co,pa-lu-trau-co,pa-lu-tra-u-co, ,-0.358333333,-0.10462963,1,0,0,2.0911,text_option_1,,0,67,67,97,1
5fac2995bbe58415e0ac6a1e,63f3cfca20052e4ae7554ebf,6453ccff656291203d17b502,2023-05-04_17h20.10.251,ga_syllabified_check,2022.2.5,Win32,17.99661664,,,,,,,,,,,,,,./stim/p04_syllable_1_lliape_hit.wav,p04,lliape,hit,lia-pe,llia-pe,lli-a-pe, ,-0.375925926,-0.107407407,1,0,0,0.6747,text_option_1,,0,68,68,54,1
5fac2995bbe58415e0ac6a1e,63f3cfca20052e4ae7554ebf,6453ccff656291203d17b502,2023-05-04_17h20.10.251,ga_syllabified_check,2022.2.5,Win32,17.99661664,,,,,,,,,,,,,,./stim/p06_syllable_1_lakabiaisto_hit.wav,p06,lakabiaisto,hit,la-ka-bia-is-to,la-ka-biais-to,la-ka-bi-ais-to,la-ka-bia-is-to,-0.012037037,-0.09537037,1,0,0,17.3555,text_option_3,,0,69,69,108,1
5fac2995bbe58415e0ac6a1e,63f3cfca20052e4ae7554ebf,6453ccff656291203d17b502,2023-05-04_17h20.10.251,ga_syllabified_check,2022.2.5,Win32,17.99661664,,,,,,,,,,,,,,./stim/p05_syllable_1_lakaguaisto_hit.wav,p05,lakaguaisto,hit,la-ka-gais,la-ka-guais-to,la-ka-gu-ais-to,la-ka-gua-is-to,0.025925926,-0.310185185,1,0,0,3.3526,text_option_other,la-ka-gais-to,0,70,70,81,1
5fac2995bbe58415e0ac6a1e,63f3cfca20052e4ae7554ebf,6453ccff656291203d17b502,2023-05-04_17h20.10.251,ga_syllabified_check,2022.2.5,Win32,17.99661664,,,,,,,,,,,,,,./stim/p08_syllable_1_pachialo_hit.wav,p08,pachialo,hit,pa-chi-ja-lo,pa-chia-lo,pa-chi-a-lo, ,0.394444444,-0.103703704,1,0,0,1.0587,text_option_2,,0,71,71,194,1
5fac2995bbe58415e0ac6a1e,63f3cfca20052e4ae7554ebf,6453ccff656291203d17b502,2023-05-04_17h20.10.251,ga_syllabified_check,2022.2.5,Win32,17.99661664,,,,,,,,,,,,,,./stim/p07_syllable_1_lakakiaisto_hit.wav,p07,lakakiaisto,hit,la-ka-kais-to,la-ka-kiais-to,la-ka-ki-ais-to,la-ka-kia-is-to,0.023148148,-0.282407407,1,0,0,1.8295,text_option_other,la-ka-kais-to,0,72,72,150,1
5fac2995bbe58415e0ac6a1e,63f3cfca20052e4ae7554ebf,6453ccff656291203d17b502,2023-05-04_17h20.10.251,ga_syllabified_check,2022.2.5,Win32,17.99661664,,,,,,,,,,,,,,./stim/p04_syllable_1_manhiala_hit.wav,p04,mañiala,hit,ma-nhia-la,ma-ñia-la,ma-ñi-a-la, ,-0.357407407,-0.09537037,1,0,0,0.6174,text_option_1,,0,73,73,55,1
5fac2995bbe58415e0ac6a1e,63f3cfca20052e4ae7554ebf,6453ccff656291203d17b502,2023-05-04_17h20.10.251,ga_syllabified_check,2022.2.5,Win32,17.99661664,,,,,,,,,,,,,,./stim/p04_syllable_1_falufaisto_hit.wav,p04,falufaisto,hit,fa-lu-fais-to,fa-lu-fais-to,fa-lu-fa-is-to, ,-0.359259259,-0.103703704,1,0,0,1.8483,text_option_1,,0,74,74,37,1
5fac2995bbe58415e0ac6a1e,63f3cfca20052e4ae7554ebf,6453ccff656291203d17b502,2023-05-04_17h20.10.251,ga_syllabified_check,2022.2.5,Win32,17.99661664,,,,,,,,,,,,,,./stim/p06_syllable_1_manhiala_hit.wav,p06,mañiala,hit,ma-nhi-a-la,ma-ñia-la,ma-ñi-a-la, ,0.391666667,-0.114814815,1,0,0,1.4615,text_option_2,,0,75,75,123,1
5fac2995bbe58415e0ac6a1e,63f3cfca20052e4ae7554ebf,6453ccff656291203d17b502,2023-05-04_17h20.10.251,ga_syllabified_check,2022.2.5,Win32,17.99661664,,,,,,,,,,,,,,./stim/p04_syllable_1_payielo_hit.wav,p04,payielo,hit,pa-yie-lo,pa-yie-lo,pa-yi-e-lo, ,-0.4,-0.106481481,1,0,0,2.4783,text_option_1,,0,76,76,64,1
5fac2995bbe58415e0ac6a1e,63f3cfca20052e4ae7554ebf,6453ccff656291203d17b502,2023-05-04_17h20.10.251,ga_syllabified_check,2022.2.5,Win32,17.99661664,,,,,,,,,,,,,,./stim/p07_syllable_1_lliape_hit.wav,p07,lliape,hit,lliai-pe,llia-pe,lli-a-pe, ,-0.02037037,-0.3,1,0,0,1.9091,text_option_other,lliai-pe,0,77,77,156,1
5fac2995bbe58415e0ac6a1e,63f3cfca20052e4ae7554ebf,6453ccff656291203d17b502,2023-05-04_17h20.10.251,ga_syllabified_check,2022.2.5,Win32,17.99661664,,,,,,,,,,,,,,./stim/p03_syllable_1_costonhialo_hit.wav,p03,costoñialo,hit,cos-to-nhia-lo,cos-to-ñia-lo,cos-to-ñi-a-lo, ,-0.374074074,-0.113888889,1,0,0,2.3691,text_option_1,,0,78,78,1,1
5fac2995bbe58415e0ac6a1e,63f3cfca20052e4ae7554ebf,6453ccff656291203d17b502,2023-05-04_17h20.10.251,ga_syllabified_check,2022.2.5,Win32,17.99661664,,,,,,,,,,,,,,./stim/p05_syllable_1_rausto_hit.wav,p05,rausto,hit,raus-to,raus-to,ra-us-to, ,-0.375,-0.114814815,1,0,0,2.8779,text_option_1,,0,79,79,99,1
5fac2995bbe58415e0ac6a1e,63f3cfca20052e4ae7554ebf,6453ccff656291203d17b502,2023-05-04_17h20.10.251,ga_syllabified_check,2022.2.5,Win32,17.99661664,,,,,,,,,,,,,,./stim/p07_syllable_1_lakatiaisto_hit.wav,p07,lakatiaisto,hit,la-ka-tiai-sto,la-ka-tiais-to,la-ka-ti-ais-to,la-ka-tia-is-to,-0.032407407,-0.30462963,1,0,0,4.8937,text_option_other,la-ka-piai-sto,0,80,80,154,1
5fac2995bbe58415e0ac6a1e,63f3cfca20052e4ae7554ebf,6453ccff656291203d17b502,2023-05-04_17h20.10.251,ga_syllabified_check,2022.2.5,Win32,17.99661664,,,,,,,,,,,,,,./stim/p04_syllable_1_lakabiaisto_hit.wav,p04,lakabiaisto,hit,la-ka-biais-to,la-ka-biais-to,la-ka-bi-ais-to,la-ka-bia-is-to,-0.356481481,-0.101851852,1,0,0,3.2267,text_option_1,,0,81,81,40,1
5fac2995bbe58415e0ac6a1e,63f3cfca20052e4ae7554ebf,6453ccff656291203d17b502,2023-05-04_17h20.10.251,ga_syllabified_check,2022.2.5,Win32,17.99661664,,,,,,,,,,,,,,./stim/p05_syllable_1_lakatiaisto_hit.wav,p05,lakatiaisto,hit,la-ka-ti-ais-to,la-ka-tiais-to,la-ka-ti-ais-to,la-ka-tia-is-to,-0.376851852,-0.112962963,1,0,0,2.4652,text_option_1,,0,82,82,86,1
5fac2995bbe58415e0ac6a1e,63f3cfca20052e4ae7554ebf,6453ccff656291203d17b502,2023-05-04_17h20.10.251,ga_syllabified_check,2022.2.5,Win32,17.99661664,,,,,,,,,,,,,,./stim/p04_syllable_1_lakafuaisto_hit.wav,p04,lakafuaisto,hit,la-ka-fuais-to,la-ka-fuais-to,la-ka-fu-ais-to,la-ka-fua-is-to,-0.39537037,-0.090740741,1,0,0,0.7121,text_option_1,,0,83,83,45,1
5fac2995bbe58415e0ac6a1e,63f3cfca20052e4ae7554ebf,6453ccff656291203d17b502,2023-05-04_17h20.10.251,ga_syllabified_check,2022.2.5,Win32,17.99661664,,,,,,,,,,,,,,./stim/p03_syllable_1_lakabiaisto_hit.wav,p03,lakabiaisto,hit,la-ka-biais-to,la-ka-biais-to,la-ka-bi-ais-to,la-ka-bia-is-to,-0.371296296,-0.109259259,1,0,0,1.1943,text_option_1,,0,84,84,6,1
5fac2995bbe58415e0ac6a1e,63f3cfca20052e4ae7554ebf,6453ccff656291203d17b502,2023-05-04_17h20.10.251,ga_syllabified_check,2022.2.5,Win32,17.99661664,,,,,,,,,,,,,,./stim/p06_syllable_1_pachialo_hit.wav,p06,pachialo,hit,pa-shi-a-lo,pa-chia-lo,pa-chi-a-lo, ,-0.387962963,-0.103703704,1,0,0,1.4356,text_option_1,,0,85,85,126,1
5fac2995bbe58415e0ac6a1e,63f3cfca20052e4ae7554ebf,6453ccff656291203d17b502,2023-05-04_17h20.10.251,ga_syllabified_check,2022.2.5,Win32,17.99661664,,,,,,,,,,,,,,./stim/p06_syllable_1_palumaisto_hit.wav,p06,palumaisto,hit,pa-lu-ma-is-to,pa-lu-mais-to,pa-lu-ma-is-to, ,0.372222222,-0.109259259,1,0,0,3.8371,text_option_2,,0,86,86,130,1
5fac2995bbe58415e0ac6a1e,63f3cfca20052e4ae7554ebf,6453ccff656291203d17b502,2023-05-04_17h20.10.251,ga_syllabified_check,2022.2.5,Win32,17.99661664,,,,,,,,,,,,,,./stim/p05_syllable_1_lakapiaisto_hit.wav,p05,lakapiaisto,hit,la-ka-pais-to,la-ka-piais-to,la-ka-pi-ais-to,la-ka-pia-is-to,-0.009259259,-0.305555556,1,0,0,1.7032,text_option_other,la-ka-pais-to,0,87,87,84,1
5fac2995bbe58415e0ac6a1e,63f3cfca20052e4ae7554ebf,6453ccff656291203d17b502,2023-05-04_17h20.10.251,ga_syllabified_check,2022.2.5,Win32,17.99661664,,,,,,,,,,,,,,./stim/p08_syllable_1_mebochiana_hit.wav,p08,mebochiana,hit,me-bo-chi-a-na,me-bo-chia-na,me-bo-chi-a-na, ,0.406481481,-0.10462963,1,0,0,1.8264,text_option_2,,0,88,88,192,1
5fac2995bbe58415e0ac6a1e,63f3cfca20052e4ae7554ebf,6453ccff656291203d17b502,2023-05-04_17h20.10.251,ga_syllabified_check,2022.2.5,Win32,17.99661664,,,,,,,,,,,,,,./stim/p03_syllable_1_falutraigo_hit.wav,p03,falutraigo,hit,fa-lu-trai-go,fa-lu-trai-go,fa-lu-tra-i-go, ,-0.378703704,-0.103703704,1,0,0,1.653,text_option_1,,0,89,89,4,1
5fac2995bbe58415e0ac6a1e,63f3cfca20052e4ae7554ebf,6453ccff656291203d17b502,2023-05-04_17h20.10.251,ga_syllabified_check,2022.2.5,Win32,17.99661664,,,,,,,,,,,,,,./stim/p03_syllable_1_lakatuaisto_hit.wav,p03,lakatuaisto,hit,la-ka-tuais-to,la-ka-tuais-to,la-ka-tu-ais-to,la-ka-tua-is-to,-0.365740741,-0.108333333,1,0,0,3.0455,text_option_1,,0,90,90,19,1
5fac2995bbe58415e0ac6a1e,63f3cfca20052e4ae7554ebf,6453ccff656291203d17b502,2023-05-04_17h20.10.251,ga_syllabified_check,2022.2.5,Win32,17.99661664,,,,,,,,,,,,,,./stim/p03_syllable_1_palufauto_hit.wav,p03,palufauto,hit,pa-lu-fau,pa-lu-fau-to,pa-lu-fa-u-to, ,-0.384259259,-0.108333333,1,0,0,0.7994,text_option_1,,0,91,91,26,1
5fac2995bbe58415e0ac6a1e,63f3cfca20052e4ae7554ebf,6453ccff656291203d17b502,2023-05-04_17h20.10.251,ga_syllabified_check,2022.2.5,Win32,17.99661664,,,,,,,,,,,,,,./stim/p07_syllable_1_lakapuaisto_hit.wav,p07,lakapuaisto,hit,la-ka-puais-to,la-ka-puais-to,la-ka-pu-ais-to,la-ka-pua-is-to,-0.377777778,-0.108333333,1,0,0,2.3252,text_option_1,,0,92,92,153,1
5fac2995bbe58415e0ac6a1e,63f3cfca20052e4ae7554ebf,6453ccff656291203d17b502,2023-05-04_17h20.10.251,ga_syllabified_check,2022.2.5,Win32,17.99661664,,,,,,,,,,,,,,./stim/p05_syllable_1_chiaba_hit.wav,p05,chiaba,hit,chia-ba,chia-ba,chi-a-ba, ,-0.014814815,-0.308333333,1,0,0,2.2555,text_option_other,chai-ba,0,93,93,68,1
5fac2995bbe58415e0ac6a1e,63f3cfca20052e4ae7554ebf,6453ccff656291203d17b502,2023-05-04_17h20.10.251,ga_syllabified_check,2022.2.5,Win32,17.99661664,,,,,,,,,,,,,,./stim/p07_syllable_1_nhiape_hit.wav,p07,ñiape,hit,nhia-pe,ñia-pe,ñi-a-pe, ,-0.406481481,-0.094444444,1,0,0,0.5095,text_option_1,,0,94,94,159,1
5fac2995bbe58415e0ac6a1e,63f3cfca20052e4ae7554ebf,6453ccff656291203d17b502,2023-05-04_17h20.10.251,ga_syllabified_check,2022.2.5,Win32,17.99661664,,,,,,,,,,,,,,./stim/p04_syllable_1_paluguato_hit.wav,p04,paluguato,hit,pa-lu-gua,pa-lu-gua-to,pa-lu-gu-a-to, ,-0.389814815,-0.097222222,1,0,0,2.1594,text_option_1,,0,95,95,61,1
5fac2995bbe58415e0ac6a1e,63f3cfca20052e4ae7554ebf,6453ccff656291203d17b502,2023-05-04_17h20.10.251,ga_syllabified_check,2022.2.5,Win32,17.99661664,,,,,,,,,,,,,,./stim/p06_syllable_1_lakaguaisto_hit.wav,p06,lakaguaisto,hit,la-ka-gu-a-is,la-ka-guais-to,la-ka-gu-ais-to,la-ka-gua-is-to,-0.009259259,-0.307407407,1,0,0,5.0176,text_option_other,la-ka-gu-a-is-to,0,96,96,115,1
5fac2995bbe58415e0ac6a1e,63f3cfca20052e4ae7554ebf,6453ccff656291203d17b502,2023-05-04_17h20.10.251,ga_syllabified_check,2022.2.5,Win32,17.99661664,,,,,,,,,,,,,,./stim/p06_syllable_1_chiaba_hit.wav,p06,chiaba,hit,chi-a-ba,chia-ba,chi-a-ba, ,-0.407407407,-0.098148148,1,0,0,1.395,text_option_1,,0,97,97,102,1
5fac2995bbe58415e0ac6a1e,63f3cfca20052e4ae7554ebf,6453ccff656291203d17b502,2023-05-04_17h20.10.251,ga_syllabified_check,2022.2.5,Win32,17.99661664,,,,,,,,,,,,,,./stim/p04_syllable_1_lakafiaisto_hit.wav,p04,lakafiaisto,hit,la-ka-fiais-to,la-ka-fiais-to,la-ka-fi-ais-to,la-ka-fia-is-to,-0.367592593,-0.107407407,1,0,0,3.3072,text_option_1,,0,98,98,44,1
5fac2995bbe58415e0ac6a1e,63f3cfca20052e4ae7554ebf,6453ccff656291203d17b502,2023-05-04_17h20.10.251,ga_syllabified_check,2022.2.5,Win32,17.99661664,,,,,,,,,,,,,,./stim/p06_syllable_1_costonhialo_hit.wav,p06,costoñialo,hit,cos-to-nhia-lo,cos-to-ñia-lo,cos-to-ñi-a-lo, ,-0.373148148,-0.09537037,1,0,0,2.0336,text_option_1,,0,99,99,103,1
5fac2995bbe58415e0ac6a1e,63f3cfca20052e4ae7554ebf,6453ccff656291203d17b502,2023-05-04_17h20.10.251,ga_syllabified_check,2022.2.5,Win32,17.99661664,,,,,,,,,,,,,,./stim/p06_syllable_1_lakakiaisto_hit.wav,p06,lakakiaisto,hit,la-ka-kia-is-to,la-ka-kiais-to,la-ka-ki-ais-to,la-ka-kia-is-to,0.025,-0.103703704,1,0,0,3.8014,text_option_3,,0,100,100,116,1
5fac2995bbe58415e0ac6a1e,63f3cfca20052e4ae7554ebf,6453ccff656291203d17b502,2023-05-04_17h20.10.251,ga_syllabified_check,2022.2.5,Win32,17.99661664,,,,,,,,,,,,,,./stim/p05_syllable_1_mebochiana_hit.wav,p05,mebochiana,hit,me-cho-chai-na,me-bo-chia-na,me-bo-chi-a-na, ,0.012962963,-0.310185185,1,0,0,1.9394,text_option_other,me-cho-chai-na,0,101,101,90,1
5fac2995bbe58415e0ac6a1e,63f3cfca20052e4ae7554ebf,6453ccff656291203d17b502,2023-05-04_17h20.10.251,ga_syllabified_check,2022.2.5,Win32,17.99661664,,,,,,,,,,,,,,./stim/p03_syllable_1_lakapuaisto_hit.wav,p03,lakapuaisto,hit,la-ka-puais-to,la-ka-puais-to,la-ka-pu-ais-to,la-ka-pua-is-to,-0.360185185,-0.109259259,1,0,0,1.7578,text_option_1,,0,102,102,17,1
5fac2995bbe58415e0ac6a1e,63f3cfca20052e4ae7554ebf,6453ccff656291203d17b502,2023-05-04_17h20.10.251,ga_syllabified_check,2022.2.5,Win32,17.99661664,,,,,,,,,,,,,,./stim/p06_syllable_1_paluguato_hit.wav,p06,paluguato,hit,pa-lu-gua-to,pa-lu-gua-to,pa-lu-gu-a-to, ,-0.362037037,-0.111111111,1,0,0,2.7716,text_option_1,,0,103,103,129,1
5fac2995bbe58415e0ac6a1e,63f3cfca20052e4ae7554ebf,6453ccff656291203d17b502,2023-05-04_17h20.10.251,ga_syllabified_check,2022.2.5,Win32,17.99661664,,,,,,,,,,,,,,./stim/p03_syllable_1_lliape_hit.wav,p03,lliape,hit,llia,llia-pe,lli-a-pe, ,-0.380555556,-0.112962963,1,0,0,0.7845,text_option_1,,0,104,104,20,1
5fac2995bbe58415e0ac6a1e,63f3cfca20052e4ae7554ebf,6453ccff656291203d17b502,2023-05-04_17h20.10.251,ga_syllabified_check,2022.2.5,Win32,17.99661664,,,,,,,,,,,,,,./stim/p05_syllable_1_lakabiaisto_hit.wav,p05,lakabiaisto,hit,la-ka-bi-ais-to,la-ka-biais-to,la-ka-bi-ais-to,la-ka-bia-is-to,-0.373148148,-0.112037037,1,0,0,3.351,text_option_1,,0,105,105,74,1
5fac2995bbe58415e0ac6a1e,63f3cfca20052e4ae7554ebf,6453ccff656291203d17b502,2023-05-04_17h20.10.251,ga_syllabified_check,2022.2.5,Win32,17.99661664,,,,,,,,,,,,,,./stim/p08_syllable_1_lakaduaisto_hit.wav,p08,lakaduaisto,hit,la-ka-du-ais-to,la-ka-duais-to,la-ka-du-ais-to,la-ka-dua-is-to,0.399074074,-0.107407407,1,0,0,2.5407,text_option_2,,0,106,106,179,1
5fac2995bbe58415e0ac6a1e,63f3cfca20052e4ae7554ebf,6453ccff656291203d17b502,2023-05-04_17h20.10.251,ga_syllabified_check,2022.2.5,Win32,17.99661664,,,,,,,,,,,,,,./stim/p07_syllable_1_lakadiaisto_hit.wav,p07,lakadiaisto,hit,la-ka-dia-is-to,la-ka-diais-to,la-ka-di-ais-to,la-ka-dia-is-to,0.033333333,-0.101851852,1,0,0,2.4569,text_option_3,,0,107,107,144,1
5fac2995bbe58415e0ac6a1e,63f3cfca20052e4ae7554ebf,6453ccff656291203d17b502,2023-05-04_17h20.10.251,ga_syllabified_check,2022.2.5,Win32,17.99661664,,,,,,,,,,,,,,./stim/p04_syllable_1_lakatiaisto_hit.wav,p04,lakatiaisto,hit,la-ka-kiais-to,la-ka-tiais-to,la-ka-ti-ais-to,la-ka-tia-is-to,-0.397222222,-0.10462963,1,0,0,2.1673,text_option_1,,0,108,108,52,1
5fac2995bbe58415e0ac6a1e,63f3cfca20052e4ae7554ebf,6453ccff656291203d17b502,2023-05-04_17h20.10.251,ga_syllabified_check,2022.2.5,Win32,17.99661664,,,,,,,,,,,,,,./stim/p07_syllable_1_rausto_hit.wav,p07,rausto,hit,raus-to,raus-to,ra-us-to, ,-0.398148148,-0.105555556,1,0,0,2.6782,text_option_1,,0,109,109,167,1
5fac2995bbe58415e0ac6a1e,63f3cfca20052e4ae7554ebf,6453ccff656291203d17b502,2023-05-04_17h20.10.251,ga_syllabified_check,2022.2.5,Win32,17.99661664,,,,,,,,,,,,,,./stim/p08_syllable_1_palufauto_hit.wav,p08,palufauto,hit,pa-lu-fau-to,pa-lu-fau-to,pa-lu-fa-u-to, ,-0.355555556,-0.091666667,1,0,0,2.5249,text_option_1,,0,110,110,196,1
5fac2995bbe58415e0ac6a1e,63f3cfca20052e4ae7554ebf,6453ccff656291203d17b502,2023-05-04_17h20.10.251,ga_syllabified_check,2022.2.5,Win32,17.99661664,,,,,,,,,,,,,,./stim/p06_syllable_1_falutraigo_hit.wav,p06,falutraigo,hit,fa-lu-tra-i-go,fa-lu-trai-go,fa-lu-tra-i-go, ,0.412037037,-0.109259259,1,0,0,3.8425,text_option_2,,0,111,111,106,1
5fac2995bbe58415e0ac6a1e,63f3cfca20052e4ae7554ebf,6453ccff656291203d17b502,2023-05-04_17h20.10.251,ga_syllabified_check,2022.2.5,Win32,17.99661664,,,,,,,,,,,,,,./stim/p03_syllable_1_faluduako_hit.wav,p03,faluduako,hit,fa-lu-dua-ko,fa-lu-dua-ko,fa-lu-du-a-ko, ,-0.375925926,-0.106481481,1,0,0,1.2472,text_option_1,,0,112,112,2,1
5fac2995bbe58415e0ac6a1e,63f3cfca20052e4ae7554ebf,6453ccff656291203d17b502,2023-05-04_17h20.10.251,ga_syllabified_check,2022.2.5,Win32,17.99661664,,,,,,,,,,,,,,./stim/p07_syllable_1_falutraigo_hit.wav,p07,falutraigo,hit,fa-lu-trai-go,fa-lu-trai-go,fa-lu-tra-i-go, ,-0.391666667,-0.102777778,1,0,0,1.6931,text_option_1,,0,113,113,140,1
5fac2995bbe58415e0ac6a1e,63f3cfca20052e4ae7554ebf,6453ccff656291203d17b502,2023-05-04_17h20.10.251,ga_syllabified_check,2022.2.5,Win32,17.99661664,,,,,,,,,,,,,,./stim/p03_syllable_1_nhiape_hit.wav,p03,ñiape,hit,nhia-pe,ñia-pe,ñi-a-pe, ,-0.425925926,-0.100925926,1,0,0,2.1644,text_option_1,,0,114,114,23,1
5fac2995bbe58415e0ac6a1e,63f3cfca20052e4ae7554ebf,6453ccff656291203d17b502,2023-05-04_17h20.10.251,ga_syllabified_check,2022.2.5,Win32,17.99661664,,,,,,,,,,,,,,./stim/p05_syllable_1_lakagiaisto_hit.wav,p05,lakagiaisto,hit,la-ka-ki-ais-to,la-ka-giais-to,la-ka-gi-ais-to,la-ka-gia-is-to,-0.37962963,-0.102777778,1,0,0,1.1923,text_option_1,,0,115,115,80,1
5fac2995bbe58415e0ac6a1e,63f3cfca20052e4ae7554ebf,6453ccff656291203d17b502,2023-05-04_17h20.10.251,ga_syllabified_check,2022.2.5,Win32,17.99661664,,,,,,,,,,,,,,./stim/p08_syllable_1_lakatiaisto_hit.wav,p08,lakatiaisto,hit,la-ka-ti-as-to,la-ka-tiais-to,la-ka-ti-ais-to,la-ka-tia-is-to,-0.039814815,-0.302777778,1,0,0,3.8044,text_option_other,la-ka-tias-to,0,116,116,188,1
5fac2995bbe58415e0ac6a1e,63f3cfca20052e4ae7554ebf,6453ccff656291203d17b502,2023-05-04_17h20.10.251,ga_syllabified_check,2022.2.5,Win32,17.99661664,,,,,,,,,,,,,,./stim/p03_syllable_1_lakafuaisto_hit.wav,p03,lakafuaisto,hit,la-ka-fuais-to,la-ka-fuais-to,la-ka-fu-ais-to,la-ka-fua-is-to,-0.374074074,-0.108333333,1,0,0,1.5783,text_option_1,,0,117,117,11,1
5fac2995bbe58415e0ac6a1e,63f3cfca20052e4ae7554ebf,6453ccff656291203d17b502,2023-05-04_17h20.10.251,ga_syllabified_check,2022.2.5,Win32,17.99661664,,,,,,,,,,,,,,./stim/p05_syllable_1_lakatuaisto_hit.wav,p05,lakatuaisto,hit,la-ka-tais-to,la-ka-tuais-to,la-ka-tu-ais-to,la-ka-tua-is-to,-0.031481481,-0.312037037,1,0,0,1.5083,text_option_other,,0,118,118,87,1
5fac2995bbe58415e0ac6a1e,63f3cfca20052e4ae7554ebf,6453ccff656291203d17b502,2023-05-04_17h20.10.251,ga_syllabified_check,2022.2.5,Win32,17.99661664,,,,,,,,,,,,,,./stim/p08_syllable_1_chiaba_hit.wav,p08,chiaba,hit,chi-a-ba,chia-ba,chi-a-ba, ,0.403703704,-0.109259259,1,0,0,7.5237,text_option_2,,0,119,119,170,1
5fac2995bbe58415e0ac6a1e,63f3cfca20052e4ae7554ebf,6453ccff656291203d17b502,2023-05-04_17h20.10.251,ga_syllabified_check,2022.2.5,Win32,17.99661664,,,,,,,,,,,,,,./stim/p03_syllable_1_ruyiola_hit.wav,p03,ruyiola,hit,ru-yio-la,ru-yio-la,ru-yi-o-la, ,-0.398148148,-0.107407407,1,0,0,0.6016,text_option_1,,0,120,120,32,1
5fac2995bbe58415e0ac6a1e,63f3cfca20052e4ae7554ebf,6453ccff656291203d17b502,2023-05-04_17h20.10.251,ga_syllabified_check,2022.2.5,Win32,17.99661664,,,,,,,,,,,,,,./stim/p03_syllable_1_palutrauco_hit.wav,p03,palutrauco,hit,pa-lu-trau-co,pa-lu-trau-co,pa-lu-tra-u-co, ,-0.389814815,-0.102777778,1,0,0,0.9356,text_option_1,,0,121,121,29,1
5fac2995bbe58415e0ac6a1e,63f3cfca20052e4ae7554ebf,6453ccff656291203d17b502,2023-05-04_17h20.10.251,ga_syllabified_check,2022.2.5,Win32,17.99661664,,,,,,,,,,,,,,./stim/p06_syllable_1_lakabuaisto_hit.wav,p06,lakabuaisto,hit,la-ka-bu-a-is,la-ka-buais-to,la-ka-bu-ais-to,la-ka-bua-is-to,0.02037037,-0.305555556,1,0,0,3.7315,text_option_other,la-ka-bu-a-is-to,0,122,122,109,1
5fac2995bbe58415e0ac6a1e,63f3cfca20052e4ae7554ebf,6453ccff656291203d17b502,2023-05-04_17h20.10.251,ga_syllabified_check,2022.2.5,Win32,17.99661664,,,,,,,,,,,,,,./stim/p08_syllable_1_lakafuaisto_hit.wav,p08,lakafuaisto,hit,la-ka-fju-ais-to,la-ka-fuais-to,la-ka-fu-ais-to,la-ka-fua-is-to,-0.000925926,-0.3,1,0,0,3.1846,text_option_other,la-ka-fiu-ais-to,0,123,123,181,1
5fac2995bbe58415e0ac6a1e,63f3cfca20052e4ae7554ebf,6453ccff656291203d17b502,2023-05-04_17h20.10.251,ga_syllabified_check,2022.2.5,Win32,17.99661664,,,,,,,,,,,,,,./stim/p04_syllable_1_lakakuaisto_hit.wav,p04,lakakuaisto,hit,la-ka-kuais-to,la-ka-kuais-to,la-ka-ku-ais-to,la-ka-kua-is-to,-0.375925926,-0.101851852,1,0,0,2.498,text_option_1,,0,124,124,49,1
5fac2995bbe58415e0ac6a1e,63f3cfca20052e4ae7554ebf,6453ccff656291203d17b502,2023-05-04_17h20.10.251,ga_syllabified_check,2022.2.5,Win32,17.99661664,,,,,,,,,,,,,,./stim/p06_syllable_1_lakafiaisto_hit.wav,p06,lakafiaisto,hit,la-ka-fia-is-to,la-ka-fiais-to,la-ka-fi-ais-to,la-ka-fia-is-to,-0.015740741,-0.097222222,1,0,0,3.2195,text_option_3,,0,125,125,112,1
5fac2995bbe58415e0ac6a1e,63f3cfca20052e4ae7554ebf,6453ccff656291203d17b502,2023-05-04_17h20.10.251,ga_syllabified_check,2022.2.5,Win32,17.99661664,,,,,,,,,,,,,,./stim/p08_syllable_1_lakatuaisto_hit.wav,p08,lakatuaisto,hit,la-ka-tu-i-jis,la-ka-tuais-to,la-ka-tu-ais-to,la-ka-tua-is-to,-0.00462963,-0.305555556,1,0,0,3.4027,text_option_other,la-ka-tuyis-to,0,126,126,189,1
5fac2995bbe58415e0ac6a1e,63f3cfca20052e4ae7554ebf,6453ccff656291203d17b502,2023-05-04_17h20.10.251,ga_syllabified_check,2022.2.5,Win32,17.99661664,,,,,,,,,,,,,,./stim/p07_syllable_1_palufauro_hit.wav,p07,palufauro,hit,pa-lu-fau-ro,pa-lu-fau-ro,pa-lu-fa-u-ro, ,-0.406481481,-0.116666667,1,0,0,1.3096,text_option_1,,0,127,127,161,1
5fac2995bbe58415e0ac6a1e,63f3cfca20052e4ae7554ebf,6453ccff656291203d17b502,2023-05-04_17h20.10.251,ga_syllabified_check,2022.2.5,Win32,17.99661664,,,,,,,,,,,,,,./stim/p04_syllable_1_faluduako_hit.wav,p04,faluduako,hit,fa-lu-dua-ko,fa-lu-dua-ko,fa-lu-du-a-ko, ,-0.381481481,-0.105555556,1,0,0,0.6921,text_option_1,,0,128,128,36,1
5fac2995bbe58415e0ac6a1e,63f3cfca20052e4ae7554ebf,6453ccff656291203d17b502,2023-05-04_17h20.10.251,ga_syllabified_check,2022.2.5,Win32,17.99661664,,,,,,,,,,,,,,./stim/p05_syllable_1_pachialo_hit.wav,p05,pachialo,hit,pan-chia-lo,pa-chia-lo,pa-chi-a-lo, ,-0.373148148,-0.108333333,1,0,0,0.9596,text_option_1,,0,129,129,92,1
5fac2995bbe58415e0ac6a1e,63f3cfca20052e4ae7554ebf,6453ccff656291203d17b502,2023-05-04_17h20.10.251,ga_syllabified_check,2022.2.5,Win32,17.99661664,,,,,,,,,,,,,,./stim/p03_syllable_1_tuliafo_hit.wav,p03,tuliafo,hit,tu-lia-fo,tu-lia-fo,tu-li-a-fo, ,-0.402777778,-0.108333333,1,0,0,21.3338,text_option_1,,0,130,130,33,1
5fac2995bbe58415e0ac6a1e,63f3cfca20052e4ae7554ebf,6453ccff656291203d17b502,2023-05-04_17h20.10.251,ga_syllabified_check,2022.2.5,Win32,17.99661664,,,,,,,,,,,,,,./stim/p03_syllable_1_rausto_hit.wav,p03,rausto,hit,raus-to,raus-to,ra-us-to, ,-0.418518519,-0.106481481,1,0,0,2.4738,text_option_1,,0,131,131,31,1
5fac2995bbe58415e0ac6a1e,63f3cfca20052e4ae7554ebf,6453ccff656291203d17b502,2023-05-04_17h20.10.251,ga_syllabified_check,2022.2.5,Win32,17.99661664,,,,,,,,,,,,,,./stim/p06_syllable_1_palufauro_hit.wav,p06,palufauro,hit,pa-lu-fau-ro,pa-lu-fau-ro,pa-lu-fa-u-ro, ,0.425925926,-0.110185185,1,0,0,15.011,text_option_2,,0,132,132,127,1
5fac2995bbe58415e0ac6a1e,63f3cfca20052e4ae7554ebf,6453ccff656291203d17b502,2023-05-04_17h20.10.251,ga_syllabified_check,2022.2.5,Win32,17.99661664,,,,,,,,,,,,,,./stim/p07_syllable_1_pachialo_hit.wav,p07,pachialo,hit,pa-cha-lo,pa-chia-lo,pa-chi-a-lo, ,-0.015740741,-0.306481481,1,0,0,1.2407,text_option_other,pa-cha-lo,0,133,133,160,1
5fac2995bbe58415e0ac6a1e,63f3cfca20052e4ae7554ebf,6453ccff656291203d17b502,2023-05-04_17h20.10.251,ga_syllabified_check,2022.2.5,Win32,17.99661664,,,,,,,,,,,,,,./stim/p05_syllable_1_tuliafo_hit.wav,p05,tuliafo,hit,tu-lai-fo,tu-lia-fo,tu-li-a-fo, ,0.030555556,-0.30462963,1,0,0,0.5982,text_option_other,tu-lai-fo,0,134,134,101,1
5fac2995bbe58415e0ac6a1e,63f3cfca20052e4ae7554ebf,6453ccff656291203d17b502,2023-05-04_17h20.10.251,ga_syllabified_check,2022.2.5,Win32,17.99661664,,,,,,,,,,,,,,./stim/p03_syllable_1_lakaduaisto_hit.wav,p03,lakaduaisto,hit,la-ka-duais-to,la-ka-duais-to,la-ka-du-ais-to,la-ka-dua-is-to,-0.356481481,-0.101851852,1,0,0,1.3161,text_option_1,,0,135,135,9,1
5fac2995bbe58415e0ac6a1e,63f3cfca20052e4ae7554ebf,6453ccff656291203d17b502,2023-05-04_17h20.10.251,ga_syllabified_check,2022.2.5,Win32,17.99661664,,,,,,,,,,,,,,./stim/p07_syllable_1_palufauto_hit.wav,p07,palufauto,hit,pa-lu-fau-to,pa-lu-fau-to,pa-lu-fa-u-to, ,-0.412962963,-0.112962963,1,0,0,1.2147,text_option_1,,0,136,136,162,1
5fac2995bbe58415e0ac6a1e,63f3cfca20052e4ae7554ebf,6453ccff656291203d17b502,2023-05-04_17h20.10.251,ga_syllabified_check,2022.2.5,Win32,17.99661664,,,,,,,,,,,,,,./stim/p04_syllable_1_lakapiaisto_hit.wav,p04,lakapiaisto,hit,la-ka-piais-to,la-ka-piais-to,la-ka-pi-ais-to,la-ka-pia-is-to,-0.386111111,-0.102777778,1,0,0,1.0658,text_option_1,,0,137,137,50,1
5fac2995bbe58415e0ac6a1e,63f3cfca20052e4ae7554ebf,6453ccff656291203d17b502,2023-05-04_17h20.10.251,ga_syllabified_check,2022.2.5,Win32,17.99661664,,,,,,,,,,,,,,./stim/p04_syllable_1_tuliafo_hit.wav,p04,tuliafo,hit,tu-lia-fo,tu-lia-fo,tu-li-a-fo, ,-0.386111111,-0.110185185,1,0,0,0.4351,text_option_1,,0,138,138,67,1
5fac2995bbe58415e0ac6a1e,63f3cfca20052e4ae7554ebf,6453ccff656291203d17b502,2023-05-04_17h20.10.251,ga_syllabified_check,2022.2.5,Win32,17.99661664,,,,,,,,,,,,,,./stim/p06_syllable_1_faluduako_hit.wav,p06,faluduako,hit,fa-lu-dua-ko,fa-lu-dua-ko,fa-lu-du-a-ko, ,0.380555556,-0.114814815,1,0,0,14.5073,text_option_2,,0,139,139,104,1
5fac2995bbe58415e0ac6a1e,63f3cfca20052e4ae7554ebf,6453ccff656291203d17b502,2023-05-04_17h20.10.251,ga_syllabified_check,2022.2.5,Win32,17.99661664,,,,,,,,,,,,,,./stim/p03_syllable_1_payielo_hit.wav,p03,payielo,hit,pa-yie-lo,pa-yie-lo,pa-yi-e-lo, ,-0.399074074,-0.110185185,1,0,0,3.4473,text_option_1,,0,140,140,30,1
5fac2995bbe58415e0ac6a1e,63f3cfca20052e4ae7554ebf,6453ccff656291203d17b502,2023-05-04_17h20.10.251,ga_syllabified_check,2022.2.5,Win32,17.99661664,,,,,,,,,,,,,,./stim/p03_syllable_1_manhiala_hit.wav,p03,mañiala,hit,ma-nhia-la,ma-ñia-la,ma-ñi-a-la, ,-0.389814815,-0.107407407,1,0,0,0.8477,text_option_1,,0,141,141,21,1
5fac2995bbe58415e0ac6a1e,63f3cfca20052e4ae7554ebf,6453ccff656291203d17b502,2023-05-04_17h20.10.251,ga_syllabified_check,2022.2.5,Win32,17.99661664,,,,,,,,,,,,,,./stim/p03_syllable_1_pachialo_hit.wav,p03,pachialo,hit,pa-chia-lo,pa-chia-lo,pa-chi-a-lo, ,-0.389814815,-0.106481481,1,0,0,0.6272,text_option_1,,0,142,142,24,1
5fac2995bbe58415e0ac6a1e,63f3cfca20052e4ae7554ebf,6453ccff656291203d17b502,2023-05-04_17h20.10.251,ga_syllabified_check,2022.2.5,Win32,17.99661664,,,,,,,,,,,,,,./stim/p07_syllable_1_lakagiaisto_hit.wav,p07,lakagiaisto,hit,la-ka-gais-to,la-ka-giais-to,la-ka-gi-ais-to,la-ka-gia-is-to,-0.006481481,-0.299074074,1,0,0,1.9949,text_option_other,la-ka-gais-to,0,143,143,148,1
5fac2995bbe58415e0ac6a1e,63f3cfca20052e4ae7554ebf,6453ccff656291203d17b502,2023-05-04_17h20.10.251,ga_syllabified_check,2022.2.5,Win32,17.99661664,,,,,,,,,,,,,,./stim/p07_syllable_1_falufaisto_hit.wav,p07,falufaisto,hit,fa-lu-fais-to,fa-lu-fais-to,fa-lu-fa-is-to, ,-0.373148148,-0.100925926,1,0,0,1.305,text_option_1,,0,144,144,139,1
5fac2995bbe58415e0ac6a1e,63f3cfca20052e4ae7554ebf,6453ccff656291203d17b502,2023-05-04_17h20.10.251,ga_syllabified_check,2022.2.5,Win32,17.99661664,,,,,,,,,,,,,,./stim/p07_syllable_1_manhiala_hit.wav,p07,mañiala,hit,ma-nhia-la,ma-ñia-la,ma-ñi-a-la, ,-0.417592593,-0.105555556,1,0,0,0.6837,text_option_1,,0,145,145,157,1
5fac2995bbe58415e0ac6a1e,63f3cfca20052e4ae7554ebf,6453ccff656291203d17b502,2023-05-04_17h20.10.251,ga_syllabified_check,2022.2.5,Win32,17.99661664,,,,,,,,,,,,,,./stim/p07_syllable_1_lakakuaisto_hit.wav,p07,lakakuaisto,hit,la-ka-kuais-to,la-ka-kuais-to,la-ka-ku-ais-to,la-ka-kua-is-to,-0.381481481,-0.107407407,1,0,0,2.3449,text_option_1,,0,146,146,151,1
5fac2995bbe58415e0ac6a1e,63f3cfca20052e4ae7554ebf,6453ccff656291203d17b502,2023-05-04_17h20.10.251,ga_syllabified_check,2022.2.5,Win32,17.99661664,,,,,,,,,,,,,,./stim/p05_syllable_1_palufauto_hit.wav,p05,palufauto,hit,pa-lu-fau-to,pa-lu-fau-to,pa-lu-fa-u-to, ,-0.4,-0.110185185,1,0,0,1.0325,text_option_1,,0,147,147,94,1
5fac2995bbe58415e0ac6a1e,63f3cfca20052e4ae7554ebf,6453ccff656291203d17b502,2023-05-04_17h20.10.251,ga_syllabified_check,2022.2.5,Win32,17.99661664,,,,,,,,,,,,,,./stim/p06_syllable_1_falufaisto_hit.wav,p06,falufaisto,hit,fa-lu-fa-is-to,fa-lu-fais-to,fa-lu-fa-is-to, ,0.426851852,-0.111111111,1,0,0,2.2615,text_option_2,,0,148,148,105,1
5fac2995bbe58415e0ac6a1e,63f3cfca20052e4ae7554ebf,6453ccff656291203d17b502,2023-05-04_17h20.10.251,ga_syllabified_check,2022.2.5,Win32,17.99661664,,,,,,,,,,,,,,./stim/p04_syllable_1_flauro_hit.wav,p04,flauro,hit,flau-ro,flau-ro,fla-u-ro, ,-0.40462963,-0.105555556,1,0,0,0.1664,text_option_1,,0,149,149,39,1
5fac2995bbe58415e0ac6a1e,63f3cfca20052e4ae7554ebf,6453ccff656291203d17b502,2023-05-04_17h20.10.251,ga_syllabified_check,2022.2.5,Win32,17.99661664,,,,,,,,,,,,,,./stim/p07_syllable_1_lakafuaisto_hit.wav,p07,lakafuaisto,hit,la-ka-fuais-to,la-ka-fuais-to,la-ka-fu-ais-to,la-ka-fua-is-to,-0.371296296,-0.106481481,1,0,0,3.663,text_option_1,,0,150,150,147,1
5fac2995bbe58415e0ac6a1e,63f3cfca20052e4ae7554ebf,6453ccff656291203d17b502,2023-05-04_17h20.10.251,ga_syllabified_check,2022.2.5,Win32,17.99661664,,,,,,,,,,,,,,./stim/p03_syllable_1_lakaguaisto_hit.wav,p03,lakaguaisto,hit,la-ka-guais-to,la-ka-guais-to,la-ka-gu-ais-to,la-ka-gua-is-to,-0.382407407,-0.108333333,1,0,0,1.2356,text_option_1,,0,151,151,13,1
5fac2995bbe58415e0ac6a1e,63f3cfca20052e4ae7554ebf,6453ccff656291203d17b502,2023-05-04_17h20.10.251,ga_syllabified_check,2022.2.5,Win32,17.99661664,,,,,,,,,,,,,,./stim/p08_syllable_1_nhiape_hit.wav,p08,ñiape,hit,ni-a-pe,ñia-pe,ñi-a-pe, ,0.377777778,-0.10462963,1,0,0,0.5299,text_option_2,,0,152,152,193,1
5fac2995bbe58415e0ac6a1e,63f3cfca20052e4ae7554ebf,6453ccff656291203d17b502,2023-05-04_17h20.10.251,ga_syllabified_check,2022.2.5,Win32,17.99661664,,,,,,,,,,,,,,./stim/p04_syllable_1_lakaduaisto_hit.wav,p04,lakaduaisto,hit,la-ka-duais-to,la-ka-duais-to,la-ka-du-ais-to,la-ka-dua-is-to,-0.340740741,-0.110185185,1,0,0,0.878,text_option_1,,0,153,153,43,1
5fac2995bbe58415e0ac6a1e,63f3cfca20052e4ae7554ebf,6453ccff656291203d17b502,2023-05-04_17h20.10.251,ga_syllabified_check,2022.2.5,Win32,17.99661664,,,,,,,,,,,,,,./stim/p04_syllable_1_costonhialo_hit.wav,p04,costoñialo,hit,cos-to-nhia-lo,cos-to-ñia-lo,cos-to-ñi-a-lo, ,-0.383333333,-0.103703704,1,0,0,0.8838,text_option_1,,0,154,154,35,1
5fac2995bbe58415e0ac6a1e,63f3cfca20052e4ae7554ebf,6453ccff656291203d17b502,2023-05-04_17h20.10.251,ga_syllabified_check,2022.2.5,Win32,17.99661664,,,,,,,,,,,,,,./stim/p05_syllable_1_nhiape_hit.wav,p05,ñiape,hit,nhia-pe,ñia-pe,ñi-a-pe, ,-0.39537037,-0.108333333,1,0,0,1.7614,text_option_1,,0,155,155,91,1
5fac2995bbe58415e0ac6a1e,63f3cfca20052e4ae7554ebf,6453ccff656291203d17b502,2023-05-04_17h20.10.251,ga_syllabified_check,2022.2.5,Win32,17.99661664,,,,,,,,,,,,,,./stim/p08_syllable_1_lakagiaisto_hit.wav,p08,lakagiaisto,hit,la-ka-gi-jas-to,la-ka-giais-to,la-ka-gi-ais-to,la-ka-gia-is-to,0.025925926,-0.30462963,1,0,0,2.9639,text_option_other,la-ka-gi-as-to,0,156,156,182,1
5fac2995bbe58415e0ac6a1e,63f3cfca20052e4ae7554ebf,6453ccff656291203d17b502,2023-05-04_17h20.10.251,ga_syllabified_check,2022.2.5,Win32,17.99661664,,,,,,,,,,,,,,./stim/p06_syllable_1_rausto_hit.wav,p06,rausto,hit,ra-us-to,raus-to,ra-us-to, ,0.39537037,-0.107407407,1,0,0,5.0605,text_option_2,,0,157,157,133,1
5fac2995bbe58415e0ac6a1e,63f3cfca20052e4ae7554ebf,6453ccff656291203d17b502,2023-05-04_17h20.10.251,ga_syllabified_check,2022.2.5,Win32,17.99661664,,,,,,,,,,,,,,./stim/p06_syllable_1_lakadiaisto_hit.wav,p06,lakadiaisto,hit,la-ka-dia-is-to,la-ka-diais-to,la-ka-di-ais-to,la-ka-dia-is-to,0.012037037,-0.105555556,1,0,0,2.4027,text_option_3,,0,158,158,110,1
5fac2995bbe58415e0ac6a1e,63f3cfca20052e4ae7554ebf,6453ccff656291203d17b502,2023-05-04_17h20.10.251,ga_syllabified_check,2022.2.5,Win32,17.99661664,,,,,,,,,,,,,,./stim/p05_syllable_1_paluguato_hit.wav,p05,paluguato,hit,pa-lu-gau-to,pa-lu-gua-to,pa-lu-gu-a-to, ,-0.014814815,-0.283333333,1,0,0,3.3071,text_option_other,pa-lu-ga-uto,0,159,159,95,1
5fac2995bbe58415e0ac6a1e,63f3cfca20052e4ae7554ebf,6453ccff656291203d17b502,2023-05-04_17h20.10.251,ga_syllabified_check,2022.2.5,Win32,17.99661664,,,,,,,,,,,,,,./stim/p05_syllable_1_flauro_hit.wav,p05,flauro,hit,fa-lu-ro,flau-ro,fla-u-ro, ,0.007407407,-0.298148148,1,0,0,1.1398,text_option_other,fa-lu-ro,0,160,160,73,1
5fac2995bbe58415e0ac6a1e,63f3cfca20052e4ae7554ebf,6453ccff656291203d17b502,2023-05-04_17h20.10.251,ga_syllabified_check,2022.2.5,Win32,17.99661664,,,,,,,,,,,,,,./stim/p03_syllable_1_palumaisto_hit.wav,p03,palumaisto,hit,pa-lu-mais-to,pa-lu-mais-to,pa-lu-ma-is-to, ,-0.373148148,-0.105555556,1,0,0,0.6984,text_option_1,,0,161,161,28,1
5fac2995bbe58415e0ac6a1e,63f3cfca20052e4ae7554ebf,6453ccff656291203d17b502,2023-05-04_17h20.10.251,ga_syllabified_check,2022.2.5,Win32,17.99661664,,,,,,,,,,,,,,./stim/p05_syllable_1_manhiala_hit.wav,p05,mañiala,hit,ma-nhia-la,ma-ñia-la,ma-ñi-a-la, ,-0.376851852,-0.108333333,1,0,0,1.6441,text_option_1,,0,162,162,89,1
5fac2995bbe58415e0ac6a1e,63f3cfca20052e4ae7554ebf,6453ccff656291203d17b502,2023-05-04_17h20.10.251,ga_syllabified_check,2022.2.5,Win32,17.99661664,,,,,,,,,,,,,,./stim/p06_syllable_1_lakakuaisto_hit.wav,p06,lakakuaisto,hit,la-ka-ku-a-is,la-ka-kuais-to,la-ka-ku-ais-to,la-ka-kua-is-to,-0.00462963,-0.294444444,1,0,0,2.709,text_option_other,la-ka-ku-a-is-to,0,163,163,117,1
5fac2995bbe58415e0ac6a1e,63f3cfca20052e4ae7554ebf,6453ccff656291203d17b502,2023-05-04_17h20.10.251,ga_syllabified_check,2022.2.5,Win32,17.99661664,,,,,,,,,,,,,,./stim/p08_syllable_1_falutraigo_hit.wav,p08,falutraigo,hit,fa-lu-trai-go,fa-lu-trai-go,fa-lu-tra-i-go, ,-0.393518519,-0.097222222,1,0,0,3.0761,text_option_1,,0,164,164,174,1
5fac2995bbe58415e0ac6a1e,63f3cfca20052e4ae7554ebf,6453ccff656291203d17b502,2023-05-04_17h20.10.251,ga_syllabified_check,2022.2.5,Win32,17.99661664,,,,,,,,,,,,,,./stim/p05_syllable_1_lliape_hit.wav,p05,lliape,hit,liai-pe,llia-pe,lli-a-pe, ,0.018518519,-0.305555556,1,0,0,1.3228,text_option_other,llai-pe,0,165,165,88,1
5fac2995bbe58415e0ac6a1e,63f3cfca20052e4ae7554ebf,6453ccff656291203d17b502,2023-05-04_17h20.10.251,ga_syllabified_check,2022.2.5,Win32,17.99661664,,,,,,,,,,,,,,./stim/p08_syllable_1_lakakiaisto_hit.wav,p08,lakakiaisto,hit,la-ka-ki-jas-to,la-ka-kiais-to,la-ka-ki-ais-to,la-ka-kia-is-to,0.036111111,-0.30462963,1,0,0,2.5631,text_option_other,la-ka-ki-as-to,0,166,166,184,1
5fac2995bbe58415e0ac6a1e,63f3cfca20052e4ae7554ebf,6453ccff656291203d17b502,2023-05-04_17h20.10.251,ga_syllabified_check,2022.2.5,Win32,17.99661664,,,,,,,,,,,,,,./stim/p03_syllable_1_lakabuaisto_hit.wav,p03,lakabuaisto,hit,la-ka-buais-to,la-ka-buais-to,la-ka-bu-ais-to,la-ka-bua-is-to,-0.371296296,-0.113888889,1,0,0,0.9654,text_option_1,,0,167,167,7,1
5fac2995bbe58415e0ac6a1e,63f3cfca20052e4ae7554ebf,6453ccff656291203d17b502,2023-05-04_17h20.10.251,ga_syllabified_check,2022.2.5,Win32,17.99661664,,,,,,,,,,,,,,./stim/p05_syllable_1_lakabuaisto_hit.wav,p05,lakabuaisto,hit,la-ka-buais-to,la-ka-buais-to,la-ka-bu-ais-to,la-ka-bua-is-to,-0.368518519,-0.114814815,1,0,0,1.5872,text_option_1,,0,168,168,75,1
5fac2995bbe58415e0ac6a1e,63f3cfca20052e4ae7554ebf,6453ccff656291203d17b502,2023-05-04_17h20.10.251,ga_syllabified_check,2022.2.5,Win32,17.99661664,,,,,,,,,,,,,,./stim/p04_syllable_1_lakatuaisto_hit.wav,p04,lakatuaisto,hit,la-ka-kuais-to,la-ka-tuais-to,la-ka-tu-ais-to,la-ka-tua-is-to,-0.358333333,-0.112037037,1,0,0,0.7938,text_option_1,,0,169,169,53,1
5fac2995bbe58415e0ac6a1e,63f3cfca20052e4ae7554ebf,6453ccff656291203d17b502,2023-05-04_17h20.10.251,ga_syllabified_check,2022.2.5,Win32,17.99661664,,,,,,,,,,,,,,./stim/p08_syllable_1_lakabiaisto_hit.wav,p08,lakabiaisto,hit,la-ka-bi-as-to,la-ka-biais-to,la-ka-bi-ais-to,la-ka-bia-is-to,-0.001851852,-0.311111111,1,0,0,2.7788,text_option_other,la-ka-bi-as-to,0,170,170,176,1
5fac2995bbe58415e0ac6a1e,63f3cfca20052e4ae7554ebf,6453ccff656291203d17b502,2023-05-04_17h20.10.251,ga_syllabified_check,2022.2.5,Win32,17.99661664,,,,,,,,,,,,,,./stim/p08_syllable_1_faluduako_hit.wav,p08,faluduako,hit,fa-lu-duai-ko,fa-lu-dua-ko,fa-lu-du-a-ko, ,-0.336111111,-0.10462963,1,0,0,2.4372,text_option_1,,0,171,171,172,1
5fac2995bbe58415e0ac6a1e,63f3cfca20052e4ae7554ebf,6453ccff656291203d17b502,2023-05-04_17h20.10.251,ga_syllabified_check,2022.2.5,Win32,17.99661664,,,,,,,,,,,,,,./stim/p03_syllable_1_lakadiaisto_hit.wav,p03,lakadiaisto,hit,la-ka-diais-to,la-ka-diais-to,la-ka-di-ais-to,la-ka-dia-is-to,-0.361111111,-0.107407407,1,0,0,2.9831,text_option_1,,0,172,172,8,1
5fac2995bbe58415e0ac6a1e,63f3cfca20052e4ae7554ebf,6453ccff656291203d17b502,2023-05-04_17h20.10.251,ga_syllabified_check,2022.2.5,Win32,17.99661664,,,,,,,,,,,,,,./stim/p03_syllable_1_lakakiaisto_hit.wav,p03,lakakiaisto,hit,la-ka-kiais-to,la-ka-kiais-to,la-ka-ki-ais-to,la-ka-kia-is-to,-0.359259259,-0.110185185,1,0,0,1.4863,text_option_1,,0,173,173,14,1
5fac2995bbe58415e0ac6a1e,63f3cfca20052e4ae7554ebf,6453ccff656291203d17b502,2023-05-04_17h20.10.251,ga_syllabified_check,2022.2.5,Win32,17.99661664,,,,,,,,,,,,,,./stim/p04_syllable_1_lakapuaisto_hit.wav,p04,lakapuaisto,hit,la-ka-puais-to,la-ka-puais-to,la-ka-pu-ais-to,la-ka-pua-is-to,-0.367592593,-0.100925926,1,0,0,0.971,text_option_1,,0,174,174,51,1
5fac2995bbe58415e0ac6a1e,63f3cfca20052e4ae7554ebf,6453ccff656291203d17b502,2023-05-04_17h20.10.251,ga_syllabified_check,2022.2.5,Win32,17.99661664,,,,,,,,,,,,,,./stim/p03_syllable_1_mebochiana_hit.wav,p03,mebochiana,hit,me-bo-chia-na,me-bo-chia-na,me-bo-chi-a-na, ,-0.386111111,-0.113888889,1,0,0,0.8074,text_option_1,,0,175,175,22,1
5fac2995bbe58415e0ac6a1e,63f3cfca20052e4ae7554ebf,6453ccff656291203d17b502,2023-05-04_17h20.10.251,ga_syllabified_check,2022.2.5,Win32,17.99661664,,,,,,,,,,,,,,./stim/p07_syllable_1_faluduako_hit.wav,p07,faluduako,hit,fa-lu-dua-ko,fa-lu-dua-ko,fa-lu-du-a-ko, ,-0.363888889,-0.110185185,1,0,0,1.4148,text_option_1,,0,176,176,138,1
5fac2995bbe58415e0ac6a1e,63f3cfca20052e4ae7554ebf,6453ccff656291203d17b502,2023-05-04_17h20.10.251,ga_syllabified_check,2022.2.5,Win32,17.99661664,,,,,,,,,,,,,,./stim/p03_syllable_1_falufaisto_hit.wav,p03,falufaisto,hit,fa-lu-fais-to,fa-lu-fais-to,fa-lu-fa-is-to, ,-0.357407407,-0.110185185,1,0,0,2.2977,text_option_1,,0,177,177,3,1
5fac2995bbe58415e0ac6a1e,63f3cfca20052e4ae7554ebf,6453ccff656291203d17b502,2023-05-04_17h20.10.251,ga_syllabified_check,2022.2.5,Win32,17.99661664,,,,,,,,,,,,,,./stim/p08_syllable_1_rausto_hit.wav,p08,rausto,hit,raus-to,raus-to,ra-us-to, ,-0.353703704,-0.108333333,1,0,0,0.8063,text_option_1,,0,178,178,201,1
5fac2995bbe58415e0ac6a1e,63f3cfca20052e4ae7554ebf,6453ccff656291203d17b502,2023-05-04_17h20.10.251,ga_syllabified_check,2022.2.5,Win32,17.99661664,,,,,,,,,,,,,,./stim/p06_syllable_1_payielo_hit.wav,p06,payielo,hit,pa-yi-e-lo,pa-yie-lo,pa-yi-e-lo, ,0.397222222,-0.10462963,1,0,0,1.7457,text_option_2,,0,179,179,132,1
5fac2995bbe58415e0ac6a1e,63f3cfca20052e4ae7554ebf,6453ccff656291203d17b502,2023-05-04_17h20.10.251,ga_syllabified_check,2022.2.5,Win32,17.99661664,,,,,,,,,,,,,,./stim/p06_syllable_1_lakaduaisto_hit.wav,p06,lakaduaisto,hit,la-ka-du-a-is,la-ka-duais-to,la-ka-du-ais-to,la-ka-dua-is-to,-0.093518519,-0.296296296,1,0,0,3.9062,text_option_other,la-ka-du-a-is-to,0,180,180,111,1
5fac2995bbe58415e0ac6a1e,63f3cfca20052e4ae7554ebf,6453ccff656291203d17b502,2023-05-04_17h20.10.251,ga_syllabified_check,2022.2.5,Win32,17.99661664,,,,,,,,,,,,,,./stim/p04_syllable_1_palutrauco_hit.wav,p04,palutrauco,hit,pa-lu-trau-co,pa-lu-trau-co,pa-lu-tra-u-co, ,-0.374074074,-0.108333333,1,0,0,0.8032,text_option_1,,0,181,181,63,1
5fac2995bbe58415e0ac6a1e,63f3cfca20052e4ae7554ebf,6453ccff656291203d17b502,2023-05-04_17h20.10.251,ga_syllabified_check,2022.2.5,Win32,17.99661664,,,,,,,,,,,,,,./stim/p07_syllable_1_lakabuaisto_hit.wav,p07,lakabuaisto,hit,la-ka-buais-to,la-ka-buais-to,la-ka-bu-ais-to,la-ka-bua-is-to,-0.373148148,-0.107407407,1,0,0,1.8275,text_option_1,,0,182,182,143,1
5fac2995bbe58415e0ac6a1e,63f3cfca20052e4ae7554ebf,6453ccff656291203d17b502,2023-05-04_17h20.10.251,ga_syllabified_check,2022.2.5,Win32,17.99661664,,,,,,,,,,,,,,./stim/p06_syllable_1_flauro_hit.wav,p06,flauro,hit,fla-u-ro,flau-ro,fla-u-ro, ,0.425925926,-0.106481481,1,0,0,0.711,text_option_2,,0,183,183,107,1
5fac2995bbe58415e0ac6a1e,63f3cfca20052e4ae7554ebf,6453ccff656291203d17b502,2023-05-04_17h20.10.251,ga_syllabified_check,2022.2.5,Win32,17.99661664,,,,,,,,,,,,,,./stim/p07_syllable_1_flauro_hit.wav,p07,flauro,hit,flau-ro,flau-ro,fla-u-ro, ,-0.371296296,-0.109259259,1,0,0,1.1628,text_option_1,,0,184,184,141,1
5fac2995bbe58415e0ac6a1e,63f3cfca20052e4ae7554ebf,6453ccff656291203d17b502,2023-05-04_17h20.10.251,ga_syllabified_check,2022.2.5,Win32,17.99661664,,,,,,,,,,,,,,./stim/p08_syllable_1_ruyiola_hit.wav,p08,ruyiola,hit,ru-yio-la,ru-yio-la,ru-yi-o-la, ,-0.352777778,-0.110185185,1,0,0,2.0665,text_option_1,,0,185,185,202,1
5fac2995bbe58415e0ac6a1e,63f3cfca20052e4ae7554ebf,6453ccff656291203d17b502,2023-05-04_17h20.10.251,ga_syllabified_check,2022.2.5,Win32,17.99661664,,,,,,,,,,,,,,./stim/p04_syllable_1_lakakiaisto_hit.wav,p04,lakakiaisto,hit,la-ka-kiais-to,la-ka-kiais-to,la-ka-ki-ais-to,la-ka-kia-is-to,-0.349074074,-0.111111111,1,0,0,1.1517,text_option_1,,0,186,186,48,1
5fac2995bbe58415e0ac6a1e,63f3cfca20052e4ae7554ebf,6453ccff656291203d17b502,2023-05-04_17h20.10.251,ga_syllabified_check,2022.2.5,Win32,17.99661664,,,,,,,,,,,,,,./stim/p06_syllable_1_palufauto_hit.wav,p06,palufauto,hit,pa-lu-fau-to,pa-lu-fau-to,pa-lu-fa-u-to, ,-0.352777778,-0.111111111,1,0,0,2.6164,text_option_1,,0,187,187,128,1
5fac2995bbe58415e0ac6a1e,63f3cfca20052e4ae7554ebf,6453ccff656291203d17b502,2023-05-04_17h20.10.251,ga_syllabified_check,2022.2.5,Win32,17.99661664,,,,,,,,,,,,,,./stim/p06_syllable_1_lakapiaisto_hit.wav,p06,lakapiaisto,hit,la-ka-pia-is-to,la-ka-piais-to,la-ka-pi-ais-to,la-ka-pia-is-to,0.062037037,-0.110185185,1,0,0,6.2916,text_option_3,,0,188,188,118,1
5fac2995bbe58415e0ac6a1e,63f3cfca20052e4ae7554ebf,6453ccff656291203d17b502,2023-05-04_17h20.10.251,ga_syllabified_check,2022.2.5,Win32,17.99661664,,,,,,,,,,,,,,./stim/p07_syllable_1_chiaba_hit.wav,p07,chiaba,hit,chia-ba,chia-ba,chi-a-ba, ,-0.365740741,-0.106481481,1,0,0,0.5189,text_option_1,,0,189,189,136,1
5fac2995bbe58415e0ac6a1e,63f3cfca20052e4ae7554ebf,6453ccff656291203d17b502,2023-05-04_17h20.10.251,ga_syllabified_check,2022.2.5,Win32,17.99661664,,,,,,,,,,,,,,./stim/p05_syllable_1_payielo_hit.wav,p05,payielo,hit,pai-yu-we-lo,pa-yie-lo,pa-yi-e-lo, ,-0.031481481,-0.290740741,1,0,0,1.5911,text_option_other,pa-yue-lo,0,190,190,98,1
5fac2995bbe58415e0ac6a1e,63f3cfca20052e4ae7554ebf,6453ccff656291203d17b502,2023-05-04_17h20.10.251,ga_syllabified_check,2022.2.5,Win32,17.99661664,,,,,,,,,,,,,,./stim/p03_syllable_1_lakagiaisto_hit.wav,p03,lakagiaisto,hit,la-ka-giais-to,la-ka-giais-to,la-ka-gi-ais-to,la-ka-gia-is-to,-0.344444444,-0.114814815,1,0,0,0.9691,text_option_1,,0,191,191,12,1
5fac2995bbe58415e0ac6a1e,63f3cfca20052e4ae7554ebf,6453ccff656291203d17b502,2023-05-04_17h20.10.251,ga_syllabified_check,2022.2.5,Win32,17.99661664,,,,,,,,,,,,,,./stim/p05_syllable_1_lakapuaisto_hit.wav,p05,lakapuaisto,hit,la-ka-pais-to,la-ka-puais-to,la-ka-pu-ais-to,la-ka-pua-is-to,-0.02962963,-0.299074074,1,0,0,2.9142,text_option_other,la-ka-pais-to,0,192,192,85,1
5fac2995bbe58415e0ac6a1e,63f3cfca20052e4ae7554ebf,6453ccff656291203d17b502,2023-05-04_17h20.10.251,ga_syllabified_check,2022.2.5,Win32,17.99661664,,,,,,,,,,,,,,./stim/p07_syllable_1_lakabiaisto_hit.wav,p07,lakabiaisto,hit,la-ka-bais-to,la-ka-biais-to,la-ka-bi-ais-to,la-ka-bia-is-to,0.090740741,-0.314814815,1,0,0,1.5072,text_option_other,la-ka-bais-to,0,193,193,142,1
5fac2995bbe58415e0ac6a1e,63f3cfca20052e4ae7554ebf,6453ccff656291203d17b502,2023-05-04_17h20.10.251,ga_syllabified_check,2022.2.5,Win32,17.99661664,,,,,,,,,,,,,,./stim/p04_syllable_1_rausto_hit.wav,p04,rausto,hit,raus-to,raus-to,ra-us-to, ,-0.428703704,-0.114814815,1,0,0,0.3456,text_option_1,,0,194,194,65,1
5fac2995bbe58415e0ac6a1e,63f3cfca20052e4ae7554ebf,6453ccff656291203d17b502,2023-05-04_17h20.10.251,ga_syllabified_check,2022.2.5,Win32,17.99661664,,,,,,,,,,,,,,./stim/p08_syllable_1_palumaisto_hit.wav,p08,palumaisto,hit,pa-lu-mais-to,pa-lu-mais-to,pa-lu-ma-is-to, ,-0.387962963,-0.109259259,1,0,0,1.7391,text_option_1,,0,195,195,198,1
5fac2995bbe58415e0ac6a1e,63f3cfca20052e4ae7554ebf,6453ccff656291203d17b502,2023-05-04_17h20.10.251,ga_syllabified_check,2022.2.5,Win32,17.99661664,,,,,,,,,,,,,,./stim/p06_syllable_1_mebochiana_hit.wav,p06,mebochiana,hit,me-bo-shi-a-na,me-bo-chia-na,me-bo-chi-a-na, ,0.416666667,-0.12037037,1,0,0,2.5982,text_option_2,,0,196,196,124,1
5fac2995bbe58415e0ac6a1e,63f3cfca20052e4ae7554ebf,6453ccff656291203d17b502,2023-05-04_17h20.10.251,ga_syllabified_check,2022.2.5,Win32,17.99661664,,,,,,,,,,,,,,./stim/p06_syllable_1_lakatiaisto_hit.wav,p06,lakatiaisto,hit,la-ka-pia-is-to,la-ka-tiais-to,la-ka-ti-ais-to,la-ka-tia-is-to,0.021296296,-0.109259259,1,0,0,5.3261,text_option_3,,0,197,197,120,1
5fac2995bbe58415e0ac6a1e,63f3cfca20052e4ae7554ebf,6453ccff656291203d17b502,2023-05-04_17h20.10.251,ga_syllabified_check,2022.2.5,Win32,17.99661664,,,,,,,,,,,,,,./stim/p03_syllable_1_lakakuaisto_hit.wav,p03,lakakuaisto,hit,la-ka-kuais-to,la-ka-kuais-to,la-ka-ku-ais-to,la-ka-kua-is-to,-0.359259259,-0.106481481,1,0,0,0.8118,text_option_1,,0,198,198,15,1
5fac2995bbe58415e0ac6a1e,63f3cfca20052e4ae7554ebf,6453ccff656291203d17b502,2023-05-04_17h20.10.251,ga_syllabified_check,2022.2.5,Win32,17.99661664,,,,,,,,,,,,,,./stim/p08_syllable_1_costonhialo_hit.wav,p08,costoñialo,hit,cos-to-nhia-lo,cos-to-ñia-lo,cos-to-ñi-a-lo, ,-0.350925926,-0.112962963,1,0,0,1.2775,text_option_1,,0,199,199,171,1
5fac2995bbe58415e0ac6a1e,63f3cfca20052e4ae7554ebf,6453ccff656291203d17b502,2023-05-04_17h20.10.251,ga_syllabified_check,2022.2.5,Win32,17.99661664,,,,,,,,,,,,,,./stim/p08_syllable_1_flauro_hit.wav,p08,flauro,hit,flau-ro,flau-ro,fla-u-ro, ,-0.397222222,-0.088888889,1,0,0,0.6176,text_option_1,,0,200,200,175,1
5fac2995bbe58415e0ac6a1e,63f3cfca20052e4ae7554ebf,6453ccff656291203d17b502,2023-05-04_17h20.10.251,ga_syllabified_check,2022.2.5,Win32,17.99661664,,,,,,,,,,,,,,./stim/p05_syllable_1_lakaduaisto_hit.wav,p05,lakaduaisto,hit,la-ka-dais-to,la-ka-duais-to,la-ka-du-ais-to,la-ka-dua-is-to,0.036111111,-0.296296296,1,0,0,1.1299,text_option_other,la-ka-dais-to,0,201,201,77,1
5fac2995bbe58415e0ac6a1e,63f3cfca20052e4ae7554ebf,6453ccff656291203d17b502,2023-05-04_17h20.10.251,ga_syllabified_check,2022.2.5,Win32,17.99661664,,,,,,,,,,,,,,./stim/p05_syllable_1_falutraigo_hit.wav,p05,falutraigo,hit,fa-lu-trai-go,fa-lu-trai-go,fa-lu-tra-i-go, ,-0.375,-0.108333333,1,0,0,4.0296,text_option_1,,0,202,202,72,1
5fac2995bbe58415e0ac6a1e,63f3cfca20052e4ae7554ebf,6453ccff656291203d17b502,2023-05-04_17h20.10.251,ga_syllabified_check,2022.2.5,Win32,17.99661664,,,,,,,,,,,,,,./stim/p05_syllable_1_lakakiaisto_hit.wav,p05,lakakiaisto,hit,la-ka-ki-ais-to,la-ka-kiais-to,la-ka-ki-ais-to,la-ka-kia-is-to,-0.343518519,-0.105555556,1,0,0,2.1658,text_option_1,,0,203,203,82,1
5fac2995bbe58415e0ac6a1e,63f3cfca20052e4ae7554ebf,6453ccff656291203d17b502,2023-05-04_17h20.10.251,ga_syllabified_check,2022.2.5,Win32,17.99661664,,,,,,,,,,,,,,,,,,,,,,,,,,,,,,,,,,
