participant,study,session,date,expName,psychopyVersion,OS,frameRate,mouse_practice.x,mouse_practice.y,mouse_practice.leftButton,mouse_practice.midButton,mouse_practice.rightButton,mouse_practice.time,mouse_practice.clicked_name,textbox_followup_practice.text,trials_practice.thisRepN,trials_practice.thisTrialN,trials_practice.thisN,trials_practice.thisIndex,trials_practice.ran,file_path,id,item,status,response,op1,op2,op3,mouse.x,mouse.y,mouse.leftButton,mouse.midButton,mouse.rightButton,mouse.time,mouse.clicked_name,textbox_followup.text,trials.thisRepN,trials.thisTrialN,trials.thisN,trials.thisIndex,trials.ran
605f820790a4cd988e086133,63f3cfca20052e4ae7554ebf,6453cb740446d9f7ba5db2aa,2023-05-04_17h21.04.545,ga_syllabified_check,2022.2.5,Win32,143.9677512,,,,,,,,,,,,,,,,,,,,,,,,,,,,,,,,,,
605f820790a4cd988e086133,63f3cfca20052e4ae7554ebf,6453cb740446d9f7ba5db2aa,2023-05-04_17h21.04.545,ga_syllabified_check,2022.2.5,Win32,143.9677512,-0.406481481,-0.1,1,0,0,2.9377,text_option_1_practice,,0,0,0,0,1,./stim/p03_syllable_1_liamo_hit.wav,p03,liamo,hit,lia-mo,lia-mo,li-a-mo, ,,,,,,,,,,,,,
605f820790a4cd988e086133,63f3cfca20052e4ae7554ebf,6453cb740446d9f7ba5db2aa,2023-05-04_17h21.04.545,ga_syllabified_check,2022.2.5,Win32,143.9677512,-0.398148148,-0.106481481,1,0,0,1.6389,text_option_1_practice,,0,1,1,1,1,./stim/p05_syllable_1_matio_hit.wav,p05,matio,hit,ma-tio,ma-tio,ma-ti-o, ,,,,,,,,,,,,,
605f820790a4cd988e086133,63f3cfca20052e4ae7554ebf,6453cb740446d9f7ba5db2aa,2023-05-04_17h21.04.545,ga_syllabified_check,2022.2.5,Win32,143.9677512,-0.419444444,-0.109259259,1,0,0,2.6597,text_option_1_practice,,0,2,2,2,1,./stim/p08_syllable_1_liamo_hit.wav,p08,liamo,hit,ja-mo,lia-mo,li-a-mo, ,,,,,,,,,,,,,
605f820790a4cd988e086133,63f3cfca20052e4ae7554ebf,6453cb740446d9f7ba5db2aa,2023-05-04_17h21.04.545,ga_syllabified_check,2022.2.5,Win32,143.9677512,,,,,,,,,,,,,,,,,,,,,,,,,,,,,,,,,,
605f820790a4cd988e086133,63f3cfca20052e4ae7554ebf,6453cb740446d9f7ba5db2aa,2023-05-04_17h21.04.545,ga_syllabified_check,2022.2.5,Win32,143.9677512,,,,,,,,,,,,,,./stim/p05_syllable_1_palufauro_hit.wav,p05,palufauro,hit,pa-lu-fau-ro,pa-lu-fau-ro,pa-lu-fa-u-ro, ,-0.375925926,-0.106481481,1,0,0,3.3126,text_option_1,,0,0,0,93,1
605f820790a4cd988e086133,63f3cfca20052e4ae7554ebf,6453cb740446d9f7ba5db2aa,2023-05-04_17h21.04.545,ga_syllabified_check,2022.2.5,Win32,143.9677512,,,,,,,,,,,,,,./stim/p06_syllable_1_costonhialo_hit.wav,p06,costoñialo,hit,cos-to-nhia-lo,cos-to-ñia-lo,cos-to-ñi-a-lo, ,-0.363888889,-0.107407407,1,0,0,2.806,text_option_1,,0,1,1,103,1
605f820790a4cd988e086133,63f3cfca20052e4ae7554ebf,6453cb740446d9f7ba5db2aa,2023-05-04_17h21.04.545,ga_syllabified_check,2022.2.5,Win32,143.9677512,,,,,,,,,,,,,,./stim/p03_syllable_1_ruyiola_hit.wav,p03,ruyiola,hit,ru-yio-la,ru-yio-la,ru-yi-o-la, ,-0.380555556,-0.107407407,1,0,0,0.9235,text_option_1,,0,2,2,32,1
605f820790a4cd988e086133,63f3cfca20052e4ae7554ebf,6453cb740446d9f7ba5db2aa,2023-05-04_17h21.04.545,ga_syllabified_check,2022.2.5,Win32,143.9677512,,,,,,,,,,,,,,./stim/p05_syllable_1_lakadiaisto_hit.wav,p05,lakadiaisto,hit,la-ka-di-ais-to,la-ka-diais-to,la-ka-di-ais-to,la-ka-dia-is-to,-0.322222222,-0.105555556,1,0,0,4.7502,text_option_1,,0,3,3,76,1
605f820790a4cd988e086133,63f3cfca20052e4ae7554ebf,6453cb740446d9f7ba5db2aa,2023-05-04_17h21.04.545,ga_syllabified_check,2022.2.5,Win32,143.9677512,,,,,,,,,,,,,,./stim/p05_syllable_1_lakakuaisto_hit.wav,p05,lakakuaisto,hit,la-ka-kais-to,la-ka-kuais-to,la-ka-ku-ais-to,la-ka-kua-is-to,0.412037037,-0.106481481,1,0,0,9.5487,text_option_2,,0,4,4,83,1
605f820790a4cd988e086133,63f3cfca20052e4ae7554ebf,6453cb740446d9f7ba5db2aa,2023-05-04_17h21.04.545,ga_syllabified_check,2022.2.5,Win32,143.9677512,,,,,,,,,,,,,,./stim/p04_syllable_1_lakakiaisto_hit.wav,p04,lakakiaisto,hit,la-ka-kiais-to,la-ka-kiais-to,la-ka-ki-ais-to,la-ka-kia-is-to,-0.426851852,-0.106481481,1,0,0,3.9932,text_option_1,,0,5,5,48,1
605f820790a4cd988e086133,63f3cfca20052e4ae7554ebf,6453cb740446d9f7ba5db2aa,2023-05-04_17h21.04.545,ga_syllabified_check,2022.2.5,Win32,143.9677512,,,,,,,,,,,,,,./stim/p05_syllable_1_lakafuaisto_hit.wav,p05,lakafuaisto,hit,la-ka-fais-to,la-ka-fuais-to,la-ka-fu-ais-to,la-ka-fua-is-to,-0.37962963,-0.102777778,1,0,0,1.4934,text_option_1,,0,6,6,79,1
605f820790a4cd988e086133,63f3cfca20052e4ae7554ebf,6453cb740446d9f7ba5db2aa,2023-05-04_17h21.04.545,ga_syllabified_check,2022.2.5,Win32,143.9677512,,,,,,,,,,,,,,./stim/p04_syllable_1_lakafiaisto_hit.wav,p04,lakafiaisto,hit,la-ka-fiais-to,la-ka-fiais-to,la-ka-fi-ais-to,la-ka-fia-is-to,-0.374074074,-0.110185185,1,0,0,1.6323,text_option_1,,0,7,7,44,1
605f820790a4cd988e086133,63f3cfca20052e4ae7554ebf,6453cb740446d9f7ba5db2aa,2023-05-04_17h21.04.545,ga_syllabified_check,2022.2.5,Win32,143.9677512,,,,,,,,,,,,,,./stim/p08_syllable_1_manhiala_hit.wav,p08,mañiala,hit,ma-nhia-la,ma-ñia-la,ma-ñi-a-la, ,-0.380555556,-0.097222222,1,0,0,2.1182,text_option_1,,0,8,8,191,1
605f820790a4cd988e086133,63f3cfca20052e4ae7554ebf,6453cb740446d9f7ba5db2aa,2023-05-04_17h21.04.545,ga_syllabified_check,2022.2.5,Win32,143.9677512,,,,,,,,,,,,,,./stim/p05_syllable_1_lakaguaisto_hit.wav,p05,lakaguaisto,hit,la-ka-gais,la-ka-guais-to,la-ka-gu-ais-to,la-ka-gua-is-to,-0.360185185,-0.10462963,1,0,0,1.2848,text_option_1,,0,9,9,81,1
605f820790a4cd988e086133,63f3cfca20052e4ae7554ebf,6453cb740446d9f7ba5db2aa,2023-05-04_17h21.04.545,ga_syllabified_check,2022.2.5,Win32,143.9677512,,,,,,,,,,,,,,./stim/p06_syllable_1_palufauro_hit.wav,p06,palufauro,hit,pa-lu-fau-ro,pa-lu-fau-ro,pa-lu-fa-u-ro, ,0.437962963,-0.112962963,1,0,0,4.3057,text_option_2,,0,10,10,127,1
605f820790a4cd988e086133,63f3cfca20052e4ae7554ebf,6453cb740446d9f7ba5db2aa,2023-05-04_17h21.04.545,ga_syllabified_check,2022.2.5,Win32,143.9677512,,,,,,,,,,,,,,./stim/p08_syllable_1_lakaguaisto_hit.wav,p08,lakaguaisto,hit,la-ka-gu-ais-to,la-ka-guais-to,la-ka-gu-ais-to,la-ka-gua-is-to,0.457407407,-0.108333333,1,0,0,3.4836,text_option_2,,0,11,11,183,1
605f820790a4cd988e086133,63f3cfca20052e4ae7554ebf,6453cb740446d9f7ba5db2aa,2023-05-04_17h21.04.545,ga_syllabified_check,2022.2.5,Win32,143.9677512,,,,,,,,,,,,,,./stim/p05_syllable_1_palutrauco_hit.wav,p05,palutrauco,hit,pa-lu-trai-co,pa-lu-trau-co,pa-lu-tra-u-co, ,-0.35462963,-0.105555556,1,0,0,2.4348,text_option_1,,0,12,12,97,1
605f820790a4cd988e086133,63f3cfca20052e4ae7554ebf,6453cb740446d9f7ba5db2aa,2023-05-04_17h21.04.545,ga_syllabified_check,2022.2.5,Win32,143.9677512,,,,,,,,,,,,,,./stim/p03_syllable_1_palumaisto_hit.wav,p03,palumaisto,hit,pa-lu-mais-to,pa-lu-mais-to,pa-lu-ma-is-to, ,-0.330555556,-0.111111111,1,0,0,2.5903,text_option_1,,0,13,13,28,1
605f820790a4cd988e086133,63f3cfca20052e4ae7554ebf,6453cb740446d9f7ba5db2aa,2023-05-04_17h21.04.545,ga_syllabified_check,2022.2.5,Win32,143.9677512,,,,,,,,,,,,,,./stim/p07_syllable_1_lakatuaisto_hit.wav,p07,lakatuaisto,hit,la-ka-tuais-to,la-ka-tuais-to,la-ka-tu-ais-to,la-ka-tua-is-to,-0.334259259,-0.112962963,1,0,0,3.1875,text_option_1,,0,14,14,155,1
605f820790a4cd988e086133,63f3cfca20052e4ae7554ebf,6453cb740446d9f7ba5db2aa,2023-05-04_17h21.04.545,ga_syllabified_check,2022.2.5,Win32,143.9677512,,,,,,,,,,,,,,./stim/p06_syllable_1_nhiape_hit.wav,p06,ñiape,hit,nhi-a-pe,ñia-pe,ñi-a-pe, ,0.397222222,-0.108333333,1,0,0,2.157,text_option_2,,0,15,15,125,1
605f820790a4cd988e086133,63f3cfca20052e4ae7554ebf,6453cb740446d9f7ba5db2aa,2023-05-04_17h21.04.545,ga_syllabified_check,2022.2.5,Win32,143.9677512,,,,,,,,,,,,,,./stim/p08_syllable_1_falutraigo_hit.wav,p08,falutraigo,hit,fa-lu-trai-go,fa-lu-trai-go,fa-lu-tra-i-go, ,-0.333333333,-0.112037037,1,0,0,2.7269,text_option_1,,0,16,16,174,1
605f820790a4cd988e086133,63f3cfca20052e4ae7554ebf,6453cb740446d9f7ba5db2aa,2023-05-04_17h21.04.545,ga_syllabified_check,2022.2.5,Win32,143.9677512,,,,,,,,,,,,,,./stim/p06_syllable_1_lakatiaisto_hit.wav,p06,lakatiaisto,hit,la-ka-pia-is-to,la-ka-tiais-to,la-ka-ti-ais-to,la-ka-tia-is-to,0.048148148,-0.103703704,1,0,0,3.7779,text_option_3,,0,17,17,120,1
605f820790a4cd988e086133,63f3cfca20052e4ae7554ebf,6453cb740446d9f7ba5db2aa,2023-05-04_17h21.04.545,ga_syllabified_check,2022.2.5,Win32,143.9677512,,,,,,,,,,,,,,./stim/p07_syllable_1_lakagiaisto_hit.wav,p07,lakagiaisto,hit,la-ka-gais-to,la-ka-giais-to,la-ka-gi-ais-to,la-ka-gia-is-to,-0.365740741,-0.108333333,1,0,0,7.4907,text_option_1,,0,18,18,148,1
605f820790a4cd988e086133,63f3cfca20052e4ae7554ebf,6453cb740446d9f7ba5db2aa,2023-05-04_17h21.04.545,ga_syllabified_check,2022.2.5,Win32,143.9677512,,,,,,,,,,,,,,./stim/p03_syllable_1_lakagiaisto_hit.wav,p03,lakagiaisto,hit,la-ka-giais-to,la-ka-giais-to,la-ka-gi-ais-to,la-ka-gia-is-to,-0.351851852,-0.110185185,1,0,0,2.007,text_option_1,,0,19,19,12,1
605f820790a4cd988e086133,63f3cfca20052e4ae7554ebf,6453cb740446d9f7ba5db2aa,2023-05-04_17h21.04.545,ga_syllabified_check,2022.2.5,Win32,143.9677512,,,,,,,,,,,,,,./stim/p03_syllable_1_lakaguaisto_hit.wav,p03,lakaguaisto,hit,la-ka-guais-to,la-ka-guais-to,la-ka-gu-ais-to,la-ka-gua-is-to,-0.331481481,-0.105555556,1,0,0,1.632,text_option_1,,0,20,20,13,1
605f820790a4cd988e086133,63f3cfca20052e4ae7554ebf,6453cb740446d9f7ba5db2aa,2023-05-04_17h21.04.545,ga_syllabified_check,2022.2.5,Win32,143.9677512,,,,,,,,,,,,,,./stim/p06_syllable_1_lakapiaisto_hit.wav,p06,lakapiaisto,hit,la-ka-pia-is-to,la-ka-piais-to,la-ka-pi-ais-to,la-ka-pia-is-to,0.018518519,-0.106481481,1,0,0,4.5556,text_option_3,,0,21,21,118,1
605f820790a4cd988e086133,63f3cfca20052e4ae7554ebf,6453cb740446d9f7ba5db2aa,2023-05-04_17h21.04.545,ga_syllabified_check,2022.2.5,Win32,143.9677512,,,,,,,,,,,,,,./stim/p07_syllable_1_lakaguaisto_hit.wav,p07,lakaguaisto,hit,la-ka-guais-to,la-ka-guais-to,la-ka-gu-ais-to,la-ka-gua-is-to,-0.408333333,-0.108333333,1,0,0,2.2264,text_option_1,,0,22,22,149,1
605f820790a4cd988e086133,63f3cfca20052e4ae7554ebf,6453cb740446d9f7ba5db2aa,2023-05-04_17h21.04.545,ga_syllabified_check,2022.2.5,Win32,143.9677512,,,,,,,,,,,,,,./stim/p05_syllable_1_chiaba_hit.wav,p05,chiaba,hit,chia-ba,chia-ba,chi-a-ba, ,-0.42037037,-0.105555556,1,0,0,1.4196,text_option_1,,0,23,23,68,1
605f820790a4cd988e086133,63f3cfca20052e4ae7554ebf,6453cb740446d9f7ba5db2aa,2023-05-04_17h21.04.545,ga_syllabified_check,2022.2.5,Win32,143.9677512,,,,,,,,,,,,,,./stim/p07_syllable_1_falutraigo_hit.wav,p07,falutraigo,hit,fa-lu-trai-go,fa-lu-trai-go,fa-lu-tra-i-go, ,-0.368518519,-0.109259259,1,0,0,2.2292,text_option_1,,0,24,24,140,1
605f820790a4cd988e086133,63f3cfca20052e4ae7554ebf,6453cb740446d9f7ba5db2aa,2023-05-04_17h21.04.545,ga_syllabified_check,2022.2.5,Win32,143.9677512,,,,,,,,,,,,,,./stim/p08_syllable_1_lakapiaisto_hit.wav,p08,lakapiaisto,hit,la-ka-pi-as-to,la-ka-piais-to,la-ka-pi-ais-to,la-ka-pia-is-to,0.05462963,-0.115740741,1,0,0,4.4722,text_option_3,,0,25,25,186,1
605f820790a4cd988e086133,63f3cfca20052e4ae7554ebf,6453cb740446d9f7ba5db2aa,2023-05-04_17h21.04.545,ga_syllabified_check,2022.2.5,Win32,143.9677512,,,,,,,,,,,,,,./stim/p08_syllable_1_costonhialo_hit.wav,p08,costoñialo,hit,cos-to-nhia-lo,cos-to-ñia-lo,cos-to-ñi-a-lo, ,-0.353703704,-0.096296296,1,0,0,3.0793,text_option_1,,0,26,26,171,1
605f820790a4cd988e086133,63f3cfca20052e4ae7554ebf,6453cb740446d9f7ba5db2aa,2023-05-04_17h21.04.545,ga_syllabified_check,2022.2.5,Win32,143.9677512,,,,,,,,,,,,,,./stim/p04_syllable_1_lakaguaisto_hit.wav,p04,lakaguaisto,hit,la-ka-guais-to,la-ka-guais-to,la-ka-gu-ais-to,la-ka-gua-is-to,-0.343518519,-0.115740741,1,0,0,2.0972,text_option_1,,0,27,27,47,1
605f820790a4cd988e086133,63f3cfca20052e4ae7554ebf,6453cb740446d9f7ba5db2aa,2023-05-04_17h21.04.545,ga_syllabified_check,2022.2.5,Win32,143.9677512,,,,,,,,,,,,,,./stim/p07_syllable_1_lakapuaisto_hit.wav,p07,lakapuaisto,hit,la-ka-puais-to,la-ka-puais-to,la-ka-pu-ais-to,la-ka-pua-is-to,-0.325,-0.109259259,1,0,0,3.0207,text_option_1,,0,28,28,153,1
605f820790a4cd988e086133,63f3cfca20052e4ae7554ebf,6453cb740446d9f7ba5db2aa,2023-05-04_17h21.04.545,ga_syllabified_check,2022.2.5,Win32,143.9677512,,,,,,,,,,,,,,./stim/p08_syllable_1_tuliafo_hit.wav,p08,tuliafo,hit,tu-li-a-fo,tu-lia-fo,tu-li-a-fo, ,0.408333333,-0.10462963,1,0,0,1.7987,text_option_2,,0,29,29,203,1
605f820790a4cd988e086133,63f3cfca20052e4ae7554ebf,6453cb740446d9f7ba5db2aa,2023-05-04_17h21.04.545,ga_syllabified_check,2022.2.5,Win32,143.9677512,,,,,,,,,,,,,,./stim/p05_syllable_1_lakatiaisto_hit.wav,p05,lakatiaisto,hit,la-ka-ti-ais-to,la-ka-tiais-to,la-ka-ti-ais-to,la-ka-tia-is-to,-0.423148148,-0.099074074,1,0,0,1.757,text_option_1,,0,30,30,86,1
605f820790a4cd988e086133,63f3cfca20052e4ae7554ebf,6453cb740446d9f7ba5db2aa,2023-05-04_17h21.04.545,ga_syllabified_check,2022.2.5,Win32,143.9677512,,,,,,,,,,,,,,./stim/p07_syllable_1_palumaisto_hit.wav,p07,palumaisto,hit,pa-lu-mais-to,pa-lu-mais-to,pa-lu-ma-is-to, ,-0.335185185,-0.107407407,1,0,0,2.5111,text_option_1,,0,31,31,164,1
605f820790a4cd988e086133,63f3cfca20052e4ae7554ebf,6453cb740446d9f7ba5db2aa,2023-05-04_17h21.04.545,ga_syllabified_check,2022.2.5,Win32,143.9677512,,,,,,,,,,,,,,./stim/p03_syllable_1_lakakiaisto_hit.wav,p03,lakakiaisto,hit,la-ka-kiais-to,la-ka-kiais-to,la-ka-ki-ais-to,la-ka-kia-is-to,-0.332407407,-0.10462963,1,0,0,1.8403,text_option_1,,0,32,32,14,1
605f820790a4cd988e086133,63f3cfca20052e4ae7554ebf,6453cb740446d9f7ba5db2aa,2023-05-04_17h21.04.545,ga_syllabified_check,2022.2.5,Win32,143.9677512,,,,,,,,,,,,,,./stim/p04_syllable_1_lakapiaisto_hit.wav,p04,lakapiaisto,hit,la-ka-piais-to,la-ka-piais-to,la-ka-pi-ais-to,la-ka-pia-is-to,-0.319444444,-0.1,1,0,0,1.2043,text_option_1,,0,33,33,50,1
605f820790a4cd988e086133,63f3cfca20052e4ae7554ebf,6453cb740446d9f7ba5db2aa,2023-05-04_17h21.04.545,ga_syllabified_check,2022.2.5,Win32,143.9677512,,,,,,,,,,,,,,./stim/p06_syllable_1_lakapuaisto_hit.wav,p06,lakapuaisto,hit,la-ka-pu-a-is,la-ka-puais-to,la-ka-pu-ais-to,la-ka-pua-is-to,0.024074074,-0.302777778,1,0,0,5.0377,text_option_other,la-ka-pu-a-is-to,0,34,34,119,1
605f820790a4cd988e086133,63f3cfca20052e4ae7554ebf,6453cb740446d9f7ba5db2aa,2023-05-04_17h21.04.545,ga_syllabified_check,2022.2.5,Win32,143.9677512,,,,,,,,,,,,,,./stim/p07_syllable_1_lliape_hit.wav,p07,lliape,hit,lliai-pe,llia-pe,lli-a-pe, ,-0.398148148,-0.112962963,1,0,0,1.4241,text_option_1,,0,35,35,156,1
605f820790a4cd988e086133,63f3cfca20052e4ae7554ebf,6453cb740446d9f7ba5db2aa,2023-05-04_17h21.04.545,ga_syllabified_check,2022.2.5,Win32,143.9677512,,,,,,,,,,,,,,./stim/p07_syllable_1_rausto_hit.wav,p07,rausto,hit,raus-to,raus-to,ra-us-to, ,-0.389814815,-0.105555556,1,0,0,1.5097,text_option_1,,0,36,36,167,1
605f820790a4cd988e086133,63f3cfca20052e4ae7554ebf,6453cb740446d9f7ba5db2aa,2023-05-04_17h21.04.545,ga_syllabified_check,2022.2.5,Win32,143.9677512,,,,,,,,,,,,,,./stim/p07_syllable_1_lakakuaisto_hit.wav,p07,lakakuaisto,hit,la-ka-kuais-to,la-ka-kuais-to,la-ka-ku-ais-to,la-ka-kua-is-to,-0.338888889,-0.101851852,1,0,0,2.7407,text_option_1,,0,37,37,151,1
605f820790a4cd988e086133,63f3cfca20052e4ae7554ebf,6453cb740446d9f7ba5db2aa,2023-05-04_17h21.04.545,ga_syllabified_check,2022.2.5,Win32,143.9677512,,,,,,,,,,,,,,./stim/p05_syllable_1_falufaisto_hit.wav,p05,falufaisto,hit,fa-lu-fais-to,fa-lu-fais-to,fa-lu-fa-is-to, ,-0.34537037,-0.090740741,1,0,0,0.8194,text_option_1,,0,38,38,71,1
605f820790a4cd988e086133,63f3cfca20052e4ae7554ebf,6453cb740446d9f7ba5db2aa,2023-05-04_17h21.04.545,ga_syllabified_check,2022.2.5,Win32,143.9677512,,,,,,,,,,,,,,./stim/p04_syllable_1_lakabuaisto_hit.wav,p04,lakabuaisto,hit,la-ka-buais-to,la-ka-buais-to,la-ka-bu-ais-to,la-ka-bua-is-to,-0.324074074,-0.103703704,1,0,0,0.8472,text_option_1,,0,39,39,41,1
605f820790a4cd988e086133,63f3cfca20052e4ae7554ebf,6453cb740446d9f7ba5db2aa,2023-05-04_17h21.04.545,ga_syllabified_check,2022.2.5,Win32,143.9677512,,,,,,,,,,,,,,./stim/p04_syllable_1_lliape_hit.wav,p04,lliape,hit,lia-pe,llia-pe,lli-a-pe, ,-0.388888889,-0.100925926,1,0,0,0.3934,text_option_1,,0,40,40,54,1
605f820790a4cd988e086133,63f3cfca20052e4ae7554ebf,6453cb740446d9f7ba5db2aa,2023-05-04_17h21.04.545,ga_syllabified_check,2022.2.5,Win32,143.9677512,,,,,,,,,,,,,,./stim/p05_syllable_1_palufauto_hit.wav,p05,palufauto,hit,pa-lu-fau-to,pa-lu-fau-to,pa-lu-fa-u-to, ,-0.35462963,-0.090740741,1,0,0,1.4819,text_option_1,,0,41,41,94,1
605f820790a4cd988e086133,63f3cfca20052e4ae7554ebf,6453cb740446d9f7ba5db2aa,2023-05-04_17h21.04.545,ga_syllabified_check,2022.2.5,Win32,143.9677512,,,,,,,,,,,,,,./stim/p06_syllable_1_faluduako_hit.wav,p06,faluduako,hit,fa-lu-dua-ko,fa-lu-dua-ko,fa-lu-du-a-ko, ,0.436111111,-0.107407407,1,0,0,3.0342,text_option_2,,0,42,42,104,1
605f820790a4cd988e086133,63f3cfca20052e4ae7554ebf,6453cb740446d9f7ba5db2aa,2023-05-04_17h21.04.545,ga_syllabified_check,2022.2.5,Win32,143.9677512,,,,,,,,,,,,,,./stim/p04_syllable_1_rausto_hit.wav,p04,rausto,hit,raus-to,raus-to,ra-us-to, ,-0.37962963,-0.09537037,1,0,0,0.3471,text_option_1,,0,43,43,65,1
605f820790a4cd988e086133,63f3cfca20052e4ae7554ebf,6453cb740446d9f7ba5db2aa,2023-05-04_17h21.04.545,ga_syllabified_check,2022.2.5,Win32,143.9677512,,,,,,,,,,,,,,./stim/p06_syllable_1_falutraigo_hit.wav,p06,falutraigo,hit,fa-lu-tra-i-go,fa-lu-trai-go,fa-lu-tra-i-go, ,0.421296296,-0.098148148,1,0,0,3.1182,text_option_2,,0,44,44,106,1
605f820790a4cd988e086133,63f3cfca20052e4ae7554ebf,6453cb740446d9f7ba5db2aa,2023-05-04_17h21.04.545,ga_syllabified_check,2022.2.5,Win32,143.9677512,,,,,,,,,,,,,,./stim/p08_syllable_1_lakabiaisto_hit.wav,p08,lakabiaisto,hit,la-ka-bi-as-to,la-ka-biais-to,la-ka-bi-ais-to,la-ka-bia-is-to,0.45,-0.094444444,1,0,0,3.4751,text_option_2,,0,45,45,176,1
605f820790a4cd988e086133,63f3cfca20052e4ae7554ebf,6453cb740446d9f7ba5db2aa,2023-05-04_17h21.04.545,ga_syllabified_check,2022.2.5,Win32,143.9677512,,,,,,,,,,,,,,./stim/p05_syllable_1_lakaduaisto_hit.wav,p05,lakaduaisto,hit,la-ka-dais-to,la-ka-duais-to,la-ka-du-ais-to,la-ka-dua-is-to,-0.412037037,-0.111111111,1,0,0,2.4306,text_option_1,,0,46,46,77,1
605f820790a4cd988e086133,63f3cfca20052e4ae7554ebf,6453cb740446d9f7ba5db2aa,2023-05-04_17h21.04.545,ga_syllabified_check,2022.2.5,Win32,143.9677512,,,,,,,,,,,,,,./stim/p07_syllable_1_tuliafo_hit.wav,p07,tuliafo,hit,tu-lia-fo,tu-lia-fo,tu-li-a-fo, ,-0.447222222,-0.087962963,1,0,0,1.2292,text_option_1,,0,47,47,169,1
605f820790a4cd988e086133,63f3cfca20052e4ae7554ebf,6453cb740446d9f7ba5db2aa,2023-05-04_17h21.04.545,ga_syllabified_check,2022.2.5,Win32,143.9677512,,,,,,,,,,,,,,./stim/p06_syllable_1_lakafuaisto_hit.wav,p06,lakafuaisto,hit,la-ka-fu-a-is,la-ka-fuais-to,la-ka-fu-ais-to,la-ka-fua-is-to,0.017592593,-0.312037037,1,0,0,4.25,text_option_other,la-ka-fu-a-is-to,0,48,48,113,1
605f820790a4cd988e086133,63f3cfca20052e4ae7554ebf,6453cb740446d9f7ba5db2aa,2023-05-04_17h21.04.545,ga_syllabified_check,2022.2.5,Win32,143.9677512,,,,,,,,,,,,,,./stim/p08_syllable_1_palufauto_hit.wav,p08,palufauto,hit,pa-lu-fau-to,pa-lu-fau-to,pa-lu-fa-u-to, ,-0.337037037,-0.10462963,1,0,0,2.368,text_option_1,,0,49,49,196,1
605f820790a4cd988e086133,63f3cfca20052e4ae7554ebf,6453cb740446d9f7ba5db2aa,2023-05-04_17h21.04.545,ga_syllabified_check,2022.2.5,Win32,143.9677512,,,,,,,,,,,,,,./stim/p07_syllable_1_manhiala_hit.wav,p07,mañiala,hit,ma-nhia-la,ma-ñia-la,ma-ñi-a-la, ,-0.397222222,-0.100925926,1,0,0,2.1875,text_option_1,,0,50,50,157,1
605f820790a4cd988e086133,63f3cfca20052e4ae7554ebf,6453cb740446d9f7ba5db2aa,2023-05-04_17h21.04.545,ga_syllabified_check,2022.2.5,Win32,143.9677512,,,,,,,,,,,,,,./stim/p07_syllable_1_nhiape_hit.wav,p07,ñiape,hit,nhia-pe,ñia-pe,ñi-a-pe, ,-0.389814815,-0.110185185,1,0,0,1.0139,text_option_1,,0,51,51,159,1
605f820790a4cd988e086133,63f3cfca20052e4ae7554ebf,6453cb740446d9f7ba5db2aa,2023-05-04_17h21.04.545,ga_syllabified_check,2022.2.5,Win32,143.9677512,,,,,,,,,,,,,,./stim/p05_syllable_1_pachialo_hit.wav,p05,pachialo,hit,pan-chia-lo,pa-chia-lo,pa-chi-a-lo, ,-0.369444444,-0.10462963,1,0,0,3.3194,text_option_1,,0,52,52,92,1
605f820790a4cd988e086133,63f3cfca20052e4ae7554ebf,6453cb740446d9f7ba5db2aa,2023-05-04_17h21.04.545,ga_syllabified_check,2022.2.5,Win32,143.9677512,,,,,,,,,,,,,,./stim/p05_syllable_1_payielo_hit.wav,p05,payielo,hit,pai-yu-we-lo,pa-yie-lo,pa-yi-e-lo, ,-0.425925926,-0.114814815,1,0,0,3.7113,text_option_1,,0,53,53,98,1
605f820790a4cd988e086133,63f3cfca20052e4ae7554ebf,6453cb740446d9f7ba5db2aa,2023-05-04_17h21.04.545,ga_syllabified_check,2022.2.5,Win32,143.9677512,,,,,,,,,,,,,,./stim/p08_syllable_1_lliape_hit.wav,p08,lliape,hit,li-a-pe,llia-pe,lli-a-pe, ,0.433333333,-0.113888889,1,0,0,1.778,text_option_2,,0,54,54,190,1
605f820790a4cd988e086133,63f3cfca20052e4ae7554ebf,6453cb740446d9f7ba5db2aa,2023-05-04_17h21.04.545,ga_syllabified_check,2022.2.5,Win32,143.9677512,,,,,,,,,,,,,,./stim/p08_syllable_1_chiaba_hit.wav,p08,chiaba,hit,chi-a-ba,chia-ba,chi-a-ba, ,0.455555556,-0.1,1,0,0,0.8056,text_option_2,,0,55,55,170,1
605f820790a4cd988e086133,63f3cfca20052e4ae7554ebf,6453cb740446d9f7ba5db2aa,2023-05-04_17h21.04.545,ga_syllabified_check,2022.2.5,Win32,143.9677512,,,,,,,,,,,,,,./stim/p04_syllable_1_mebochiana_hit.wav,p04,mebochiana,hit,me-bo-chia-na,me-bo-chia-na,me-bo-chi-a-na, ,-0.347222222,-0.1,1,0,0,1.5486,text_option_1,,0,56,56,56,1
605f820790a4cd988e086133,63f3cfca20052e4ae7554ebf,6453cb740446d9f7ba5db2aa,2023-05-04_17h21.04.545,ga_syllabified_check,2022.2.5,Win32,143.9677512,,,,,,,,,,,,,,./stim/p08_syllable_1_lakakuaisto_hit.wav,p08,lakakuaisto,hit,la-ka-ku-ais-to,la-ka-kuais-to,la-ka-ku-ais-to,la-ka-kua-is-to,0.07037037,-0.102777778,1,0,0,4.1598,text_option_3,,0,57,57,185,1
605f820790a4cd988e086133,63f3cfca20052e4ae7554ebf,6453cb740446d9f7ba5db2aa,2023-05-04_17h21.04.545,ga_syllabified_check,2022.2.5,Win32,143.9677512,,,,,,,,,,,,,,./stim/p05_syllable_1_tuliafo_hit.wav,p05,tuliafo,hit,tu-lai-fo,tu-lia-fo,tu-li-a-fo, ,-0.367592593,-0.100925926,1,0,0,3.8821,text_option_1,,0,58,58,101,1
605f820790a4cd988e086133,63f3cfca20052e4ae7554ebf,6453cb740446d9f7ba5db2aa,2023-05-04_17h21.04.545,ga_syllabified_check,2022.2.5,Win32,143.9677512,,,,,,,,,,,,,,./stim/p08_syllable_1_ruyiola_hit.wav,p08,ruyiola,hit,ru-yio-la,ru-yio-la,ru-yi-o-la, ,-0.372222222,-0.1,1,0,0,0.962,text_option_1,,0,59,59,202,1
605f820790a4cd988e086133,63f3cfca20052e4ae7554ebf,6453cb740446d9f7ba5db2aa,2023-05-04_17h21.04.545,ga_syllabified_check,2022.2.5,Win32,143.9677512,,,,,,,,,,,,,,./stim/p07_syllable_1_lakabiaisto_hit.wav,p07,lakabiaisto,hit,la-ka-bais-to,la-ka-biais-to,la-ka-bi-ais-to,la-ka-bia-is-to,-0.360185185,-0.106481481,1,0,0,2.3821,text_option_1,,0,60,60,142,1
605f820790a4cd988e086133,63f3cfca20052e4ae7554ebf,6453cb740446d9f7ba5db2aa,2023-05-04_17h21.04.545,ga_syllabified_check,2022.2.5,Win32,143.9677512,,,,,,,,,,,,,,./stim/p06_syllable_1_lakaduaisto_hit.wav,p06,lakaduaisto,hit,la-ka-du-a-is,la-ka-duais-to,la-ka-du-ais-to,la-ka-dua-is-to,0.033333333,-0.306481481,1,0,0,4.403,text_option_other,la-ka-du-a-is-to,0,61,61,111,1
605f820790a4cd988e086133,63f3cfca20052e4ae7554ebf,6453cb740446d9f7ba5db2aa,2023-05-04_17h21.04.545,ga_syllabified_check,2022.2.5,Win32,143.9677512,,,,,,,,,,,,,,./stim/p03_syllable_1_chiaba_hit.wav,p03,chiaba,hit,chia-ba,chia-ba,chi-a-ba, ,-0.378703704,-0.1,1,0,0,0.4722,text_option_1,,0,62,62,0,1
605f820790a4cd988e086133,63f3cfca20052e4ae7554ebf,6453cb740446d9f7ba5db2aa,2023-05-04_17h21.04.545,ga_syllabified_check,2022.2.5,Win32,143.9677512,,,,,,,,,,,,,,./stim/p07_syllable_1_lakaduaisto_hit.wav,p07,lakaduaisto,hit,la-ka-duais-to,la-ka-duais-to,la-ka-du-ais-to,la-ka-dua-is-to,-0.400925926,-0.094444444,1,0,0,1.8542,text_option_1,,0,63,63,145,1
605f820790a4cd988e086133,63f3cfca20052e4ae7554ebf,6453cb740446d9f7ba5db2aa,2023-05-04_17h21.04.545,ga_syllabified_check,2022.2.5,Win32,143.9677512,,,,,,,,,,,,,,./stim/p03_syllable_1_lakafiaisto_hit.wav,p03,lakafiaisto,hit,la-ka-fiais-to,la-ka-fiais-to,la-ka-fi-ais-to,la-ka-fia-is-to,-0.356481481,-0.110185185,1,0,0,1.0117,text_option_1,,0,64,64,10,1
605f820790a4cd988e086133,63f3cfca20052e4ae7554ebf,6453cb740446d9f7ba5db2aa,2023-05-04_17h21.04.545,ga_syllabified_check,2022.2.5,Win32,143.9677512,,,,,,,,,,,,,,./stim/p07_syllable_1_paluguato_hit.wav,p07,paluguato,hit,pa-lu-gua-to,pa-lu-gua-to,pa-lu-gu-a-to, ,-0.35,-0.105555556,1,0,0,1.5068,text_option_1,,0,65,65,163,1
605f820790a4cd988e086133,63f3cfca20052e4ae7554ebf,6453cb740446d9f7ba5db2aa,2023-05-04_17h21.04.545,ga_syllabified_check,2022.2.5,Win32,143.9677512,,,,,,,,,,,,,,./stim/p03_syllable_1_rausto_hit.wav,p03,rausto,hit,raus-to,raus-to,ra-us-to, ,-0.357407407,-0.096296296,1,0,0,0.6364,text_option_1,,0,66,66,31,1
605f820790a4cd988e086133,63f3cfca20052e4ae7554ebf,6453cb740446d9f7ba5db2aa,2023-05-04_17h21.04.545,ga_syllabified_check,2022.2.5,Win32,143.9677512,,,,,,,,,,,,,,./stim/p06_syllable_1_palutrauco_hit.wav,p06,palutrauco,hit,pa-lu-tra-u-co,pa-lu-trau-co,pa-lu-tra-u-co, ,0.444444444,-0.108333333,1,0,0,2.4626,text_option_2,,0,67,67,131,1
605f820790a4cd988e086133,63f3cfca20052e4ae7554ebf,6453cb740446d9f7ba5db2aa,2023-05-04_17h21.04.545,ga_syllabified_check,2022.2.5,Win32,143.9677512,,,,,,,,,,,,,,./stim/p05_syllable_1_costonhialo_hit.wav,p05,costoñialo,hit,cos-to-nhia-lo,cos-to-ñia-lo,cos-to-ñi-a-lo, ,-0.40462963,-0.093518519,1,0,0,1.1506,text_option_1,,0,68,68,69,1
605f820790a4cd988e086133,63f3cfca20052e4ae7554ebf,6453cb740446d9f7ba5db2aa,2023-05-04_17h21.04.545,ga_syllabified_check,2022.2.5,Win32,143.9677512,,,,,,,,,,,,,,./stim/p03_syllable_1_lakadiaisto_hit.wav,p03,lakadiaisto,hit,la-ka-diais-to,la-ka-diais-to,la-ka-di-ais-to,la-ka-dia-is-to,-0.362037037,-0.117592593,1,0,0,1.5307,text_option_1,,0,69,69,8,1
605f820790a4cd988e086133,63f3cfca20052e4ae7554ebf,6453cb740446d9f7ba5db2aa,2023-05-04_17h21.04.545,ga_syllabified_check,2022.2.5,Win32,143.9677512,,,,,,,,,,,,,,./stim/p04_syllable_1_flauro_hit.wav,p04,flauro,hit,flau-ro,flau-ro,fla-u-ro, ,-0.356481481,-0.07962963,1,0,0,0.3781,text_option_1,,0,70,70,39,1
605f820790a4cd988e086133,63f3cfca20052e4ae7554ebf,6453cb740446d9f7ba5db2aa,2023-05-04_17h21.04.545,ga_syllabified_check,2022.2.5,Win32,143.9677512,,,,,,,,,,,,,,./stim/p08_syllable_1_rausto_hit.wav,p08,rausto,hit,raus-to,raus-to,ra-us-to, ,-0.375,-0.096296296,1,0,0,0.6598,text_option_1,,0,71,71,201,1
605f820790a4cd988e086133,63f3cfca20052e4ae7554ebf,6453cb740446d9f7ba5db2aa,2023-05-04_17h21.04.545,ga_syllabified_check,2022.2.5,Win32,143.9677512,,,,,,,,,,,,,,./stim/p03_syllable_1_payielo_hit.wav,p03,payielo,hit,pa-yie-lo,pa-yie-lo,pa-yi-e-lo, ,-0.391666667,-0.10462963,1,0,0,0.7319,text_option_1,,0,72,72,30,1
605f820790a4cd988e086133,63f3cfca20052e4ae7554ebf,6453cb740446d9f7ba5db2aa,2023-05-04_17h21.04.545,ga_syllabified_check,2022.2.5,Win32,143.9677512,,,,,,,,,,,,,,./stim/p08_syllable_1_pachialo_hit.wav,p08,pachialo,hit,pa-chi-ja-lo,pa-chia-lo,pa-chi-a-lo, ,0.441666667,-0.10462963,1,0,0,1.2222,text_option_2,,0,73,73,194,1
605f820790a4cd988e086133,63f3cfca20052e4ae7554ebf,6453cb740446d9f7ba5db2aa,2023-05-04_17h21.04.545,ga_syllabified_check,2022.2.5,Win32,143.9677512,,,,,,,,,,,,,,./stim/p06_syllable_1_chiaba_hit.wav,p06,chiaba,hit,chi-a-ba,chia-ba,chi-a-ba, ,-0.409259259,-0.086111111,1,0,0,1.4033,text_option_1,,0,74,74,102,1
605f820790a4cd988e086133,63f3cfca20052e4ae7554ebf,6453cb740446d9f7ba5db2aa,2023-05-04_17h21.04.545,ga_syllabified_check,2022.2.5,Win32,143.9677512,,,,,,,,,,,,,,./stim/p03_syllable_1_pachialo_hit.wav,p03,pachialo,hit,pa-chia-lo,pa-chia-lo,pa-chi-a-lo, ,-0.364814815,-0.110185185,1,0,0,0.7291,text_option_1,,0,75,75,24,1
605f820790a4cd988e086133,63f3cfca20052e4ae7554ebf,6453cb740446d9f7ba5db2aa,2023-05-04_17h21.04.545,ga_syllabified_check,2022.2.5,Win32,143.9677512,,,,,,,,,,,,,,./stim/p04_syllable_1_palumaisto_hit.wav,p04,palumaisto,hit,pa-lu-mais-to,pa-lu-mais-to,pa-lu-ma-is-to, ,-0.349074074,-0.107407407,1,0,0,2.1764,text_option_1,,0,76,76,62,1
605f820790a4cd988e086133,63f3cfca20052e4ae7554ebf,6453cb740446d9f7ba5db2aa,2023-05-04_17h21.04.545,ga_syllabified_check,2022.2.5,Win32,143.9677512,,,,,,,,,,,,,,./stim/p06_syllable_1_lakatuaisto_hit.wav,p06,lakatuaisto,hit,la-ka-tu-a-is,la-ka-tuais-to,la-ka-tu-ais-to,la-ka-tua-is-to,0.449074074,-0.108333333,1,0,0,3.2293,text_option_2,,0,77,77,121,1
605f820790a4cd988e086133,63f3cfca20052e4ae7554ebf,6453cb740446d9f7ba5db2aa,2023-05-04_17h21.04.545,ga_syllabified_check,2022.2.5,Win32,143.9677512,,,,,,,,,,,,,,./stim/p06_syllable_1_lakabiaisto_hit.wav,p06,lakabiaisto,hit,la-ka-bia-is-to,la-ka-biais-to,la-ka-bi-ais-to,la-ka-bia-is-to,0,-0.103703704,1,0,0,3.8402,text_option_3,,0,78,78,108,1
605f820790a4cd988e086133,63f3cfca20052e4ae7554ebf,6453cb740446d9f7ba5db2aa,2023-05-04_17h21.04.545,ga_syllabified_check,2022.2.5,Win32,143.9677512,,,,,,,,,,,,,,./stim/p04_syllable_1_lakafuaisto_hit.wav,p04,lakafuaisto,hit,la-ka-fuais-to,la-ka-fuais-to,la-ka-fu-ais-to,la-ka-fua-is-to,0.021296296,-0.113888889,1,0,0,0.9167,text_option_3,,0,79,79,45,1
605f820790a4cd988e086133,63f3cfca20052e4ae7554ebf,6453cb740446d9f7ba5db2aa,2023-05-04_17h21.04.545,ga_syllabified_check,2022.2.5,Win32,143.9677512,,,,,,,,,,,,,,./stim/p05_syllable_1_ruyiola_hit.wav,p05,ruyiola,hit,ru-yio-la,ru-yio-la,ru-yi-o-la, ,-0.342592593,-0.113888889,1,0,0,0.9445,text_option_1,,0,80,80,100,1
605f820790a4cd988e086133,63f3cfca20052e4ae7554ebf,6453cb740446d9f7ba5db2aa,2023-05-04_17h21.04.545,ga_syllabified_check,2022.2.5,Win32,143.9677512,,,,,,,,,,,,,,./stim/p06_syllable_1_lakafiaisto_hit.wav,p06,lakafiaisto,hit,la-ka-fia-is-to,la-ka-fiais-to,la-ka-fi-ais-to,la-ka-fia-is-to,0.041666667,-0.10462963,1,0,0,3.8055,text_option_3,,0,81,81,112,1
605f820790a4cd988e086133,63f3cfca20052e4ae7554ebf,6453cb740446d9f7ba5db2aa,2023-05-04_17h21.04.545,ga_syllabified_check,2022.2.5,Win32,143.9677512,,,,,,,,,,,,,,./stim/p06_syllable_1_lakadiaisto_hit.wav,p06,lakadiaisto,hit,la-ka-dia-is-to,la-ka-diais-to,la-ka-di-ais-to,la-ka-dia-is-to,0.025925926,-0.109259259,1,0,0,2.4653,text_option_3,,0,82,82,110,1
605f820790a4cd988e086133,63f3cfca20052e4ae7554ebf,6453cb740446d9f7ba5db2aa,2023-05-04_17h21.04.545,ga_syllabified_check,2022.2.5,Win32,143.9677512,,,,,,,,,,,,,,./stim/p04_syllable_1_lakabiaisto_hit.wav,p04,lakabiaisto,hit,la-ka-biais-to,la-ka-biais-to,la-ka-bi-ais-to,la-ka-bia-is-to,-0.317592593,-0.088888889,1,0,0,1.6043,text_option_1,,0,83,83,40,1
605f820790a4cd988e086133,63f3cfca20052e4ae7554ebf,6453cb740446d9f7ba5db2aa,2023-05-04_17h21.04.545,ga_syllabified_check,2022.2.5,Win32,143.9677512,,,,,,,,,,,,,,./stim/p04_syllable_1_lakadiaisto_hit.wav,p04,lakadiaisto,hit,la-ka-dias-to,la-ka-diais-to,la-ka-di-ais-to,la-ka-dia-is-to,-0.318518519,-0.100925926,1,0,0,1.1876,text_option_1,,0,84,84,42,1
605f820790a4cd988e086133,63f3cfca20052e4ae7554ebf,6453cb740446d9f7ba5db2aa,2023-05-04_17h21.04.545,ga_syllabified_check,2022.2.5,Win32,143.9677512,,,,,,,,,,,,,,./stim/p08_syllable_1_lakakiaisto_hit.wav,p08,lakakiaisto,hit,la-ka-ki-jas-to,la-ka-kiais-to,la-ka-ki-ais-to,la-ka-kia-is-to,0.389814815,-0.107407407,1,0,0,3.493,text_option_2,,0,85,85,184,1
605f820790a4cd988e086133,63f3cfca20052e4ae7554ebf,6453cb740446d9f7ba5db2aa,2023-05-04_17h21.04.545,ga_syllabified_check,2022.2.5,Win32,143.9677512,,,,,,,,,,,,,,./stim/p08_syllable_1_falufaisto_hit.wav,p08,falufaisto,hit,fa-lu-fais-to,fa-lu-fais-to,fa-lu-fa-is-to, ,-0.390740741,-0.105555556,1,0,0,2.6707,text_option_1,,0,86,86,173,1
605f820790a4cd988e086133,63f3cfca20052e4ae7554ebf,6453cb740446d9f7ba5db2aa,2023-05-04_17h21.04.545,ga_syllabified_check,2022.2.5,Win32,143.9677512,,,,,,,,,,,,,,./stim/p05_syllable_1_lakatuaisto_hit.wav,p05,lakatuaisto,hit,la-ka-tais-to,la-ka-tuais-to,la-ka-tu-ais-to,la-ka-tua-is-to,-0.340740741,-0.09537037,1,0,0,2.9559,text_option_1,,0,87,87,87,1
605f820790a4cd988e086133,63f3cfca20052e4ae7554ebf,6453cb740446d9f7ba5db2aa,2023-05-04_17h21.04.545,ga_syllabified_check,2022.2.5,Win32,143.9677512,,,,,,,,,,,,,,./stim/p04_syllable_1_paluguato_hit.wav,p04,paluguato,hit,pa-lu-gua,pa-lu-gua-to,pa-lu-gu-a-to, ,-0.340740741,-0.103703704,1,0,0,2.6458,text_option_1,,0,88,88,61,1
605f820790a4cd988e086133,63f3cfca20052e4ae7554ebf,6453cb740446d9f7ba5db2aa,2023-05-04_17h21.04.545,ga_syllabified_check,2022.2.5,Win32,143.9677512,,,,,,,,,,,,,,./stim/p05_syllable_1_manhiala_hit.wav,p05,mañiala,hit,ma-nhia-la,ma-ñia-la,ma-ñi-a-la, ,-0.373148148,-0.100925926,1,0,0,0.6818,text_option_1,,0,89,89,89,1
605f820790a4cd988e086133,63f3cfca20052e4ae7554ebf,6453cb740446d9f7ba5db2aa,2023-05-04_17h21.04.545,ga_syllabified_check,2022.2.5,Win32,143.9677512,,,,,,,,,,,,,,./stim/p06_syllable_1_lakabuaisto_hit.wav,p06,lakabuaisto,hit,la-ka-bu-a-is,la-ka-buais-to,la-ka-bu-ais-to,la-ka-bua-is-to,0.040740741,-0.302777778,1,0,0,6.7432,text_option_other,la-ka-bu-a-is-to,0,90,90,109,1
605f820790a4cd988e086133,63f3cfca20052e4ae7554ebf,6453cb740446d9f7ba5db2aa,2023-05-04_17h21.04.545,ga_syllabified_check,2022.2.5,Win32,143.9677512,,,,,,,,,,,,,,./stim/p06_syllable_1_lakaguaisto_hit.wav,p06,lakaguaisto,hit,la-ka-gu-a-is,la-ka-guais-to,la-ka-gu-ais-to,la-ka-gua-is-to,0.032407407,-0.306481481,1,0,0,4.6389,text_option_other,la-ka-gu-a-is-to,0,91,91,115,1
605f820790a4cd988e086133,63f3cfca20052e4ae7554ebf,6453cb740446d9f7ba5db2aa,2023-05-04_17h21.04.545,ga_syllabified_check,2022.2.5,Win32,143.9677512,,,,,,,,,,,,,,./stim/p04_syllable_1_faluduako_hit.wav,p04,faluduako,hit,fa-lu-dua-ko,fa-lu-dua-ko,fa-lu-du-a-ko, ,-0.351851852,-0.107407407,1,0,0,0.5485,text_option_1,,0,92,92,36,1
605f820790a4cd988e086133,63f3cfca20052e4ae7554ebf,6453cb740446d9f7ba5db2aa,2023-05-04_17h21.04.545,ga_syllabified_check,2022.2.5,Win32,143.9677512,,,,,,,,,,,,,,./stim/p07_syllable_1_lakakiaisto_hit.wav,p07,lakakiaisto,hit,la-ka-kais-to,la-ka-kiais-to,la-ka-ki-ais-to,la-ka-kia-is-to,-0.450925926,-0.089814815,1,0,0,1.7501,text_option_1,,0,93,93,150,1
605f820790a4cd988e086133,63f3cfca20052e4ae7554ebf,6453cb740446d9f7ba5db2aa,2023-05-04_17h21.04.545,ga_syllabified_check,2022.2.5,Win32,143.9677512,,,,,,,,,,,,,,./stim/p03_syllable_1_mebochiana_hit.wav,p03,mebochiana,hit,me-bo-chia-na,me-bo-chia-na,me-bo-chi-a-na, ,-0.308333333,-0.101851852,1,0,0,1.2848,text_option_1,,0,94,94,22,1
605f820790a4cd988e086133,63f3cfca20052e4ae7554ebf,6453cb740446d9f7ba5db2aa,2023-05-04_17h21.04.545,ga_syllabified_check,2022.2.5,Win32,143.9677512,,,,,,,,,,,,,,./stim/p06_syllable_1_flauro_hit.wav,p06,flauro,hit,fla-u-ro,flau-ro,fla-u-ro, ,0.413888889,-0.101851852,1,0,0,0.8296,text_option_2,,0,95,95,107,1
605f820790a4cd988e086133,63f3cfca20052e4ae7554ebf,6453cb740446d9f7ba5db2aa,2023-05-04_17h21.04.545,ga_syllabified_check,2022.2.5,Win32,143.9677512,,,,,,,,,,,,,,./stim/p07_syllable_1_palutrauco_hit.wav,p07,palutrauco,hit,pa-lu-trau-co,pa-lu-trau-co,pa-lu-tra-u-co, ,-0.387037037,-0.103703704,1,0,0,1.3369,text_option_1,,0,96,96,165,1
605f820790a4cd988e086133,63f3cfca20052e4ae7554ebf,6453cb740446d9f7ba5db2aa,2023-05-04_17h21.04.545,ga_syllabified_check,2022.2.5,Win32,143.9677512,,,,,,,,,,,,,,./stim/p04_syllable_1_lakatuaisto_hit.wav,p04,lakatuaisto,hit,la-ka-kuais-to,la-ka-tuais-to,la-ka-tu-ais-to,la-ka-tua-is-to,-0.330555556,-0.101851852,1,0,0,1.1901,text_option_1,,0,97,97,53,1
605f820790a4cd988e086133,63f3cfca20052e4ae7554ebf,6453cb740446d9f7ba5db2aa,2023-05-04_17h21.04.545,ga_syllabified_check,2022.2.5,Win32,143.9677512,,,,,,,,,,,,,,./stim/p06_syllable_1_rausto_hit.wav,p06,rausto,hit,ra-us-to,raus-to,ra-us-to, ,0.413888889,-0.106481481,1,0,0,0.9847,text_option_2,,0,98,98,133,1
605f820790a4cd988e086133,63f3cfca20052e4ae7554ebf,6453cb740446d9f7ba5db2aa,2023-05-04_17h21.04.545,ga_syllabified_check,2022.2.5,Win32,143.9677512,,,,,,,,,,,,,,./stim/p04_syllable_1_ruyiola_hit.wav,p04,ruyiola,hit,ru-yio-la,ru-yio-la,ru-yi-o-la, ,-0.422222222,-0.097222222,1,0,0,0.617,text_option_1,,0,99,99,66,1
605f820790a4cd988e086133,63f3cfca20052e4ae7554ebf,6453cb740446d9f7ba5db2aa,2023-05-04_17h21.04.545,ga_syllabified_check,2022.2.5,Win32,143.9677512,,,,,,,,,,,,,,./stim/p07_syllable_1_lakabuaisto_hit.wav,p07,lakabuaisto,hit,la-ka-buais-to,la-ka-buais-to,la-ka-bu-ais-to,la-ka-bua-is-to,-0.376851852,-0.098148148,1,0,0,2.185,text_option_1,,0,100,100,143,1
605f820790a4cd988e086133,63f3cfca20052e4ae7554ebf,6453cb740446d9f7ba5db2aa,2023-05-04_17h21.04.545,ga_syllabified_check,2022.2.5,Win32,143.9677512,,,,,,,,,,,,,,./stim/p07_syllable_1_faluduako_hit.wav,p07,faluduako,hit,fa-lu-dua-ko,fa-lu-dua-ko,fa-lu-du-a-ko, ,-0.380555556,-0.107407407,1,0,0,2.2443,text_option_1,,0,101,101,138,1
605f820790a4cd988e086133,63f3cfca20052e4ae7554ebf,6453cb740446d9f7ba5db2aa,2023-05-04_17h21.04.545,ga_syllabified_check,2022.2.5,Win32,143.9677512,,,,,,,,,,,,,,./stim/p03_syllable_1_palutrauco_hit.wav,p03,palutrauco,hit,pa-lu-trau-co,pa-lu-trau-co,pa-lu-tra-u-co, ,-0.330555556,-0.113888889,1,0,0,1.225,text_option_1,,0,102,102,29,1
605f820790a4cd988e086133,63f3cfca20052e4ae7554ebf,6453cb740446d9f7ba5db2aa,2023-05-04_17h21.04.545,ga_syllabified_check,2022.2.5,Win32,143.9677512,,,,,,,,,,,,,,./stim/p03_syllable_1_falutraigo_hit.wav,p03,falutraigo,hit,fa-lu-trai-go,fa-lu-trai-go,fa-lu-tra-i-go, ,-0.359259259,-0.103703704,1,0,0,1.4524,text_option_1,,0,103,103,4,1
605f820790a4cd988e086133,63f3cfca20052e4ae7554ebf,6453cb740446d9f7ba5db2aa,2023-05-04_17h21.04.545,ga_syllabified_check,2022.2.5,Win32,143.9677512,,,,,,,,,,,,,,./stim/p08_syllable_1_palutrauco_hit.wav,p08,palutrauco,hit,pa-lu-trau-ko,pa-lu-trau-co,pa-lu-tra-u-co, ,-0.360185185,-0.105555556,1,0,0,2.7248,text_option_1,,0,104,104,199,1
605f820790a4cd988e086133,63f3cfca20052e4ae7554ebf,6453cb740446d9f7ba5db2aa,2023-05-04_17h21.04.545,ga_syllabified_check,2022.2.5,Win32,143.9677512,,,,,,,,,,,,,,./stim/p06_syllable_1_ruyiola_hit.wav,p06,ruyiola,hit,ru-yi-o-la,ru-yio-la,ru-yi-o-la, ,0.411111111,-0.112037037,1,0,0,1.5705,text_option_2,,0,105,105,134,1
605f820790a4cd988e086133,63f3cfca20052e4ae7554ebf,6453cb740446d9f7ba5db2aa,2023-05-04_17h21.04.545,ga_syllabified_check,2022.2.5,Win32,143.9677512,,,,,,,,,,,,,,./stim/p08_syllable_1_mebochiana_hit.wav,p08,mebochiana,hit,me-bo-chi-a-na,me-bo-chia-na,me-bo-chi-a-na, ,0.419444444,-0.122222222,1,0,0,2.5971,text_option_2,,0,106,106,192,1
605f820790a4cd988e086133,63f3cfca20052e4ae7554ebf,6453cb740446d9f7ba5db2aa,2023-05-04_17h21.04.545,ga_syllabified_check,2022.2.5,Win32,143.9677512,,,,,,,,,,,,,,./stim/p04_syllable_1_lakatiaisto_hit.wav,p04,lakatiaisto,hit,la-ka-kiais-to,la-ka-tiais-to,la-ka-ti-ais-to,la-ka-tia-is-to,-0.42962963,-0.09537037,1,0,0,1.4853,text_option_1,,0,107,107,52,1
605f820790a4cd988e086133,63f3cfca20052e4ae7554ebf,6453cb740446d9f7ba5db2aa,2023-05-04_17h21.04.545,ga_syllabified_check,2022.2.5,Win32,143.9677512,,,,,,,,,,,,,,./stim/p08_syllable_1_lakadiaisto_hit.wav,p08,lakadiaisto,hit,la-ka-di-jas-to,la-ka-diais-to,la-ka-di-ais-to,la-ka-dia-is-to,0.440740741,-0.105555556,1,0,0,3.6901,text_option_2,,0,108,108,178,1
605f820790a4cd988e086133,63f3cfca20052e4ae7554ebf,6453cb740446d9f7ba5db2aa,2023-05-04_17h21.04.545,ga_syllabified_check,2022.2.5,Win32,143.9677512,,,,,,,,,,,,,,./stim/p06_syllable_1_tuliafo_hit.wav,p06,tuliafo,hit,tu-li-a-fo,tu-lia-fo,tu-li-a-fo, ,0.408333333,-0.097222222,1,0,0,1.1804,text_option_2,,0,109,109,135,1
605f820790a4cd988e086133,63f3cfca20052e4ae7554ebf,6453cb740446d9f7ba5db2aa,2023-05-04_17h21.04.545,ga_syllabified_check,2022.2.5,Win32,143.9677512,,,,,,,,,,,,,,./stim/p08_syllable_1_lakatiaisto_hit.wav,p08,lakatiaisto,hit,la-ka-ti-as-to,la-ka-tiais-to,la-ka-ti-ais-to,la-ka-tia-is-to,0.436111111,-0.111111111,1,0,0,6.1052,text_option_2,,0,110,110,188,1
605f820790a4cd988e086133,63f3cfca20052e4ae7554ebf,6453cb740446d9f7ba5db2aa,2023-05-04_17h21.04.545,ga_syllabified_check,2022.2.5,Win32,143.9677512,,,,,,,,,,,,,,./stim/p04_syllable_1_lakagiaisto_hit.wav,p04,lakagiaisto,hit,la-ka-giais-to,la-ka-giais-to,la-ka-gi-ais-to,la-ka-gia-is-to,-0.383333333,-0.085185185,1,0,0,1.9583,text_option_1,,0,111,111,46,1
605f820790a4cd988e086133,63f3cfca20052e4ae7554ebf,6453cb740446d9f7ba5db2aa,2023-05-04_17h21.04.545,ga_syllabified_check,2022.2.5,Win32,143.9677512,,,,,,,,,,,,,,./stim/p03_syllable_1_falufaisto_hit.wav,p03,falufaisto,hit,fa-lu-fais-to,fa-lu-fais-to,fa-lu-fa-is-to, ,-0.368518519,-0.103703704,1,0,0,1.4238,text_option_1,,0,112,112,3,1
605f820790a4cd988e086133,63f3cfca20052e4ae7554ebf,6453cb740446d9f7ba5db2aa,2023-05-04_17h21.04.545,ga_syllabified_check,2022.2.5,Win32,143.9677512,,,,,,,,,,,,,,./stim/p05_syllable_1_lakabuaisto_hit.wav,p05,lakabuaisto,hit,la-ka-buais-to,la-ka-buais-to,la-ka-bu-ais-to,la-ka-bua-is-to,-0.369444444,-0.086111111,1,0,0,1.368,text_option_1,,0,113,113,75,1
605f820790a4cd988e086133,63f3cfca20052e4ae7554ebf,6453cb740446d9f7ba5db2aa,2023-05-04_17h21.04.545,ga_syllabified_check,2022.2.5,Win32,143.9677512,,,,,,,,,,,,,,./stim/p06_syllable_1_lliape_hit.wav,p06,lliape,hit,lli-lla-pe,llia-pe,lli-a-pe, ,0.388888889,-0.096296296,1,0,0,2.0208,text_option_2,,0,114,114,122,1
605f820790a4cd988e086133,63f3cfca20052e4ae7554ebf,6453cb740446d9f7ba5db2aa,2023-05-04_17h21.04.545,ga_syllabified_check,2022.2.5,Win32,143.9677512,,,,,,,,,,,,,,./stim/p03_syllable_1_flauro_hit.wav,p03,flauro,hit,flau-ro,flau-ro,fla-u-ro, ,-0.37037037,-0.097222222,1,0,0,0.3679,text_option_1,,0,115,115,5,1
605f820790a4cd988e086133,63f3cfca20052e4ae7554ebf,6453cb740446d9f7ba5db2aa,2023-05-04_17h21.04.545,ga_syllabified_check,2022.2.5,Win32,143.9677512,,,,,,,,,,,,,,./stim/p03_syllable_1_manhiala_hit.wav,p03,mañiala,hit,ma-nhia-la,ma-ñia-la,ma-ñi-a-la, ,-0.369444444,-0.093518519,1,0,0,0.9724,text_option_1,,0,116,116,21,1
605f820790a4cd988e086133,63f3cfca20052e4ae7554ebf,6453cb740446d9f7ba5db2aa,2023-05-04_17h21.04.545,ga_syllabified_check,2022.2.5,Win32,143.9677512,,,,,,,,,,,,,,./stim/p08_syllable_1_lakafiaisto_hit.wav,p08,lakafiaisto,hit,la-ka-fi-as-to,la-ka-fiais-to,la-ka-fi-ais-to,la-ka-fia-is-to,0.024074074,-0.093518519,1,0,0,2.739,text_option_3,,0,117,117,180,1
605f820790a4cd988e086133,63f3cfca20052e4ae7554ebf,6453cb740446d9f7ba5db2aa,2023-05-04_17h21.04.545,ga_syllabified_check,2022.2.5,Win32,143.9677512,,,,,,,,,,,,,,./stim/p03_syllable_1_lliape_hit.wav,p03,lliape,hit,llia,llia-pe,lli-a-pe, ,-0.397222222,-0.100925926,1,0,0,0.5696,text_option_1,,0,118,118,20,1
605f820790a4cd988e086133,63f3cfca20052e4ae7554ebf,6453cb740446d9f7ba5db2aa,2023-05-04_17h21.04.545,ga_syllabified_check,2022.2.5,Win32,143.9677512,,,,,,,,,,,,,,./stim/p07_syllable_1_lakafuaisto_hit.wav,p07,lakafuaisto,hit,la-ka-fuais-to,la-ka-fuais-to,la-ka-fu-ais-to,la-ka-fua-is-to,-0.37962963,-0.096296296,1,0,0,1.8209,text_option_1,,0,119,119,147,1
605f820790a4cd988e086133,63f3cfca20052e4ae7554ebf,6453cb740446d9f7ba5db2aa,2023-05-04_17h21.04.545,ga_syllabified_check,2022.2.5,Win32,143.9677512,,,,,,,,,,,,,,./stim/p07_syllable_1_falufaisto_hit.wav,p07,falufaisto,hit,fa-lu-fais-to,fa-lu-fais-to,fa-lu-fa-is-to, ,-0.396296296,-0.096296296,1,0,0,2.0277,text_option_1,,0,120,120,139,1
605f820790a4cd988e086133,63f3cfca20052e4ae7554ebf,6453cb740446d9f7ba5db2aa,2023-05-04_17h21.04.545,ga_syllabified_check,2022.2.5,Win32,143.9677512,,,,,,,,,,,,,,./stim/p06_syllable_1_manhiala_hit.wav,p06,mañiala,hit,ma-nhi-a-la,ma-ñia-la,ma-ñi-a-la, ,0.416666667,-0.090740741,1,0,0,2.1181,text_option_2,,0,121,121,123,1
605f820790a4cd988e086133,63f3cfca20052e4ae7554ebf,6453cb740446d9f7ba5db2aa,2023-05-04_17h21.04.545,ga_syllabified_check,2022.2.5,Win32,143.9677512,,,,,,,,,,,,,,./stim/p07_syllable_1_lakapiaisto_hit.wav,p07,lakapiaisto,hit,la-ka-pia-sto,la-ka-piais-to,la-ka-pi-ais-to,la-ka-pia-is-to,0.006481481,-0.105555556,1,0,0,2.3877,text_option_3,,0,122,122,152,1
605f820790a4cd988e086133,63f3cfca20052e4ae7554ebf,6453cb740446d9f7ba5db2aa,2023-05-04_17h21.04.545,ga_syllabified_check,2022.2.5,Win32,143.9677512,,,,,,,,,,,,,,./stim/p04_syllable_1_costonhialo_hit.wav,p04,costoñialo,hit,cos-to-nhia-lo,cos-to-ñia-lo,cos-to-ñi-a-lo, ,-0.412037037,-0.098148148,1,0,0,1.4722,text_option_1,,0,123,123,35,1
605f820790a4cd988e086133,63f3cfca20052e4ae7554ebf,6453cb740446d9f7ba5db2aa,2023-05-04_17h21.04.545,ga_syllabified_check,2022.2.5,Win32,143.9677512,,,,,,,,,,,,,,./stim/p04_syllable_1_palufauro_hit.wav,p04,palufauro,hit,pa-lu-fau-ro,pa-lu-fau-ro,pa-lu-fa-u-ro, ,-0.359259259,-0.098148148,1,0,0,2.3542,text_option_1,,0,124,124,59,1
605f820790a4cd988e086133,63f3cfca20052e4ae7554ebf,6453cb740446d9f7ba5db2aa,2023-05-04_17h21.04.545,ga_syllabified_check,2022.2.5,Win32,143.9677512,,,,,,,,,,,,,,./stim/p08_syllable_1_payielo_hit.wav,p08,payielo,hit,pa-yie-lo,pa-yie-lo,pa-yi-e-lo, ,-0.368518519,-0.100925926,1,0,0,1.4665,text_option_1,,0,125,125,200,1
605f820790a4cd988e086133,63f3cfca20052e4ae7554ebf,6453cb740446d9f7ba5db2aa,2023-05-04_17h21.04.545,ga_syllabified_check,2022.2.5,Win32,143.9677512,,,,,,,,,,,,,,./stim/p05_syllable_1_lakagiaisto_hit.wav,p05,lakagiaisto,hit,la-ka-ki-ais-to,la-ka-giais-to,la-ka-gi-ais-to,la-ka-gia-is-to,0.015740741,-0.106481481,1,0,0,1.7246,text_option_3,,0,126,126,80,1
605f820790a4cd988e086133,63f3cfca20052e4ae7554ebf,6453cb740446d9f7ba5db2aa,2023-05-04_17h21.04.545,ga_syllabified_check,2022.2.5,Win32,143.9677512,,,,,,,,,,,,,,./stim/p05_syllable_1_lakabiaisto_hit.wav,p05,lakabiaisto,hit,la-ka-bi-ais-to,la-ka-biais-to,la-ka-bi-ais-to,la-ka-bia-is-to,-0.002777778,-0.108333333,1,0,0,1.5626,text_option_3,,0,127,127,74,1
605f820790a4cd988e086133,63f3cfca20052e4ae7554ebf,6453cb740446d9f7ba5db2aa,2023-05-04_17h21.04.545,ga_syllabified_check,2022.2.5,Win32,143.9677512,,,,,,,,,,,,,,./stim/p04_syllable_1_palutrauco_hit.wav,p04,palutrauco,hit,pa-lu-trau-co,pa-lu-trau-co,pa-lu-tra-u-co, ,-0.380555556,-0.1,1,0,0,0.7083,text_option_1,,0,128,128,63,1
605f820790a4cd988e086133,63f3cfca20052e4ae7554ebf,6453cb740446d9f7ba5db2aa,2023-05-04_17h21.04.545,ga_syllabified_check,2022.2.5,Win32,143.9677512,,,,,,,,,,,,,,./stim/p08_syllable_1_faluduako_hit.wav,p08,faluduako,hit,fa-lu-duai-ko,fa-lu-dua-ko,fa-lu-du-a-ko, ,-0.325,-0.099074074,1,0,0,4.3681,text_option_1,,0,129,129,172,1
605f820790a4cd988e086133,63f3cfca20052e4ae7554ebf,6453cb740446d9f7ba5db2aa,2023-05-04_17h21.04.545,ga_syllabified_check,2022.2.5,Win32,143.9677512,,,,,,,,,,,,,,./stim/p05_syllable_1_lakapiaisto_hit.wav,p05,lakapiaisto,hit,la-ka-pais-to,la-ka-piais-to,la-ka-pi-ais-to,la-ka-pia-is-to,-0.34537037,-0.114814815,1,0,0,1.9895,text_option_1,,0,130,130,84,1
605f820790a4cd988e086133,63f3cfca20052e4ae7554ebf,6453cb740446d9f7ba5db2aa,2023-05-04_17h21.04.545,ga_syllabified_check,2022.2.5,Win32,143.9677512,,,,,,,,,,,,,,./stim/p07_syllable_1_flauro_hit.wav,p07,flauro,hit,flau-ro,flau-ro,fla-u-ro, ,-0.385185185,-0.102777778,1,0,0,0.9374,text_option_1,,0,131,131,141,1
605f820790a4cd988e086133,63f3cfca20052e4ae7554ebf,6453cb740446d9f7ba5db2aa,2023-05-04_17h21.04.545,ga_syllabified_check,2022.2.5,Win32,143.9677512,,,,,,,,,,,,,,./stim/p04_syllable_1_payielo_hit.wav,p04,payielo,hit,pa-yie-lo,pa-yie-lo,pa-yi-e-lo, ,-0.401851852,-0.110185185,1,0,0,0.6458,text_option_1,,0,132,132,64,1
605f820790a4cd988e086133,63f3cfca20052e4ae7554ebf,6453cb740446d9f7ba5db2aa,2023-05-04_17h21.04.545,ga_syllabified_check,2022.2.5,Win32,143.9677512,,,,,,,,,,,,,,./stim/p03_syllable_1_lakabuaisto_hit.wav,p03,lakabuaisto,hit,la-ka-buais-to,la-ka-buais-to,la-ka-bu-ais-to,la-ka-bua-is-to,-0.383333333,-0.10462963,1,0,0,0.875,text_option_1,,0,133,133,7,1
605f820790a4cd988e086133,63f3cfca20052e4ae7554ebf,6453cb740446d9f7ba5db2aa,2023-05-04_17h21.04.545,ga_syllabified_check,2022.2.5,Win32,143.9677512,,,,,,,,,,,,,,./stim/p06_syllable_1_pachialo_hit.wav,p06,pachialo,hit,pa-shi-a-lo,pa-chia-lo,pa-chi-a-lo, ,0.425925926,-0.107407407,1,0,0,1.0834,text_option_2,,0,134,134,126,1
605f820790a4cd988e086133,63f3cfca20052e4ae7554ebf,6453cb740446d9f7ba5db2aa,2023-05-04_17h21.04.545,ga_syllabified_check,2022.2.5,Win32,143.9677512,,,,,,,,,,,,,,./stim/p04_syllable_1_tuliafo_hit.wav,p04,tuliafo,hit,tu-lia-fo,tu-lia-fo,tu-li-a-fo, ,-0.405555556,-0.090740741,1,0,0,0.3055,text_option_1,,0,135,135,67,1
605f820790a4cd988e086133,63f3cfca20052e4ae7554ebf,6453cb740446d9f7ba5db2aa,2023-05-04_17h21.04.545,ga_syllabified_check,2022.2.5,Win32,143.9677512,,,,,,,,,,,,,,./stim/p07_syllable_1_costonhialo_hit.wav,p07,costoñialo,hit,cos-to-nhia-lo,cos-to-ñia-lo,cos-to-ñi-a-lo, ,-0.344444444,-0.099074074,1,0,0,1.4374,text_option_1,,0,136,136,137,1
605f820790a4cd988e086133,63f3cfca20052e4ae7554ebf,6453cb740446d9f7ba5db2aa,2023-05-04_17h21.04.545,ga_syllabified_check,2022.2.5,Win32,143.9677512,,,,,,,,,,,,,,./stim/p03_syllable_1_palufauto_hit.wav,p03,palufauto,hit,pa-lu-fau,pa-lu-fau-to,pa-lu-fa-u-to, ,-0.340740741,-0.107407407,1,0,0,0.8194,text_option_1,,0,137,137,26,1
605f820790a4cd988e086133,63f3cfca20052e4ae7554ebf,6453cb740446d9f7ba5db2aa,2023-05-04_17h21.04.545,ga_syllabified_check,2022.2.5,Win32,143.9677512,,,,,,,,,,,,,,./stim/p03_syllable_1_nhiape_hit.wav,p03,ñiape,hit,nhia-pe,ñia-pe,ñi-a-pe, ,-0.352777778,-0.111111111,1,0,0,0.6249,text_option_1,,0,138,138,23,1
605f820790a4cd988e086133,63f3cfca20052e4ae7554ebf,6453cb740446d9f7ba5db2aa,2023-05-04_17h21.04.545,ga_syllabified_check,2022.2.5,Win32,143.9677512,,,,,,,,,,,,,,./stim/p05_syllable_1_palumaisto_hit.wav,p05,palumaisto,hit,pa-lu-mais-to,pa-lu-mais-to,pa-lu-ma-is-to, ,-0.337962963,-0.108333333,1,0,0,0.9027,text_option_1,,0,139,139,96,1
605f820790a4cd988e086133,63f3cfca20052e4ae7554ebf,6453cb740446d9f7ba5db2aa,2023-05-04_17h21.04.545,ga_syllabified_check,2022.2.5,Win32,143.9677512,,,,,,,,,,,,,,./stim/p06_syllable_1_falufaisto_hit.wav,p06,falufaisto,hit,fa-lu-fa-is-to,fa-lu-fais-to,fa-lu-fa-is-to, ,0.434259259,-0.109259259,1,0,0,2.3264,text_option_2,,0,140,140,105,1
605f820790a4cd988e086133,63f3cfca20052e4ae7554ebf,6453cb740446d9f7ba5db2aa,2023-05-04_17h21.04.545,ga_syllabified_check,2022.2.5,Win32,143.9677512,,,,,,,,,,,,,,./stim/p03_syllable_1_paluguato_hit.wav,p03,paluguato,hit,pa-lu-gua,pa-lu-gua-to,pa-lu-gu-a-to, ,-0.417592593,-0.090740741,1,0,0,1.0626,text_option_1,,0,141,141,27,1
605f820790a4cd988e086133,63f3cfca20052e4ae7554ebf,6453cb740446d9f7ba5db2aa,2023-05-04_17h21.04.545,ga_syllabified_check,2022.2.5,Win32,143.9677512,,,,,,,,,,,,,,./stim/p07_syllable_1_mebochiana_hit.wav,p07,mebochiana,hit,me-bo-chia-na,me-bo-chia-na,me-bo-chi-a-na, ,-0.356481481,-0.111111111,1,0,0,2.2293,text_option_1,,0,142,142,158,1
605f820790a4cd988e086133,63f3cfca20052e4ae7554ebf,6453cb740446d9f7ba5db2aa,2023-05-04_17h21.04.545,ga_syllabified_check,2022.2.5,Win32,143.9677512,,,,,,,,,,,,,,./stim/p07_syllable_1_palufauto_hit.wav,p07,palufauto,hit,pa-lu-fau-to,pa-lu-fau-to,pa-lu-fa-u-to, ,-0.362962963,-0.107407407,1,0,0,1.5208,text_option_1,,0,143,143,162,1
605f820790a4cd988e086133,63f3cfca20052e4ae7554ebf,6453cb740446d9f7ba5db2aa,2023-05-04_17h21.04.545,ga_syllabified_check,2022.2.5,Win32,143.9677512,,,,,,,,,,,,,,./stim/p06_syllable_1_mebochiana_hit.wav,p06,mebochiana,hit,me-bo-shi-a-na,me-bo-chia-na,me-bo-chi-a-na, ,0.467592593,-0.111111111,1,0,0,1.3959,text_option_2,,0,144,144,124,1
605f820790a4cd988e086133,63f3cfca20052e4ae7554ebf,6453cb740446d9f7ba5db2aa,2023-05-04_17h21.04.545,ga_syllabified_check,2022.2.5,Win32,143.9677512,,,,,,,,,,,,,,./stim/p08_syllable_1_flauro_hit.wav,p08,flauro,hit,flau-ro,flau-ro,fla-u-ro, ,-0.393518519,-0.081481481,1,0,0,0.5139,text_option_1,,0,145,145,175,1
605f820790a4cd988e086133,63f3cfca20052e4ae7554ebf,6453cb740446d9f7ba5db2aa,2023-05-04_17h21.04.545,ga_syllabified_check,2022.2.5,Win32,143.9677512,,,,,,,,,,,,,,./stim/p07_syllable_1_palufauro_hit.wav,p07,palufauro,hit,pa-lu-fau-ro,pa-lu-fau-ro,pa-lu-fa-u-ro, ,-0.4,-0.112037037,1,0,0,1.632,text_option_1,,0,146,146,161,1
605f820790a4cd988e086133,63f3cfca20052e4ae7554ebf,6453cb740446d9f7ba5db2aa,2023-05-04_17h21.04.545,ga_syllabified_check,2022.2.5,Win32,143.9677512,,,,,,,,,,,,,,./stim/p07_syllable_1_lakadiaisto_hit.wav,p07,lakadiaisto,hit,la-ka-dia-is-to,la-ka-diais-to,la-ka-di-ais-to,la-ka-dia-is-to,0.051851852,-0.096296296,1,0,0,2.2572,text_option_3,,0,147,147,144,1
605f820790a4cd988e086133,63f3cfca20052e4ae7554ebf,6453cb740446d9f7ba5db2aa,2023-05-04_17h21.04.545,ga_syllabified_check,2022.2.5,Win32,143.9677512,,,,,,,,,,,,,,./stim/p03_syllable_1_tuliafo_hit.wav,p03,tuliafo,hit,tu-lia-fo,tu-lia-fo,tu-li-a-fo, ,-0.406481481,-0.086111111,1,0,0,0.861,text_option_1,,0,148,148,33,1
605f820790a4cd988e086133,63f3cfca20052e4ae7554ebf,6453cb740446d9f7ba5db2aa,2023-05-04_17h21.04.545,ga_syllabified_check,2022.2.5,Win32,143.9677512,,,,,,,,,,,,,,./stim/p05_syllable_1_falutraigo_hit.wav,p05,falutraigo,hit,fa-lu-trai-go,fa-lu-trai-go,fa-lu-tra-i-go, ,-0.375,-0.109259259,1,0,0,1.0625,text_option_1,,0,149,149,72,1
605f820790a4cd988e086133,63f3cfca20052e4ae7554ebf,6453cb740446d9f7ba5db2aa,2023-05-04_17h21.04.545,ga_syllabified_check,2022.2.5,Win32,143.9677512,,,,,,,,,,,,,,./stim/p04_syllable_1_falutraigo_hit.wav,p04,falutraigo,hit,fa-lu-trai-go,fa-lu-trai-go,fa-lu-tra-i-go, ,-0.372222222,-0.10462963,1,0,0,0.7429,text_option_1,,0,150,150,38,1
605f820790a4cd988e086133,63f3cfca20052e4ae7554ebf,6453cb740446d9f7ba5db2aa,2023-05-04_17h21.04.545,ga_syllabified_check,2022.2.5,Win32,143.9677512,,,,,,,,,,,,,,./stim/p06_syllable_1_payielo_hit.wav,p06,payielo,hit,pa-yi-e-lo,pa-yie-lo,pa-yi-e-lo, ,0.391666667,-0.106481481,1,0,0,0.9168,text_option_2,,0,151,151,132,1
605f820790a4cd988e086133,63f3cfca20052e4ae7554ebf,6453cb740446d9f7ba5db2aa,2023-05-04_17h21.04.545,ga_syllabified_check,2022.2.5,Win32,143.9677512,,,,,,,,,,,,,,./stim/p05_syllable_1_lakapuaisto_hit.wav,p05,lakapuaisto,hit,la-ka-pais-to,la-ka-puais-to,la-ka-pu-ais-to,la-ka-pua-is-to,-0.430555556,-0.07962963,1,0,0,1.6423,text_option_1,,0,152,152,85,1
605f820790a4cd988e086133,63f3cfca20052e4ae7554ebf,6453cb740446d9f7ba5db2aa,2023-05-04_17h21.04.545,ga_syllabified_check,2022.2.5,Win32,143.9677512,,,,,,,,,,,,,,./stim/p06_syllable_1_lakakuaisto_hit.wav,p06,lakakuaisto,hit,la-ka-ku-a-is,la-ka-kuais-to,la-ka-ku-ais-to,la-ka-kua-is-to,-0.012962963,-0.30462963,1,0,0,4.8612,text_option_other,la-ka-ku-a-is-to,0,153,153,117,1
605f820790a4cd988e086133,63f3cfca20052e4ae7554ebf,6453cb740446d9f7ba5db2aa,2023-05-04_17h21.04.545,ga_syllabified_check,2022.2.5,Win32,143.9677512,,,,,,,,,,,,,,./stim/p04_syllable_1_manhiala_hit.wav,p04,mañiala,hit,ma-nhia-la,ma-ñia-la,ma-ñi-a-la, ,-0.402777778,-0.097222222,1,0,0,0.1734,text_option_1,,0,154,154,55,1
605f820790a4cd988e086133,63f3cfca20052e4ae7554ebf,6453cb740446d9f7ba5db2aa,2023-05-04_17h21.04.545,ga_syllabified_check,2022.2.5,Win32,143.9677512,,,,,,,,,,,,,,./stim/p05_syllable_1_rausto_hit.wav,p05,rausto,hit,raus-to,raus-to,ra-us-to, ,-0.411111111,-0.100925926,1,0,0,0.0694,text_option_1,,0,155,155,99,1
605f820790a4cd988e086133,63f3cfca20052e4ae7554ebf,6453cb740446d9f7ba5db2aa,2023-05-04_17h21.04.545,ga_syllabified_check,2022.2.5,Win32,143.9677512,,,,,,,,,,,,,,./stim/p08_syllable_1_palumaisto_hit.wav,p08,palumaisto,hit,pa-lu-mais-to,pa-lu-mais-to,pa-lu-ma-is-to, ,-0.410185185,-0.101851852,1,0,0,1.8889,text_option_1,,0,156,156,198,1
605f820790a4cd988e086133,63f3cfca20052e4ae7554ebf,6453cb740446d9f7ba5db2aa,2023-05-04_17h21.04.545,ga_syllabified_check,2022.2.5,Win32,143.9677512,,,,,,,,,,,,,,./stim/p06_syllable_1_palufauto_hit.wav,p06,palufauto,hit,pa-lu-fau-to,pa-lu-fau-to,pa-lu-fa-u-to, ,-0.335185185,-0.092592593,1,0,0,3.1668,text_option_1,,0,157,157,128,1
605f820790a4cd988e086133,63f3cfca20052e4ae7554ebf,6453cb740446d9f7ba5db2aa,2023-05-04_17h21.04.545,ga_syllabified_check,2022.2.5,Win32,143.9677512,,,,,,,,,,,,,,./stim/p04_syllable_1_chiaba_hit.wav,p04,chiaba,hit,chia-ba,chia-ba,chi-a-ba, ,-0.422222222,-0.118518519,1,0,0,0.861,text_option_1,,0,158,158,34,1
605f820790a4cd988e086133,63f3cfca20052e4ae7554ebf,6453cb740446d9f7ba5db2aa,2023-05-04_17h21.04.545,ga_syllabified_check,2022.2.5,Win32,143.9677512,,,,,,,,,,,,,,./stim/p06_syllable_1_lakakiaisto_hit.wav,p06,lakakiaisto,hit,la-ka-kia-is-to,la-ka-kiais-to,la-ka-ki-ais-to,la-ka-kia-is-to,0.047222222,-0.100925926,1,0,0,4.493,text_option_3,,0,159,159,116,1
605f820790a4cd988e086133,63f3cfca20052e4ae7554ebf,6453cb740446d9f7ba5db2aa,2023-05-04_17h21.04.545,ga_syllabified_check,2022.2.5,Win32,143.9677512,,,,,,,,,,,,,,./stim/p06_syllable_1_paluguato_hit.wav,p06,paluguato,hit,pa-lu-gua-to,pa-lu-gua-to,pa-lu-gu-a-to, ,-0.337962963,-0.098148148,1,0,0,2.8296,text_option_1,,0,160,160,129,1
605f820790a4cd988e086133,63f3cfca20052e4ae7554ebf,6453cb740446d9f7ba5db2aa,2023-05-04_17h21.04.545,ga_syllabified_check,2022.2.5,Win32,143.9677512,,,,,,,,,,,,,,./stim/p07_syllable_1_lakatiaisto_hit.wav,p07,lakatiaisto,hit,la-ka-tiai-sto,la-ka-tiais-to,la-ka-ti-ais-to,la-ka-tia-is-to,-0.324074074,-0.102777778,1,0,0,2.3888,text_option_1,,0,161,161,154,1
605f820790a4cd988e086133,63f3cfca20052e4ae7554ebf,6453cb740446d9f7ba5db2aa,2023-05-04_17h21.04.545,ga_syllabified_check,2022.2.5,Win32,143.9677512,,,,,,,,,,,,,,./stim/p05_syllable_1_lakafiaisto_hit.wav,p05,lakafiaisto,hit,la-ka-fi-ais-to,la-ka-fiais-to,la-ka-fi-ais-to,la-ka-fia-is-to,0.037037037,-0.102777778,1,0,0,1.2708,text_option_3,,0,162,162,78,1
605f820790a4cd988e086133,63f3cfca20052e4ae7554ebf,6453cb740446d9f7ba5db2aa,2023-05-04_17h21.04.545,ga_syllabified_check,2022.2.5,Win32,143.9677512,,,,,,,,,,,,,,./stim/p05_syllable_1_faluduako_hit.wav,p05,faluduako,hit,fa-lu-ba-ko,fa-lu-dua-ko,fa-lu-du-a-ko, ,-0.340740741,-0.094444444,1,0,0,0.9245,text_option_1,,0,163,163,70,1
605f820790a4cd988e086133,63f3cfca20052e4ae7554ebf,6453cb740446d9f7ba5db2aa,2023-05-04_17h21.04.545,ga_syllabified_check,2022.2.5,Win32,143.9677512,,,,,,,,,,,,,,./stim/p05_syllable_1_paluguato_hit.wav,p05,paluguato,hit,pa-lu-gau-to,pa-lu-gua-to,pa-lu-gu-a-to, ,-0.333333333,-0.108333333,1,0,0,1.1034,text_option_1,,0,164,164,95,1
605f820790a4cd988e086133,63f3cfca20052e4ae7554ebf,6453cb740446d9f7ba5db2aa,2023-05-04_17h21.04.545,ga_syllabified_check,2022.2.5,Win32,143.9677512,,,,,,,,,,,,,,./stim/p05_syllable_1_lakakiaisto_hit.wav,p05,lakakiaisto,hit,la-ka-ki-ais-to,la-ka-kiais-to,la-ka-ki-ais-to,la-ka-kia-is-to,-0.332407407,-0.111111111,1,0,0,1.0651,text_option_1,,0,165,165,82,1
605f820790a4cd988e086133,63f3cfca20052e4ae7554ebf,6453cb740446d9f7ba5db2aa,2023-05-04_17h21.04.545,ga_syllabified_check,2022.2.5,Win32,143.9677512,,,,,,,,,,,,,,./stim/p03_syllable_1_lakapuaisto_hit.wav,p03,lakapuaisto,hit,la-ka-puais-to,la-ka-puais-to,la-ka-pu-ais-to,la-ka-pua-is-to,-0.322222222,-0.1,1,0,0,1.2459,text_option_1,,0,166,166,17,1
605f820790a4cd988e086133,63f3cfca20052e4ae7554ebf,6453cb740446d9f7ba5db2aa,2023-05-04_17h21.04.545,ga_syllabified_check,2022.2.5,Win32,143.9677512,,,,,,,,,,,,,,./stim/p06_syllable_1_palumaisto_hit.wav,p06,palumaisto,hit,pa-lu-ma-is-to,pa-lu-mais-to,pa-lu-ma-is-to, ,0.462962963,-0.112962963,1,0,0,2.9436,text_option_2,,0,167,167,130,1
605f820790a4cd988e086133,63f3cfca20052e4ae7554ebf,6453cb740446d9f7ba5db2aa,2023-05-04_17h21.04.545,ga_syllabified_check,2022.2.5,Win32,143.9677512,,,,,,,,,,,,,,./stim/p08_syllable_1_nhiape_hit.wav,p08,ñiape,hit,ni-a-pe,ñia-pe,ñi-a-pe, ,-0.387037037,-0.113888889,1,0,0,0.8471,text_option_1,,0,168,168,193,1
605f820790a4cd988e086133,63f3cfca20052e4ae7554ebf,6453cb740446d9f7ba5db2aa,2023-05-04_17h21.04.545,ga_syllabified_check,2022.2.5,Win32,143.9677512,,,,,,,,,,,,,,./stim/p03_syllable_1_lakakuaisto_hit.wav,p03,lakakuaisto,hit,la-ka-kuais-to,la-ka-kuais-to,la-ka-ku-ais-to,la-ka-kua-is-to,-0.353703704,-0.101851852,1,0,0,2.8013,text_option_1,,0,169,169,15,1
605f820790a4cd988e086133,63f3cfca20052e4ae7554ebf,6453cb740446d9f7ba5db2aa,2023-05-04_17h21.04.545,ga_syllabified_check,2022.2.5,Win32,143.9677512,,,,,,,,,,,,,,./stim/p04_syllable_1_falufaisto_hit.wav,p04,falufaisto,hit,fa-lu-fais-to,fa-lu-fais-to,fa-lu-fa-is-to, ,-0.332407407,-0.112962963,1,0,0,0.6528,text_option_1,,0,170,170,37,1
605f820790a4cd988e086133,63f3cfca20052e4ae7554ebf,6453cb740446d9f7ba5db2aa,2023-05-04_17h21.04.545,ga_syllabified_check,2022.2.5,Win32,143.9677512,,,,,,,,,,,,,,./stim/p08_syllable_1_lakaduaisto_hit.wav,p08,lakaduaisto,hit,la-ka-du-ais-to,la-ka-duais-to,la-ka-du-ais-to,la-ka-dua-is-to,0.437037037,-0.107407407,1,0,0,3.3404,text_option_2,,0,171,171,179,1
605f820790a4cd988e086133,63f3cfca20052e4ae7554ebf,6453cb740446d9f7ba5db2aa,2023-05-04_17h21.04.545,ga_syllabified_check,2022.2.5,Win32,143.9677512,,,,,,,,,,,,,,./stim/p03_syllable_1_costonhialo_hit.wav,p03,costoñialo,hit,cos-to-nhia-lo,cos-to-ñia-lo,cos-to-ñi-a-lo, ,-0.392592593,-0.106481481,1,0,0,1.375,text_option_1,,0,172,172,1,1
605f820790a4cd988e086133,63f3cfca20052e4ae7554ebf,6453cb740446d9f7ba5db2aa,2023-05-04_17h21.04.545,ga_syllabified_check,2022.2.5,Win32,143.9677512,,,,,,,,,,,,,,./stim/p08_syllable_1_paluguato_hit.wav,p08,paluguato,hit,pa-lu-gua-to,pa-lu-gua-to,pa-lu-gu-a-to, ,-0.406481481,-0.112962963,1,0,0,1.743,text_option_1,,0,173,173,197,1
605f820790a4cd988e086133,63f3cfca20052e4ae7554ebf,6453cb740446d9f7ba5db2aa,2023-05-04_17h21.04.545,ga_syllabified_check,2022.2.5,Win32,143.9677512,,,,,,,,,,,,,,./stim/p07_syllable_1_payielo_hit.wav,p07,payielo,hit,pa-yie-lo,pa-yie-lo,pa-yi-e-lo, ,-0.34537037,-0.119444444,1,0,0,1.1182,text_option_1,,0,174,174,166,1
605f820790a4cd988e086133,63f3cfca20052e4ae7554ebf,6453cb740446d9f7ba5db2aa,2023-05-04_17h21.04.545,ga_syllabified_check,2022.2.5,Win32,143.9677512,,,,,,,,,,,,,,./stim/p08_syllable_1_lakatuaisto_hit.wav,p08,lakatuaisto,hit,la-ka-tu-i-jis,la-ka-tuais-to,la-ka-tu-ais-to,la-ka-tua-is-to,0.061111111,-0.10462963,1,0,0,8.3822,text_option_3,,0,175,175,189,1
605f820790a4cd988e086133,63f3cfca20052e4ae7554ebf,6453cb740446d9f7ba5db2aa,2023-05-04_17h21.04.545,ga_syllabified_check,2022.2.5,Win32,143.9677512,,,,,,,,,,,,,,./stim/p05_syllable_1_nhiape_hit.wav,p05,ñiape,hit,nhia-pe,ñia-pe,ñi-a-pe, ,-0.384259259,-0.111111111,1,0,0,0.1503,text_option_1,,0,176,176,91,1
605f820790a4cd988e086133,63f3cfca20052e4ae7554ebf,6453cb740446d9f7ba5db2aa,2023-05-04_17h21.04.545,ga_syllabified_check,2022.2.5,Win32,143.9677512,,,,,,,,,,,,,,./stim/p08_syllable_1_palufauro_hit.wav,p08,palufauro,hit,pa-lu-fau-ro,pa-lu-fau-ro,pa-lu-fa-u-ro, ,-0.35,-0.103703704,1,0,0,2.4487,text_option_1,,0,177,177,195,1
605f820790a4cd988e086133,63f3cfca20052e4ae7554ebf,6453cb740446d9f7ba5db2aa,2023-05-04_17h21.04.545,ga_syllabified_check,2022.2.5,Win32,143.9677512,,,,,,,,,,,,,,./stim/p03_syllable_1_palufauro_hit.wav,p03,palufauro,hit,pa-lu-fau-ro,pa-lu-fau-ro,pa-lu-fa-u-ro, ,-0.342592593,-0.105555556,1,0,0,1,text_option_1,,0,178,178,25,1
605f820790a4cd988e086133,63f3cfca20052e4ae7554ebf,6453cb740446d9f7ba5db2aa,2023-05-04_17h21.04.545,ga_syllabified_check,2022.2.5,Win32,143.9677512,,,,,,,,,,,,,,./stim/p04_syllable_1_nhiape_hit.wav,p04,ñiape,hit,nhia-pe,ñia-pe,ñi-a-pe, ,-0.4,-0.099074074,1,0,0,0.3028,text_option_1,,0,179,179,57,1
605f820790a4cd988e086133,63f3cfca20052e4ae7554ebf,6453cb740446d9f7ba5db2aa,2023-05-04_17h21.04.545,ga_syllabified_check,2022.2.5,Win32,143.9677512,,,,,,,,,,,,,,./stim/p06_syllable_1_lakagiaisto_hit.wav,p06,lakagiaisto,hit,la-ka-gia-is-to,la-ka-giais-to,la-ka-gi-ais-to,la-ka-gia-is-to,0.035185185,-0.105555556,1,0,0,3.5926,text_option_3,,0,180,180,114,1
605f820790a4cd988e086133,63f3cfca20052e4ae7554ebf,6453cb740446d9f7ba5db2aa,2023-05-04_17h21.04.545,ga_syllabified_check,2022.2.5,Win32,143.9677512,,,,,,,,,,,,,,./stim/p08_syllable_1_lakabuaisto_hit.wav,p08,lakabuaisto,hit,la-ka-bu-ais-to,la-ka-buais-to,la-ka-bu-ais-to,la-ka-bua-is-to,0.033333333,-0.111111111,1,0,0,2.5139,text_option_3,,0,181,181,177,1
605f820790a4cd988e086133,63f3cfca20052e4ae7554ebf,6453cb740446d9f7ba5db2aa,2023-05-04_17h21.04.545,ga_syllabified_check,2022.2.5,Win32,143.9677512,,,,,,,,,,,,,,./stim/p03_syllable_1_lakatiaisto_hit.wav,p03,lakatiaisto,hit,la-ka-tiais-to,la-ka-tiais-to,la-ka-ti-ais-to,la-ka-tia-is-to,0.034259259,-0.111111111,1,0,0,2.875,text_option_3,,0,182,182,18,1
605f820790a4cd988e086133,63f3cfca20052e4ae7554ebf,6453cb740446d9f7ba5db2aa,2023-05-04_17h21.04.545,ga_syllabified_check,2022.2.5,Win32,143.9677512,,,,,,,,,,,,,,./stim/p03_syllable_1_lakaduaisto_hit.wav,p03,lakaduaisto,hit,la-ka-duais-to,la-ka-duais-to,la-ka-du-ais-to,la-ka-dua-is-to,-0.396296296,-0.087962963,1,0,0,1.25,text_option_1,,0,183,183,9,1
605f820790a4cd988e086133,63f3cfca20052e4ae7554ebf,6453cb740446d9f7ba5db2aa,2023-05-04_17h21.04.545,ga_syllabified_check,2022.2.5,Win32,143.9677512,,,,,,,,,,,,,,./stim/p08_syllable_1_lakagiaisto_hit.wav,p08,lakagiaisto,hit,la-ka-gi-jas-to,la-ka-giais-to,la-ka-gi-ais-to,la-ka-gia-is-to,0.450925926,-0.1,1,0,0,2.9375,text_option_2,,0,184,184,182,1
605f820790a4cd988e086133,63f3cfca20052e4ae7554ebf,6453cb740446d9f7ba5db2aa,2023-05-04_17h21.04.545,ga_syllabified_check,2022.2.5,Win32,143.9677512,,,,,,,,,,,,,,./stim/p08_syllable_1_lakapuaisto_hit.wav,p08,lakapuaisto,hit,la-ka-pu-as-to,la-ka-puais-to,la-ka-pu-ais-to,la-ka-pua-is-to,0.051851852,-0.098148148,1,0,0,2.7611,text_option_3,,0,185,185,187,1
605f820790a4cd988e086133,63f3cfca20052e4ae7554ebf,6453cb740446d9f7ba5db2aa,2023-05-04_17h21.04.545,ga_syllabified_check,2022.2.5,Win32,143.9677512,,,,,,,,,,,,,,./stim/p04_syllable_1_lakakuaisto_hit.wav,p04,lakakuaisto,hit,la-ka-kuais-to,la-ka-kuais-to,la-ka-ku-ais-to,la-ka-kua-is-to,-0.388888889,-0.106481481,1,0,0,0.9097,text_option_1,,0,186,186,49,1
605f820790a4cd988e086133,63f3cfca20052e4ae7554ebf,6453cb740446d9f7ba5db2aa,2023-05-04_17h21.04.545,ga_syllabified_check,2022.2.5,Win32,143.9677512,,,,,,,,,,,,,,./stim/p05_syllable_1_mebochiana_hit.wav,p05,mebochiana,hit,me-cho-chai-na,me-bo-chia-na,me-bo-chi-a-na, ,-0.022222222,-0.313888889,1,0,0,2.861,text_option_other,me-cho-chi-na,0,187,187,90,1
605f820790a4cd988e086133,63f3cfca20052e4ae7554ebf,6453cb740446d9f7ba5db2aa,2023-05-04_17h21.04.545,ga_syllabified_check,2022.2.5,Win32,143.9677512,,,,,,,,,,,,,,./stim/p07_syllable_1_ruyiola_hit.wav,p07,ruyiola,hit,ru-yio-la,ru-yio-la,ru-yi-o-la, ,-0.341666667,-0.099074074,1,0,0,1.4279,text_option_1,,0,188,188,168,1
605f820790a4cd988e086133,63f3cfca20052e4ae7554ebf,6453cb740446d9f7ba5db2aa,2023-05-04_17h21.04.545,ga_syllabified_check,2022.2.5,Win32,143.9677512,,,,,,,,,,,,,,./stim/p03_syllable_1_lakafuaisto_hit.wav,p03,lakafuaisto,hit,la-ka-fuais-to,la-ka-fuais-to,la-ka-fu-ais-to,la-ka-fua-is-to,-0.421296296,-0.1,1,0,0,2.2023,text_option_1,,0,189,189,11,1
605f820790a4cd988e086133,63f3cfca20052e4ae7554ebf,6453cb740446d9f7ba5db2aa,2023-05-04_17h21.04.545,ga_syllabified_check,2022.2.5,Win32,143.9677512,,,,,,,,,,,,,,./stim/p07_syllable_1_pachialo_hit.wav,p07,pachialo,hit,pa-cha-lo,pa-chia-lo,pa-chi-a-lo, ,-0.359259259,-0.108333333,1,0,0,1.3336,text_option_1,,0,190,190,160,1
605f820790a4cd988e086133,63f3cfca20052e4ae7554ebf,6453cb740446d9f7ba5db2aa,2023-05-04_17h21.04.545,ga_syllabified_check,2022.2.5,Win32,143.9677512,,,,,,,,,,,,,,./stim/p03_syllable_1_lakapiaisto_hit.wav,p03,lakapiaisto,hit,la-ka-piais-to,la-ka-piais-to,la-ka-pi-ais-to,la-ka-pia-is-to,-0.378703704,-0.10462963,1,0,0,1.3612,text_option_1,,0,191,191,16,1
605f820790a4cd988e086133,63f3cfca20052e4ae7554ebf,6453cb740446d9f7ba5db2aa,2023-05-04_17h21.04.545,ga_syllabified_check,2022.2.5,Win32,143.9677512,,,,,,,,,,,,,,./stim/p04_syllable_1_lakapuaisto_hit.wav,p04,lakapuaisto,hit,la-ka-puais-to,la-ka-puais-to,la-ka-pu-ais-to,la-ka-pua-is-to,-0.39537037,-0.103703704,1,0,0,0.6915,text_option_1,,0,192,192,51,1
605f820790a4cd988e086133,63f3cfca20052e4ae7554ebf,6453cb740446d9f7ba5db2aa,2023-05-04_17h21.04.545,ga_syllabified_check,2022.2.5,Win32,143.9677512,,,,,,,,,,,,,,./stim/p08_syllable_1_lakafuaisto_hit.wav,p08,lakafuaisto,hit,la-ka-fju-ais-to,la-ka-fuais-to,la-ka-fu-ais-to,la-ka-fua-is-to,-0.340740741,-0.089814815,1,0,0,2.7597,text_option_1,,0,193,193,181,1
605f820790a4cd988e086133,63f3cfca20052e4ae7554ebf,6453cb740446d9f7ba5db2aa,2023-05-04_17h21.04.545,ga_syllabified_check,2022.2.5,Win32,143.9677512,,,,,,,,,,,,,,./stim/p07_syllable_1_lakafiaisto_hit.wav,p07,lakafiaisto,hit,la-ka-fiais-to,la-ka-fiais-to,la-ka-fi-ais-to,la-ka-fia-is-to,-0.351851852,-0.112962963,1,0,0,1.7569,text_option_1,,0,194,194,146,1
605f820790a4cd988e086133,63f3cfca20052e4ae7554ebf,6453cb740446d9f7ba5db2aa,2023-05-04_17h21.04.545,ga_syllabified_check,2022.2.5,Win32,143.9677512,,,,,,,,,,,,,,./stim/p07_syllable_1_chiaba_hit.wav,p07,chiaba,hit,chia-ba,chia-ba,chi-a-ba, ,-0.393518519,-0.112037037,1,0,0,0.6458,text_option_1,,0,195,195,136,1
605f820790a4cd988e086133,63f3cfca20052e4ae7554ebf,6453cb740446d9f7ba5db2aa,2023-05-04_17h21.04.545,ga_syllabified_check,2022.2.5,Win32,143.9677512,,,,,,,,,,,,,,./stim/p04_syllable_1_lakaduaisto_hit.wav,p04,lakaduaisto,hit,la-ka-duais-to,la-ka-duais-to,la-ka-du-ais-to,la-ka-dua-is-to,-0.348148148,-0.09537037,1,0,0,0.8961,text_option_1,,0,196,196,43,1
605f820790a4cd988e086133,63f3cfca20052e4ae7554ebf,6453cb740446d9f7ba5db2aa,2023-05-04_17h21.04.545,ga_syllabified_check,2022.2.5,Win32,143.9677512,,,,,,,,,,,,,,./stim/p03_syllable_1_lakatuaisto_hit.wav,p03,lakatuaisto,hit,la-ka-tuais-to,la-ka-tuais-to,la-ka-tu-ais-to,la-ka-tua-is-to,-0.384259259,-0.102777778,1,0,0,1.1986,text_option_1,,0,197,197,19,1
605f820790a4cd988e086133,63f3cfca20052e4ae7554ebf,6453cb740446d9f7ba5db2aa,2023-05-04_17h21.04.545,ga_syllabified_check,2022.2.5,Win32,143.9677512,,,,,,,,,,,,,,./stim/p05_syllable_1_flauro_hit.wav,p05,flauro,hit,fa-lu-ro,flau-ro,fla-u-ro, ,0.396296296,-0.107407407,1,0,0,4.4559,text_option_2,,0,198,198,73,1
605f820790a4cd988e086133,63f3cfca20052e4ae7554ebf,6453cb740446d9f7ba5db2aa,2023-05-04_17h21.04.545,ga_syllabified_check,2022.2.5,Win32,143.9677512,,,,,,,,,,,,,,./stim/p04_syllable_1_pachialo_hit.wav,p04,pachialo,hit,pa-chia-lo,pa-chia-lo,pa-chi-a-lo, ,-0.401851852,-0.112962963,1,0,0,0.6182,text_option_1,,0,199,199,58,1
605f820790a4cd988e086133,63f3cfca20052e4ae7554ebf,6453cb740446d9f7ba5db2aa,2023-05-04_17h21.04.545,ga_syllabified_check,2022.2.5,Win32,143.9677512,,,,,,,,,,,,,,./stim/p03_syllable_1_faluduako_hit.wav,p03,faluduako,hit,fa-lu-dua-ko,fa-lu-dua-ko,fa-lu-du-a-ko, ,-0.331481481,-0.106481481,1,0,0,1.4029,text_option_1,,0,200,200,2,1
605f820790a4cd988e086133,63f3cfca20052e4ae7554ebf,6453cb740446d9f7ba5db2aa,2023-05-04_17h21.04.545,ga_syllabified_check,2022.2.5,Win32,143.9677512,,,,,,,,,,,,,,./stim/p05_syllable_1_lliape_hit.wav,p05,lliape,hit,liai-pe,llia-pe,lli-a-pe, ,-0.401851852,-0.093518519,1,0,0,0.4514,text_option_1,,0,201,201,88,1
605f820790a4cd988e086133,63f3cfca20052e4ae7554ebf,6453cb740446d9f7ba5db2aa,2023-05-04_17h21.04.545,ga_syllabified_check,2022.2.5,Win32,143.9677512,,,,,,,,,,,,,,./stim/p04_syllable_1_palufauto_hit.wav,p04,palufauto,hit,pa-lu-fau-to,pa-lu-fau-to,pa-lu-fa-u-to, ,-0.358333333,-0.100925926,1,0,0,0.5723,text_option_1,,0,202,202,60,1
605f820790a4cd988e086133,63f3cfca20052e4ae7554ebf,6453cb740446d9f7ba5db2aa,2023-05-04_17h21.04.545,ga_syllabified_check,2022.2.5,Win32,143.9677512,,,,,,,,,,,,,,./stim/p03_syllable_1_lakabiaisto_hit.wav,p03,lakabiaisto,hit,la-ka-biais-to,la-ka-biais-to,la-ka-bi-ais-to,la-ka-bia-is-to,-0.363888889,-0.102777778,1,0,0,1.0236,text_option_1,,0,203,203,6,1
605f820790a4cd988e086133,63f3cfca20052e4ae7554ebf,6453cb740446d9f7ba5db2aa,2023-05-04_17h21.04.545,ga_syllabified_check,2022.2.5,Win32,143.9677512,,,,,,,,,,,,,,,,,,,,,,,,,,,,,,,,,,
