participant,study,session,date,expName,psychopyVersion,OS,frameRate,mouse_practice.x,mouse_practice.y,mouse_practice.leftButton,mouse_practice.midButton,mouse_practice.rightButton,mouse_practice.time,mouse_practice.clicked_name,textbox_followup_practice.text,trials_practice.thisRepN,trials_practice.thisTrialN,trials_practice.thisN,trials_practice.thisIndex,trials_practice.ran,file_path,id,item,status,response,op1,op2,op3,mouse.x,mouse.y,mouse.leftButton,mouse.midButton,mouse.rightButton,mouse.time,mouse.clicked_name,textbox_followup.text,trials.thisRepN,trials.thisTrialN,trials.thisN,trials.thisIndex,trials.ran
60a2a4657cb8e58bc437b6d3,63f3cfca20052e4ae7554ebf,6453ca0ab439006019d33594,2023-05-04_17h08.39.029,ga_syllabified_check,2022.2.5,Win32,60.08893162,,,,,,,,,,,,,,,,,,,,,,,,,,,,,,,,,,
60a2a4657cb8e58bc437b6d3,63f3cfca20052e4ae7554ebf,6453ca0ab439006019d33594,2023-05-04_17h08.39.029,ga_syllabified_check,2022.2.5,Win32,60.08893162,-0.42578125,-0.104166667,1,0,0,6.2308,text_option_1_practice,,0,0,0,0,1,./stim/p03_syllable_1_liamo_hit.wav,p03,liamo,hit,lia-mo,lia-mo,li-a-mo, ,,,,,,,,,,,,,
60a2a4657cb8e58bc437b6d3,63f3cfca20052e4ae7554ebf,6453ca0ab439006019d33594,2023-05-04_17h08.39.029,ga_syllabified_check,2022.2.5,Win32,60.08893162,-0.390625,-0.111979167,1,0,0,2.0705,text_option_1_practice,,0,1,1,1,1,./stim/p05_syllable_1_matio_hit.wav,p05,matio,hit,ma-tio,ma-tio,ma-ti-o, ,,,,,,,,,,,,,
60a2a4657cb8e58bc437b6d3,63f3cfca20052e4ae7554ebf,6453ca0ab439006019d33594,2023-05-04_17h08.39.029,ga_syllabified_check,2022.2.5,Win32,60.08893162,-0.369791667,-0.1171875,1,0,0,6.9331,text_option_1_practice,,0,2,2,2,1,./stim/p08_syllable_1_liamo_hit.wav,p08,liamo,hit,ja-mo,lia-mo,li-a-mo, ,,,,,,,,,,,,,
60a2a4657cb8e58bc437b6d3,63f3cfca20052e4ae7554ebf,6453ca0ab439006019d33594,2023-05-04_17h08.39.029,ga_syllabified_check,2022.2.5,Win32,60.08893162,,,,,,,,,,,,,,,,,,,,,,,,,,,,,,,,,,
60a2a4657cb8e58bc437b6d3,63f3cfca20052e4ae7554ebf,6453ca0ab439006019d33594,2023-05-04_17h08.39.029,ga_syllabified_check,2022.2.5,Win32,60.08893162,,,,,,,,,,,,,,./stim/p06_syllable_1_lakabiaisto_hit.wav,p06,lakabiaisto,hit,la-ka-bia-is-to,la-ka-biais-to,la-ka-bi-ais-to,la-ka-bia-is-to,-0.002604167,-0.102864583,1,0,0,5.6995,text_option_3,,0,0,0,108,1
60a2a4657cb8e58bc437b6d3,63f3cfca20052e4ae7554ebf,6453ca0ab439006019d33594,2023-05-04_17h08.39.029,ga_syllabified_check,2022.2.5,Win32,60.08893162,,,,,,,,,,,,,,./stim/p06_syllable_1_palumaisto_hit.wav,p06,palumaisto,hit,pa-lu-ma-is-to,pa-lu-mais-to,pa-lu-ma-is-to, ,0.453125,-0.10546875,1,0,0,3.6454,text_option_2,,0,1,1,130,1
60a2a4657cb8e58bc437b6d3,63f3cfca20052e4ae7554ebf,6453ca0ab439006019d33594,2023-05-04_17h08.39.029,ga_syllabified_check,2022.2.5,Win32,60.08893162,,,,,,,,,,,,,,./stim/p08_syllable_1_lakabiaisto_hit.wav,p08,lakabiaisto,hit,la-ka-bi-as-to,la-ka-biais-to,la-ka-bi-ais-to,la-ka-bia-is-to,0.432291667,-0.10546875,1,0,0,4.0529,text_option_2,,0,2,2,176,1
60a2a4657cb8e58bc437b6d3,63f3cfca20052e4ae7554ebf,6453ca0ab439006019d33594,2023-05-04_17h08.39.029,ga_syllabified_check,2022.2.5,Win32,60.08893162,,,,,,,,,,,,,,./stim/p06_syllable_1_manhiala_hit.wav,p06,mañiala,hit,ma-nhi-a-la,ma-ñia-la,ma-ñi-a-la, ,0.423177083,-0.108072917,1,0,0,2.3996,text_option_2,,0,3,3,123,1
60a2a4657cb8e58bc437b6d3,63f3cfca20052e4ae7554ebf,6453ca0ab439006019d33594,2023-05-04_17h08.39.029,ga_syllabified_check,2022.2.5,Win32,60.08893162,,,,,,,,,,,,,,./stim/p03_syllable_1_tuliafo_hit.wav,p03,tuliafo,hit,tu-lia-fo,tu-lia-fo,tu-li-a-fo, ,-0.389322917,-0.1015625,1,0,0,1.5492,text_option_1,,0,4,4,33,1
60a2a4657cb8e58bc437b6d3,63f3cfca20052e4ae7554ebf,6453ca0ab439006019d33594,2023-05-04_17h08.39.029,ga_syllabified_check,2022.2.5,Win32,60.08893162,,,,,,,,,,,,,,./stim/p08_syllable_1_lakatiaisto_hit.wav,p08,lakatiaisto,hit,la-ka-ti-as-to,la-ka-tiais-to,la-ka-ti-ais-to,la-ka-tia-is-to,0.444010417,-0.108072917,1,0,0,6.984,text_option_2,,0,5,5,188,1
60a2a4657cb8e58bc437b6d3,63f3cfca20052e4ae7554ebf,6453ca0ab439006019d33594,2023-05-04_17h08.39.029,ga_syllabified_check,2022.2.5,Win32,60.08893162,,,,,,,,,,,,,,./stim/p08_syllable_1_ruyiola_hit.wav,p08,ruyiola,hit,ru-yio-la,ru-yio-la,ru-yi-o-la, ,-0.358072917,-0.109375,1,0,0,3.1503,text_option_1,,0,6,6,202,1
60a2a4657cb8e58bc437b6d3,63f3cfca20052e4ae7554ebf,6453ca0ab439006019d33594,2023-05-04_17h08.39.029,ga_syllabified_check,2022.2.5,Win32,60.08893162,,,,,,,,,,,,,,./stim/p05_syllable_1_palutrauco_hit.wav,p05,palutrauco,hit,pa-lu-trai-co,pa-lu-trau-co,pa-lu-tra-u-co, ,-0.411458333,-0.104166667,1,0,0,4.7032,text_option_1,,0,7,7,97,1
60a2a4657cb8e58bc437b6d3,63f3cfca20052e4ae7554ebf,6453ca0ab439006019d33594,2023-05-04_17h08.39.029,ga_syllabified_check,2022.2.5,Win32,60.08893162,,,,,,,,,,,,,,./stim/p06_syllable_1_falutraigo_hit.wav,p06,falutraigo,hit,fa-lu-tra-i-go,fa-lu-trai-go,fa-lu-tra-i-go, ,0.416666667,-0.102864583,1,0,0,4.3514,text_option_2,,0,8,8,106,1
60a2a4657cb8e58bc437b6d3,63f3cfca20052e4ae7554ebf,6453ca0ab439006019d33594,2023-05-04_17h08.39.029,ga_syllabified_check,2022.2.5,Win32,60.08893162,,,,,,,,,,,,,,./stim/p06_syllable_1_lakakiaisto_hit.wav,p06,lakakiaisto,hit,la-ka-kia-is-to,la-ka-kiais-to,la-ka-ki-ais-to,la-ka-kia-is-to,-0.01171875,-0.11328125,1,0,0,4.5651,text_option_3,,0,9,9,116,1
60a2a4657cb8e58bc437b6d3,63f3cfca20052e4ae7554ebf,6453ca0ab439006019d33594,2023-05-04_17h08.39.029,ga_syllabified_check,2022.2.5,Win32,60.08893162,,,,,,,,,,,,,,./stim/p03_syllable_1_palufauro_hit.wav,p03,palufauro,hit,pa-lu-fau-ro,pa-lu-fau-ro,pa-lu-fa-u-ro, ,-0.358072917,-0.100260417,1,0,0,1.8163,text_option_1,,0,10,10,25,1
60a2a4657cb8e58bc437b6d3,63f3cfca20052e4ae7554ebf,6453ca0ab439006019d33594,2023-05-04_17h08.39.029,ga_syllabified_check,2022.2.5,Win32,60.08893162,,,,,,,,,,,,,,./stim/p07_syllable_1_falufaisto_hit.wav,p07,falufaisto,hit,fa-lu-fais-to,fa-lu-fais-to,fa-lu-fa-is-to, ,-0.373697917,-0.091145833,1,0,0,2.6288,text_option_1,,0,11,11,139,1
60a2a4657cb8e58bc437b6d3,63f3cfca20052e4ae7554ebf,6453ca0ab439006019d33594,2023-05-04_17h08.39.029,ga_syllabified_check,2022.2.5,Win32,60.08893162,,,,,,,,,,,,,,./stim/p06_syllable_1_paluguato_hit.wav,p06,paluguato,hit,pa-lu-gua-to,pa-lu-gua-to,pa-lu-gu-a-to, ,-0.360677083,-0.10546875,1,0,0,3.2367,text_option_1,,0,12,12,129,1
60a2a4657cb8e58bc437b6d3,63f3cfca20052e4ae7554ebf,6453ca0ab439006019d33594,2023-05-04_17h08.39.029,ga_syllabified_check,2022.2.5,Win32,60.08893162,,,,,,,,,,,,,,./stim/p07_syllable_1_lakapiaisto_hit.wav,p07,lakapiaisto,hit,la-ka-pia-sto,la-ka-piais-to,la-ka-pi-ais-to,la-ka-pia-is-to,-0.399739583,-0.12109375,1,0,0,8.3648,text_option_1,,0,13,13,152,1
60a2a4657cb8e58bc437b6d3,63f3cfca20052e4ae7554ebf,6453ca0ab439006019d33594,2023-05-04_17h08.39.029,ga_syllabified_check,2022.2.5,Win32,60.08893162,,,,,,,,,,,,,,./stim/p07_syllable_1_lliape_hit.wav,p07,lliape,hit,lliai-pe,llia-pe,lli-a-pe, ,-0.41015625,-0.10546875,1,0,0,7.72,text_option_1,,0,14,14,156,1
60a2a4657cb8e58bc437b6d3,63f3cfca20052e4ae7554ebf,6453ca0ab439006019d33594,2023-05-04_17h08.39.029,ga_syllabified_check,2022.2.5,Win32,60.08893162,,,,,,,,,,,,,,./stim/p04_syllable_1_lakapiaisto_hit.wav,p04,lakapiaisto,hit,la-ka-piais-to,la-ka-piais-to,la-ka-pi-ais-to,la-ka-pia-is-to,-0.3828125,-0.102864583,1,0,0,3.4338,text_option_1,,0,15,15,50,1
60a2a4657cb8e58bc437b6d3,63f3cfca20052e4ae7554ebf,6453ca0ab439006019d33594,2023-05-04_17h08.39.029,ga_syllabified_check,2022.2.5,Win32,60.08893162,,,,,,,,,,,,,,./stim/p03_syllable_1_lakadiaisto_hit.wav,p03,lakadiaisto,hit,la-ka-diais-to,la-ka-diais-to,la-ka-di-ais-to,la-ka-dia-is-to,-0.365885417,-0.106770833,1,0,0,1.833,text_option_1,,0,16,16,8,1
60a2a4657cb8e58bc437b6d3,63f3cfca20052e4ae7554ebf,6453ca0ab439006019d33594,2023-05-04_17h08.39.029,ga_syllabified_check,2022.2.5,Win32,60.08893162,,,,,,,,,,,,,,./stim/p04_syllable_1_lakagiaisto_hit.wav,p04,lakagiaisto,hit,la-ka-giais-to,la-ka-giais-to,la-ka-gi-ais-to,la-ka-gia-is-to,-0.373697917,-0.102864583,1,0,0,3.3668,text_option_1,,0,17,17,46,1
60a2a4657cb8e58bc437b6d3,63f3cfca20052e4ae7554ebf,6453ca0ab439006019d33594,2023-05-04_17h08.39.029,ga_syllabified_check,2022.2.5,Win32,60.08893162,,,,,,,,,,,,,,./stim/p04_syllable_1_manhiala_hit.wav,p04,mañiala,hit,ma-nhia-la,ma-ñia-la,ma-ñi-a-la, ,-0.364583333,-0.104166667,1,0,0,2.2008,text_option_1,,0,18,18,55,1
60a2a4657cb8e58bc437b6d3,63f3cfca20052e4ae7554ebf,6453ca0ab439006019d33594,2023-05-04_17h08.39.029,ga_syllabified_check,2022.2.5,Win32,60.08893162,,,,,,,,,,,,,,./stim/p03_syllable_1_chiaba_hit.wav,p03,chiaba,hit,chia-ba,chia-ba,chi-a-ba, ,-0.364583333,-0.102864583,1,0,0,0.8181,text_option_1,,0,19,19,0,1
60a2a4657cb8e58bc437b6d3,63f3cfca20052e4ae7554ebf,6453ca0ab439006019d33594,2023-05-04_17h08.39.029,ga_syllabified_check,2022.2.5,Win32,60.08893162,,,,,,,,,,,,,,./stim/p04_syllable_1_lakaguaisto_hit.wav,p04,lakaguaisto,hit,la-ka-guais-to,la-ka-guais-to,la-ka-gu-ais-to,la-ka-gua-is-to,-0.401041667,-0.104166667,1,0,0,3.0382,text_option_1,,0,20,20,47,1
60a2a4657cb8e58bc437b6d3,63f3cfca20052e4ae7554ebf,6453ca0ab439006019d33594,2023-05-04_17h08.39.029,ga_syllabified_check,2022.2.5,Win32,60.08893162,,,,,,,,,,,,,,./stim/p06_syllable_1_lakatiaisto_hit.wav,p06,lakatiaisto,hit,la-ka-pia-is-to,la-ka-tiais-to,la-ka-ti-ais-to,la-ka-tia-is-to,-0.00390625,-0.109375,1,0,0,5.0331,text_option_3,,0,21,21,120,1
60a2a4657cb8e58bc437b6d3,63f3cfca20052e4ae7554ebf,6453ca0ab439006019d33594,2023-05-04_17h08.39.029,ga_syllabified_check,2022.2.5,Win32,60.08893162,,,,,,,,,,,,,,./stim/p04_syllable_1_nhiape_hit.wav,p04,ñiape,hit,nhia-pe,ñia-pe,ñi-a-pe, ,-0.404947917,-0.1015625,1,0,0,1.3822,text_option_1,,0,22,22,57,1
60a2a4657cb8e58bc437b6d3,63f3cfca20052e4ae7554ebf,6453ca0ab439006019d33594,2023-05-04_17h08.39.029,ga_syllabified_check,2022.2.5,Win32,60.08893162,,,,,,,,,,,,,,./stim/p05_syllable_1_falufaisto_hit.wav,p05,falufaisto,hit,fa-lu-fais-to,fa-lu-fais-to,fa-lu-fa-is-to, ,-0.365885417,-0.096354167,1,0,0,2.7497,text_option_1,,0,23,23,71,1
60a2a4657cb8e58bc437b6d3,63f3cfca20052e4ae7554ebf,6453ca0ab439006019d33594,2023-05-04_17h08.39.029,ga_syllabified_check,2022.2.5,Win32,60.08893162,,,,,,,,,,,,,,./stim/p08_syllable_1_lakagiaisto_hit.wav,p08,lakagiaisto,hit,la-ka-gi-jas-to,la-ka-giais-to,la-ka-gi-ais-to,la-ka-gia-is-to,0.41015625,-0.104166667,1,0,0,4.9339,text_option_2,,0,24,24,182,1
60a2a4657cb8e58bc437b6d3,63f3cfca20052e4ae7554ebf,6453ca0ab439006019d33594,2023-05-04_17h08.39.029,ga_syllabified_check,2022.2.5,Win32,60.08893162,,,,,,,,,,,,,,./stim/p05_syllable_1_lakaduaisto_hit.wav,p05,lakaduaisto,hit,la-ka-dais-to,la-ka-duais-to,la-ka-du-ais-to,la-ka-dua-is-to,-0.447916667,-0.095052083,1,0,0,4.4491,text_option_1,,0,25,25,77,1
60a2a4657cb8e58bc437b6d3,63f3cfca20052e4ae7554ebf,6453ca0ab439006019d33594,2023-05-04_17h08.39.029,ga_syllabified_check,2022.2.5,Win32,60.08893162,,,,,,,,,,,,,,./stim/p06_syllable_1_lakadiaisto_hit.wav,p06,lakadiaisto,hit,la-ka-dia-is-to,la-ka-diais-to,la-ka-di-ais-to,la-ka-dia-is-to,0.0546875,-0.104166667,1,0,0,2.883,text_option_3,,0,26,26,110,1
60a2a4657cb8e58bc437b6d3,63f3cfca20052e4ae7554ebf,6453ca0ab439006019d33594,2023-05-04_17h08.39.029,ga_syllabified_check,2022.2.5,Win32,60.08893162,,,,,,,,,,,,,,./stim/p03_syllable_1_pachialo_hit.wav,p03,pachialo,hit,pa-chia-lo,pa-chia-lo,pa-chi-a-lo, ,-0.37890625,-0.095052083,1,0,0,1.3335,text_option_1,,0,27,27,24,1
60a2a4657cb8e58bc437b6d3,63f3cfca20052e4ae7554ebf,6453ca0ab439006019d33594,2023-05-04_17h08.39.029,ga_syllabified_check,2022.2.5,Win32,60.08893162,,,,,,,,,,,,,,./stim/p04_syllable_1_lakafiaisto_hit.wav,p04,lakafiaisto,hit,la-ka-fiais-to,la-ka-fiais-to,la-ka-fi-ais-to,la-ka-fia-is-to,-0.404947917,-0.095052083,1,0,0,2.3175,text_option_1,,0,28,28,44,1
60a2a4657cb8e58bc437b6d3,63f3cfca20052e4ae7554ebf,6453ca0ab439006019d33594,2023-05-04_17h08.39.029,ga_syllabified_check,2022.2.5,Win32,60.08893162,,,,,,,,,,,,,,./stim/p04_syllable_1_palufauto_hit.wav,p04,palufauto,hit,pa-lu-fau-to,pa-lu-fau-to,pa-lu-fa-u-to, ,-0.359375,-0.109375,1,0,0,2.0998,text_option_1,,0,29,29,60,1
60a2a4657cb8e58bc437b6d3,63f3cfca20052e4ae7554ebf,6453ca0ab439006019d33594,2023-05-04_17h08.39.029,ga_syllabified_check,2022.2.5,Win32,60.08893162,,,,,,,,,,,,,,./stim/p03_syllable_1_faluduako_hit.wav,p03,faluduako,hit,fa-lu-dua-ko,fa-lu-dua-ko,fa-lu-du-a-ko, ,-0.372395833,-0.110677083,1,0,0,1.4349,text_option_1,,0,30,30,2,1
60a2a4657cb8e58bc437b6d3,63f3cfca20052e4ae7554ebf,6453ca0ab439006019d33594,2023-05-04_17h08.39.029,ga_syllabified_check,2022.2.5,Win32,60.08893162,,,,,,,,,,,,,,./stim/p04_syllable_1_lakakuaisto_hit.wav,p04,lakakuaisto,hit,la-ka-kuais-to,la-ka-kuais-to,la-ka-ku-ais-to,la-ka-kua-is-to,-0.4453125,-0.115885417,1,0,0,3.8528,text_option_1,,0,31,31,49,1
60a2a4657cb8e58bc437b6d3,63f3cfca20052e4ae7554ebf,6453ca0ab439006019d33594,2023-05-04_17h08.39.029,ga_syllabified_check,2022.2.5,Win32,60.08893162,,,,,,,,,,,,,,./stim/p05_syllable_1_nhiape_hit.wav,p05,ñiape,hit,nhia-pe,ñia-pe,ñi-a-pe, ,-0.415364583,-0.111979167,1,0,0,0.8009,text_option_1,,0,32,32,91,1
60a2a4657cb8e58bc437b6d3,63f3cfca20052e4ae7554ebf,6453ca0ab439006019d33594,2023-05-04_17h08.39.029,ga_syllabified_check,2022.2.5,Win32,60.08893162,,,,,,,,,,,,,,./stim/p06_syllable_1_lakapuaisto_hit.wav,p06,lakapuaisto,hit,la-ka-pu-a-is,la-ka-puais-to,la-ka-pu-ais-to,la-ka-pua-is-to,0.006510417,-0.299479167,1,0,0,7.8812,text_option_other,la-ka-pu-a-is-to,0,33,33,119,1
60a2a4657cb8e58bc437b6d3,63f3cfca20052e4ae7554ebf,6453ca0ab439006019d33594,2023-05-04_17h08.39.029,ga_syllabified_check,2022.2.5,Win32,60.08893162,,,,,,,,,,,,,,./stim/p06_syllable_1_flauro_hit.wav,p06,flauro,hit,fla-u-ro,flau-ro,fla-u-ro, ,0.397135417,-0.11328125,1,0,0,2.783,text_option_2,,0,34,34,107,1
60a2a4657cb8e58bc437b6d3,63f3cfca20052e4ae7554ebf,6453ca0ab439006019d33594,2023-05-04_17h08.39.029,ga_syllabified_check,2022.2.5,Win32,60.08893162,,,,,,,,,,,,,,./stim/p08_syllable_1_paluguato_hit.wav,p08,paluguato,hit,pa-lu-gua-to,pa-lu-gua-to,pa-lu-gu-a-to, ,-0.388020833,-0.104166667,1,0,0,2.0663,text_option_1,,0,35,35,197,1
60a2a4657cb8e58bc437b6d3,63f3cfca20052e4ae7554ebf,6453ca0ab439006019d33594,2023-05-04_17h08.39.029,ga_syllabified_check,2022.2.5,Win32,60.08893162,,,,,,,,,,,,,,./stim/p06_syllable_1_palufauto_hit.wav,p06,palufauto,hit,pa-lu-fau-to,pa-lu-fau-to,pa-lu-fa-u-to, ,-0.350260417,-0.111979167,1,0,0,3.1325,text_option_1,,0,36,36,128,1
60a2a4657cb8e58bc437b6d3,63f3cfca20052e4ae7554ebf,6453ca0ab439006019d33594,2023-05-04_17h08.39.029,ga_syllabified_check,2022.2.5,Win32,60.08893162,,,,,,,,,,,,,,./stim/p08_syllable_1_chiaba_hit.wav,p08,chiaba,hit,chi-a-ba,chia-ba,chi-a-ba, ,0.40625,-0.100260417,1,0,0,1.3999,text_option_2,,0,37,37,170,1
60a2a4657cb8e58bc437b6d3,63f3cfca20052e4ae7554ebf,6453ca0ab439006019d33594,2023-05-04_17h08.39.029,ga_syllabified_check,2022.2.5,Win32,60.08893162,,,,,,,,,,,,,,./stim/p03_syllable_1_payielo_hit.wav,p03,payielo,hit,pa-yie-lo,pa-yie-lo,pa-yi-e-lo, ,-0.408854167,-0.108072917,1,0,0,1.1382,text_option_1,,0,38,38,30,1
60a2a4657cb8e58bc437b6d3,63f3cfca20052e4ae7554ebf,6453ca0ab439006019d33594,2023-05-04_17h08.39.029,ga_syllabified_check,2022.2.5,Win32,60.08893162,,,,,,,,,,,,,,./stim/p07_syllable_1_chiaba_hit.wav,p07,chiaba,hit,chia-ba,chia-ba,chi-a-ba, ,-0.384114583,-0.108072917,1,0,0,0.8338,text_option_1,,0,39,39,136,1
60a2a4657cb8e58bc437b6d3,63f3cfca20052e4ae7554ebf,6453ca0ab439006019d33594,2023-05-04_17h08.39.029,ga_syllabified_check,2022.2.5,Win32,60.08893162,,,,,,,,,,,,,,./stim/p06_syllable_1_palufauro_hit.wav,p06,palufauro,hit,pa-lu-fau-ro,pa-lu-fau-ro,pa-lu-fa-u-ro, ,0.399739583,-0.100260417,1,0,0,4.6047,text_option_2,,0,40,40,127,1
60a2a4657cb8e58bc437b6d3,63f3cfca20052e4ae7554ebf,6453ca0ab439006019d33594,2023-05-04_17h08.39.029,ga_syllabified_check,2022.2.5,Win32,60.08893162,,,,,,,,,,,,,,./stim/p07_syllable_1_rausto_hit.wav,p07,rausto,hit,raus-to,raus-to,ra-us-to, ,-0.40625,-0.096354167,1,0,0,1.1164,text_option_1,,0,41,41,167,1
60a2a4657cb8e58bc437b6d3,63f3cfca20052e4ae7554ebf,6453ca0ab439006019d33594,2023-05-04_17h08.39.029,ga_syllabified_check,2022.2.5,Win32,60.08893162,,,,,,,,,,,,,,./stim/p06_syllable_1_rausto_hit.wav,p06,rausto,hit,ra-us-to,raus-to,ra-us-to, ,0.434895833,-0.10546875,1,0,0,2.2973,text_option_2,,0,42,42,133,1
60a2a4657cb8e58bc437b6d3,63f3cfca20052e4ae7554ebf,6453ca0ab439006019d33594,2023-05-04_17h08.39.029,ga_syllabified_check,2022.2.5,Win32,60.08893162,,,,,,,,,,,,,,./stim/p03_syllable_1_lakaguaisto_hit.wav,p03,lakaguaisto,hit,la-ka-guais-to,la-ka-guais-to,la-ka-gu-ais-to,la-ka-gua-is-to,-0.360677083,-0.109375,1,0,0,2.2165,text_option_1,,0,43,43,13,1
60a2a4657cb8e58bc437b6d3,63f3cfca20052e4ae7554ebf,6453ca0ab439006019d33594,2023-05-04_17h08.39.029,ga_syllabified_check,2022.2.5,Win32,60.08893162,,,,,,,,,,,,,,./stim/p04_syllable_1_lakafuaisto_hit.wav,p04,lakafuaisto,hit,la-ka-fuais-to,la-ka-fuais-to,la-ka-fu-ais-to,la-ka-fua-is-to,-0.358072917,-0.10546875,1,0,0,0.8334,text_option_1,,0,44,44,45,1
60a2a4657cb8e58bc437b6d3,63f3cfca20052e4ae7554ebf,6453ca0ab439006019d33594,2023-05-04_17h08.39.029,ga_syllabified_check,2022.2.5,Win32,60.08893162,,,,,,,,,,,,,,./stim/p05_syllable_1_lakapiaisto_hit.wav,p05,lakapiaisto,hit,la-ka-pais-to,la-ka-piais-to,la-ka-pi-ais-to,la-ka-pia-is-to,-0.389322917,-0.109375,1,0,0,4.7826,text_option_1,,0,45,45,84,1
60a2a4657cb8e58bc437b6d3,63f3cfca20052e4ae7554ebf,6453ca0ab439006019d33594,2023-05-04_17h08.39.029,ga_syllabified_check,2022.2.5,Win32,60.08893162,,,,,,,,,,,,,,./stim/p04_syllable_1_rausto_hit.wav,p04,rausto,hit,raus-to,raus-to,ra-us-to, ,-0.388020833,-0.109375,1,0,0,0.4676,text_option_1,,0,46,46,65,1
60a2a4657cb8e58bc437b6d3,63f3cfca20052e4ae7554ebf,6453ca0ab439006019d33594,2023-05-04_17h08.39.029,ga_syllabified_check,2022.2.5,Win32,60.08893162,,,,,,,,,,,,,,./stim/p03_syllable_1_lakabuaisto_hit.wav,p03,lakabuaisto,hit,la-ka-buais-to,la-ka-buais-to,la-ka-bu-ais-to,la-ka-bua-is-to,-0.388020833,-0.109375,1,0,0,1.6204,text_option_1,,0,47,47,7,1
60a2a4657cb8e58bc437b6d3,63f3cfca20052e4ae7554ebf,6453ca0ab439006019d33594,2023-05-04_17h08.39.029,ga_syllabified_check,2022.2.5,Win32,60.08893162,,,,,,,,,,,,,,./stim/p06_syllable_1_lakafuaisto_hit.wav,p06,lakafuaisto,hit,la-ka-fu-a-is,la-ka-fuais-to,la-ka-fu-ais-to,la-ka-fua-is-to,0.00390625,-0.296875,1,0,0,7.2654,text_option_other,la-ka-fu-a-is-to,0,48,48,113,1
60a2a4657cb8e58bc437b6d3,63f3cfca20052e4ae7554ebf,6453ca0ab439006019d33594,2023-05-04_17h08.39.029,ga_syllabified_check,2022.2.5,Win32,60.08893162,,,,,,,,,,,,,,./stim/p08_syllable_1_lakafiaisto_hit.wav,p08,lakafiaisto,hit,la-ka-fi-as-to,la-ka-fiais-to,la-ka-fi-ais-to,la-ka-fia-is-to,-0.391927083,-0.1015625,1,0,0,4.1503,text_option_1,,0,49,49,180,1
60a2a4657cb8e58bc437b6d3,63f3cfca20052e4ae7554ebf,6453ca0ab439006019d33594,2023-05-04_17h08.39.029,ga_syllabified_check,2022.2.5,Win32,60.08893162,,,,,,,,,,,,,,./stim/p07_syllable_1_nhiape_hit.wav,p07,ñiape,hit,nhia-pe,ñia-pe,ñi-a-pe, ,-0.390625,-0.109375,1,0,0,0.5476,text_option_1,,0,50,50,159,1
60a2a4657cb8e58bc437b6d3,63f3cfca20052e4ae7554ebf,6453ca0ab439006019d33594,2023-05-04_17h08.39.029,ga_syllabified_check,2022.2.5,Win32,60.08893162,,,,,,,,,,,,,,./stim/p05_syllable_1_chiaba_hit.wav,p05,chiaba,hit,chia-ba,chia-ba,chi-a-ba, ,-0.388020833,-0.100260417,1,0,0,1.3869,text_option_1,,0,51,51,68,1
60a2a4657cb8e58bc437b6d3,63f3cfca20052e4ae7554ebf,6453ca0ab439006019d33594,2023-05-04_17h08.39.029,ga_syllabified_check,2022.2.5,Win32,60.08893162,,,,,,,,,,,,,,./stim/p03_syllable_1_mebochiana_hit.wav,p03,mebochiana,hit,me-bo-chia-na,me-bo-chia-na,me-bo-chi-a-na, ,-0.377604167,-0.122395833,1,0,0,1.6162,text_option_1,,0,52,52,22,1
60a2a4657cb8e58bc437b6d3,63f3cfca20052e4ae7554ebf,6453ca0ab439006019d33594,2023-05-04_17h08.39.029,ga_syllabified_check,2022.2.5,Win32,60.08893162,,,,,,,,,,,,,,./stim/p07_syllable_1_lakatuaisto_hit.wav,p07,lakatuaisto,hit,la-ka-tuais-to,la-ka-tuais-to,la-ka-tu-ais-to,la-ka-tua-is-to,-0.3515625,-0.110677083,1,0,0,2.7158,text_option_1,,0,53,53,155,1
60a2a4657cb8e58bc437b6d3,63f3cfca20052e4ae7554ebf,6453ca0ab439006019d33594,2023-05-04_17h08.39.029,ga_syllabified_check,2022.2.5,Win32,60.08893162,,,,,,,,,,,,,,./stim/p03_syllable_1_lakatiaisto_hit.wav,p03,lakatiaisto,hit,la-ka-tiais-to,la-ka-tiais-to,la-ka-ti-ais-to,la-ka-tia-is-to,-0.3515625,-0.110677083,1,0,0,1.388,text_option_1,,0,54,54,18,1
60a2a4657cb8e58bc437b6d3,63f3cfca20052e4ae7554ebf,6453ca0ab439006019d33594,2023-05-04_17h08.39.029,ga_syllabified_check,2022.2.5,Win32,60.08893162,,,,,,,,,,,,,,./stim/p04_syllable_1_lakadiaisto_hit.wav,p04,lakadiaisto,hit,la-ka-dias-to,la-ka-diais-to,la-ka-di-ais-to,la-ka-dia-is-to,-0.3515625,-0.110677083,1,0,0,0.8647,text_option_1,,0,55,55,42,1
60a2a4657cb8e58bc437b6d3,63f3cfca20052e4ae7554ebf,6453ca0ab439006019d33594,2023-05-04_17h08.39.029,ga_syllabified_check,2022.2.5,Win32,60.08893162,,,,,,,,,,,,,,./stim/p07_syllable_1_lakadiaisto_hit.wav,p07,lakadiaisto,hit,la-ka-dia-is-to,la-ka-diais-to,la-ka-di-ais-to,la-ka-dia-is-to,0.059895833,-0.09765625,1,0,0,2.4047,text_option_3,,0,56,56,144,1
60a2a4657cb8e58bc437b6d3,63f3cfca20052e4ae7554ebf,6453ca0ab439006019d33594,2023-05-04_17h08.39.029,ga_syllabified_check,2022.2.5,Win32,60.08893162,,,,,,,,,,,,,,./stim/p05_syllable_1_lakagiaisto_hit.wav,p05,lakagiaisto,hit,la-ka-ki-ais-to,la-ka-giais-to,la-ka-gi-ais-to,la-ka-gia-is-to,-0.3515625,-0.109375,1,0,0,1.5514,text_option_1,,0,57,57,80,1
60a2a4657cb8e58bc437b6d3,63f3cfca20052e4ae7554ebf,6453ca0ab439006019d33594,2023-05-04_17h08.39.029,ga_syllabified_check,2022.2.5,Win32,60.08893162,,,,,,,,,,,,,,./stim/p08_syllable_1_palufauro_hit.wav,p08,palufauro,hit,pa-lu-fau-ro,pa-lu-fau-ro,pa-lu-fa-u-ro, ,-0.360677083,-0.106770833,1,0,0,2.3659,text_option_1,,0,58,58,195,1
60a2a4657cb8e58bc437b6d3,63f3cfca20052e4ae7554ebf,6453ca0ab439006019d33594,2023-05-04_17h08.39.029,ga_syllabified_check,2022.2.5,Win32,60.08893162,,,,,,,,,,,,,,./stim/p03_syllable_1_lliape_hit.wav,p03,lliape,hit,llia,llia-pe,lli-a-pe, ,-0.407552083,-0.119791667,1,0,0,0.6833,text_option_1,,0,59,59,20,1
60a2a4657cb8e58bc437b6d3,63f3cfca20052e4ae7554ebf,6453ca0ab439006019d33594,2023-05-04_17h08.39.029,ga_syllabified_check,2022.2.5,Win32,60.08893162,,,,,,,,,,,,,,./stim/p07_syllable_1_tuliafo_hit.wav,p07,tuliafo,hit,tu-lia-fo,tu-lia-fo,tu-li-a-fo, ,-0.3671875,-0.108072917,1,0,0,0.9495,text_option_1,,0,60,60,169,1
60a2a4657cb8e58bc437b6d3,63f3cfca20052e4ae7554ebf,6453ca0ab439006019d33594,2023-05-04_17h08.39.029,ga_syllabified_check,2022.2.5,Win32,60.08893162,,,,,,,,,,,,,,./stim/p03_syllable_1_ruyiola_hit.wav,p03,ruyiola,hit,ru-yio-la,ru-yio-la,ru-yi-o-la, ,-0.3671875,-0.108072917,1,0,0,2.4159,text_option_1,,0,61,61,32,1
60a2a4657cb8e58bc437b6d3,63f3cfca20052e4ae7554ebf,6453ca0ab439006019d33594,2023-05-04_17h08.39.029,ga_syllabified_check,2022.2.5,Win32,60.08893162,,,,,,,,,,,,,,./stim/p08_syllable_1_lakadiaisto_hit.wav,p08,lakadiaisto,hit,la-ka-di-jas-to,la-ka-diais-to,la-ka-di-ais-to,la-ka-dia-is-to,0.43359375,-0.09765625,1,0,0,3.7886,text_option_2,,0,62,62,178,1
60a2a4657cb8e58bc437b6d3,63f3cfca20052e4ae7554ebf,6453ca0ab439006019d33594,2023-05-04_17h08.39.029,ga_syllabified_check,2022.2.5,Win32,60.08893162,,,,,,,,,,,,,,./stim/p03_syllable_1_nhiape_hit.wav,p03,ñiape,hit,nhia-pe,ñia-pe,ñi-a-pe, ,-0.399739583,-0.1171875,1,0,0,1.1829,text_option_1,,0,63,63,23,1
60a2a4657cb8e58bc437b6d3,63f3cfca20052e4ae7554ebf,6453ca0ab439006019d33594,2023-05-04_17h08.39.029,ga_syllabified_check,2022.2.5,Win32,60.08893162,,,,,,,,,,,,,,./stim/p03_syllable_1_falufaisto_hit.wav,p03,falufaisto,hit,fa-lu-fais-to,fa-lu-fais-to,fa-lu-fa-is-to, ,-0.40234375,-0.110677083,1,0,0,1.3995,text_option_1,,0,64,64,3,1
60a2a4657cb8e58bc437b6d3,63f3cfca20052e4ae7554ebf,6453ca0ab439006019d33594,2023-05-04_17h08.39.029,ga_syllabified_check,2022.2.5,Win32,60.08893162,,,,,,,,,,,,,,./stim/p03_syllable_1_falutraigo_hit.wav,p03,falutraigo,hit,fa-lu-trai-go,fa-lu-trai-go,fa-lu-tra-i-go, ,-0.407552083,-0.10546875,1,0,0,1.3712,text_option_1,,0,65,65,4,1
60a2a4657cb8e58bc437b6d3,63f3cfca20052e4ae7554ebf,6453ca0ab439006019d33594,2023-05-04_17h08.39.029,ga_syllabified_check,2022.2.5,Win32,60.08893162,,,,,,,,,,,,,,./stim/p05_syllable_1_mebochiana_hit.wav,p05,mebochiana,hit,me-cho-chai-na,me-bo-chia-na,me-bo-chi-a-na, ,-0.40625,-0.1015625,1,0,0,7.321,text_option_1,,0,66,66,90,1
60a2a4657cb8e58bc437b6d3,63f3cfca20052e4ae7554ebf,6453ca0ab439006019d33594,2023-05-04_17h08.39.029,ga_syllabified_check,2022.2.5,Win32,60.08893162,,,,,,,,,,,,,,./stim/p08_syllable_1_rausto_hit.wav,p08,rausto,hit,raus-to,raus-to,ra-us-to, ,-0.408854167,-0.1015625,1,0,0,1.7002,text_option_1,,0,67,67,201,1
60a2a4657cb8e58bc437b6d3,63f3cfca20052e4ae7554ebf,6453ca0ab439006019d33594,2023-05-04_17h08.39.029,ga_syllabified_check,2022.2.5,Win32,60.08893162,,,,,,,,,,,,,,./stim/p04_syllable_1_mebochiana_hit.wav,p04,mebochiana,hit,me-bo-chia-na,me-bo-chia-na,me-bo-chi-a-na, ,-0.3359375,-0.1015625,1,0,0,3.4697,text_option_1,,0,68,68,56,1
60a2a4657cb8e58bc437b6d3,63f3cfca20052e4ae7554ebf,6453ca0ab439006019d33594,2023-05-04_17h08.39.029,ga_syllabified_check,2022.2.5,Win32,60.08893162,,,,,,,,,,,,,,./stim/p05_syllable_1_lakatiaisto_hit.wav,p05,lakatiaisto,hit,la-ka-ti-ais-to,la-ka-tiais-to,la-ka-ti-ais-to,la-ka-tia-is-to,-0.361979167,-0.09375,1,0,0,1.7496,text_option_1,,0,69,69,86,1
60a2a4657cb8e58bc437b6d3,63f3cfca20052e4ae7554ebf,6453ca0ab439006019d33594,2023-05-04_17h08.39.029,ga_syllabified_check,2022.2.5,Win32,60.08893162,,,,,,,,,,,,,,./stim/p08_syllable_1_palufauto_hit.wav,p08,palufauto,hit,pa-lu-fau-to,pa-lu-fau-to,pa-lu-fa-u-to, ,-0.421875,-0.098958333,1,0,0,3.9353,text_option_1,,0,70,70,196,1
60a2a4657cb8e58bc437b6d3,63f3cfca20052e4ae7554ebf,6453ca0ab439006019d33594,2023-05-04_17h08.39.029,ga_syllabified_check,2022.2.5,Win32,60.08893162,,,,,,,,,,,,,,./stim/p04_syllable_1_payielo_hit.wav,p04,payielo,hit,pa-yie-lo,pa-yie-lo,pa-yi-e-lo, ,-0.369791667,-0.102864583,1,0,0,0.8667,text_option_1,,0,71,71,64,1
60a2a4657cb8e58bc437b6d3,63f3cfca20052e4ae7554ebf,6453ca0ab439006019d33594,2023-05-04_17h08.39.029,ga_syllabified_check,2022.2.5,Win32,60.08893162,,,,,,,,,,,,,,./stim/p06_syllable_1_lakabuaisto_hit.wav,p06,lakabuaisto,hit,la-ka-bu-a-is,la-ka-buais-to,la-ka-bu-ais-to,la-ka-bua-is-to,0.020833333,-0.294270833,1,0,0,7.815,text_option_other,la-ka-bu-a-is-to,0,72,72,109,1
60a2a4657cb8e58bc437b6d3,63f3cfca20052e4ae7554ebf,6453ca0ab439006019d33594,2023-05-04_17h08.39.029,ga_syllabified_check,2022.2.5,Win32,60.08893162,,,,,,,,,,,,,,./stim/p07_syllable_1_lakapuaisto_hit.wav,p07,lakapuaisto,hit,la-ka-puais-to,la-ka-puais-to,la-ka-pu-ais-to,la-ka-pua-is-to,-0.440104167,-0.092447917,1,0,0,2.4328,text_option_1,,0,73,73,153,1
60a2a4657cb8e58bc437b6d3,63f3cfca20052e4ae7554ebf,6453ca0ab439006019d33594,2023-05-04_17h08.39.029,ga_syllabified_check,2022.2.5,Win32,60.08893162,,,,,,,,,,,,,,./stim/p07_syllable_1_faluduako_hit.wav,p07,faluduako,hit,fa-lu-dua-ko,fa-lu-dua-ko,fa-lu-du-a-ko, ,-0.337239583,-0.100260417,1,0,0,2.3488,text_option_1,,0,74,74,138,1
60a2a4657cb8e58bc437b6d3,63f3cfca20052e4ae7554ebf,6453ca0ab439006019d33594,2023-05-04_17h08.39.029,ga_syllabified_check,2022.2.5,Win32,60.08893162,,,,,,,,,,,,,,./stim/p05_syllable_1_flauro_hit.wav,p05,flauro,hit,fa-lu-ro,flau-ro,fla-u-ro, ,-0.3984375,-0.10546875,1,0,0,7.9805,text_option_1,,0,75,75,73,1
60a2a4657cb8e58bc437b6d3,63f3cfca20052e4ae7554ebf,6453ca0ab439006019d33594,2023-05-04_17h08.39.029,ga_syllabified_check,2022.2.5,Win32,60.08893162,,,,,,,,,,,,,,./stim/p03_syllable_1_lakapiaisto_hit.wav,p03,lakapiaisto,hit,la-ka-piais-to,la-ka-piais-to,la-ka-pi-ais-to,la-ka-pia-is-to,-0.36328125,-0.1171875,1,0,0,2.3454,text_option_1,,0,76,76,16,1
60a2a4657cb8e58bc437b6d3,63f3cfca20052e4ae7554ebf,6453ca0ab439006019d33594,2023-05-04_17h08.39.029,ga_syllabified_check,2022.2.5,Win32,60.08893162,,,,,,,,,,,,,,./stim/p04_syllable_1_faluduako_hit.wav,p04,faluduako,hit,fa-lu-dua-ko,fa-lu-dua-ko,fa-lu-du-a-ko, ,-0.3671875,-0.11328125,1,0,0,0.7001,text_option_1,,0,77,77,36,1
60a2a4657cb8e58bc437b6d3,63f3cfca20052e4ae7554ebf,6453ca0ab439006019d33594,2023-05-04_17h08.39.029,ga_syllabified_check,2022.2.5,Win32,60.08893162,,,,,,,,,,,,,,./stim/p03_syllable_1_lakafuaisto_hit.wav,p03,lakafuaisto,hit,la-ka-fuais-to,la-ka-fuais-to,la-ka-fu-ais-to,la-ka-fua-is-to,-0.3671875,-0.11328125,1,0,0,1.284,text_option_1,,0,78,78,11,1
60a2a4657cb8e58bc437b6d3,63f3cfca20052e4ae7554ebf,6453ca0ab439006019d33594,2023-05-04_17h08.39.029,ga_syllabified_check,2022.2.5,Win32,60.08893162,,,,,,,,,,,,,,./stim/p05_syllable_1_costonhialo_hit.wav,p05,costoñialo,hit,cos-to-nhia-lo,cos-to-ñia-lo,cos-to-ñi-a-lo, ,-0.3671875,-0.11328125,1,0,0,1.6002,text_option_1,,0,79,79,69,1
60a2a4657cb8e58bc437b6d3,63f3cfca20052e4ae7554ebf,6453ca0ab439006019d33594,2023-05-04_17h08.39.029,ga_syllabified_check,2022.2.5,Win32,60.08893162,,,,,,,,,,,,,,./stim/p08_syllable_1_lliape_hit.wav,p08,lliape,hit,li-a-pe,llia-pe,lli-a-pe, ,0.381510417,-0.091145833,1,0,0,1.0552,text_option_2,,0,80,80,190,1
60a2a4657cb8e58bc437b6d3,63f3cfca20052e4ae7554ebf,6453ca0ab439006019d33594,2023-05-04_17h08.39.029,ga_syllabified_check,2022.2.5,Win32,60.08893162,,,,,,,,,,,,,,./stim/p07_syllable_1_lakakiaisto_hit.wav,p07,lakakiaisto,hit,la-ka-kais-to,la-ka-kiais-to,la-ka-ki-ais-to,la-ka-kia-is-to,-0.375,-0.11328125,1,0,0,2.8824,text_option_1,,0,81,81,150,1
60a2a4657cb8e58bc437b6d3,63f3cfca20052e4ae7554ebf,6453ca0ab439006019d33594,2023-05-04_17h08.39.029,ga_syllabified_check,2022.2.5,Win32,60.08893162,,,,,,,,,,,,,,./stim/p08_syllable_1_lakabuaisto_hit.wav,p08,lakabuaisto,hit,la-ka-bu-ais-to,la-ka-buais-to,la-ka-bu-ais-to,la-ka-bua-is-to,0.41796875,-0.10546875,1,0,0,4.1832,text_option_2,,0,82,82,177,1
60a2a4657cb8e58bc437b6d3,63f3cfca20052e4ae7554ebf,6453ca0ab439006019d33594,2023-05-04_17h08.39.029,ga_syllabified_check,2022.2.5,Win32,60.08893162,,,,,,,,,,,,,,./stim/p04_syllable_1_costonhialo_hit.wav,p04,costoñialo,hit,cos-to-nhia-lo,cos-to-ñia-lo,cos-to-ñi-a-lo, ,-0.35546875,-0.108072917,1,0,0,1.5662,text_option_1,,0,83,83,35,1
60a2a4657cb8e58bc437b6d3,63f3cfca20052e4ae7554ebf,6453ca0ab439006019d33594,2023-05-04_17h08.39.029,ga_syllabified_check,2022.2.5,Win32,60.08893162,,,,,,,,,,,,,,./stim/p08_syllable_1_falutraigo_hit.wav,p08,falutraigo,hit,fa-lu-trai-go,fa-lu-trai-go,fa-lu-tra-i-go, ,-0.348958333,-0.108072917,1,0,0,2.2837,text_option_1,,0,84,84,174,1
60a2a4657cb8e58bc437b6d3,63f3cfca20052e4ae7554ebf,6453ca0ab439006019d33594,2023-05-04_17h08.39.029,ga_syllabified_check,2022.2.5,Win32,60.08893162,,,,,,,,,,,,,,./stim/p06_syllable_1_lakakuaisto_hit.wav,p06,lakakuaisto,hit,la-ka-ku-a-is,la-ka-kuais-to,la-ka-ku-ais-to,la-ka-kua-is-to,0.072916667,-0.3046875,1,0,0,8.0148,text_option_other,la-ka-bu-a-is-to,0,85,85,117,1
60a2a4657cb8e58bc437b6d3,63f3cfca20052e4ae7554ebf,6453ca0ab439006019d33594,2023-05-04_17h08.39.029,ga_syllabified_check,2022.2.5,Win32,60.08893162,,,,,,,,,,,,,,./stim/p05_syllable_1_tuliafo_hit.wav,p05,tuliafo,hit,tu-lai-fo,tu-lia-fo,tu-li-a-fo, ,-0.38671875,-0.100260417,1,0,0,3.4155,text_option_1,,0,86,86,101,1
60a2a4657cb8e58bc437b6d3,63f3cfca20052e4ae7554ebf,6453ca0ab439006019d33594,2023-05-04_17h08.39.029,ga_syllabified_check,2022.2.5,Win32,60.08893162,,,,,,,,,,,,,,./stim/p05_syllable_1_payielo_hit.wav,p05,payielo,hit,pai-yu-we-lo,pa-yie-lo,pa-yi-e-lo, ,-0.407552083,-0.104166667,1,0,0,3.899,text_option_1,,0,87,87,98,1
60a2a4657cb8e58bc437b6d3,63f3cfca20052e4ae7554ebf,6453ca0ab439006019d33594,2023-05-04_17h08.39.029,ga_syllabified_check,2022.2.5,Win32,60.08893162,,,,,,,,,,,,,,./stim/p07_syllable_1_lakatiaisto_hit.wav,p07,lakatiaisto,hit,la-ka-tiai-sto,la-ka-tiais-to,la-ka-ti-ais-to,la-ka-tia-is-to,-0.342447917,-0.110677083,1,0,0,5.5155,text_option_1,,0,88,88,154,1
60a2a4657cb8e58bc437b6d3,63f3cfca20052e4ae7554ebf,6453ca0ab439006019d33594,2023-05-04_17h08.39.029,ga_syllabified_check,2022.2.5,Win32,60.08893162,,,,,,,,,,,,,,./stim/p08_syllable_1_palumaisto_hit.wav,p08,palumaisto,hit,pa-lu-mais-to,pa-lu-mais-to,pa-lu-ma-is-to, ,-0.338541667,-0.110677083,1,0,0,1.9333,text_option_1,,0,89,89,198,1
60a2a4657cb8e58bc437b6d3,63f3cfca20052e4ae7554ebf,6453ca0ab439006019d33594,2023-05-04_17h08.39.029,ga_syllabified_check,2022.2.5,Win32,60.08893162,,,,,,,,,,,,,,./stim/p05_syllable_1_palufauto_hit.wav,p05,palufauto,hit,pa-lu-fau-to,pa-lu-fau-to,pa-lu-fa-u-to, ,-0.338541667,-0.110677083,1,0,0,1.0496,text_option_1,,0,90,90,94,1
60a2a4657cb8e58bc437b6d3,63f3cfca20052e4ae7554ebf,6453ca0ab439006019d33594,2023-05-04_17h08.39.029,ga_syllabified_check,2022.2.5,Win32,60.08893162,,,,,,,,,,,,,,./stim/p08_syllable_1_flauro_hit.wav,p08,flauro,hit,flau-ro,flau-ro,fla-u-ro, ,-0.393229167,-0.092447917,1,0,0,1.7831,text_option_1,,0,91,91,175,1
60a2a4657cb8e58bc437b6d3,63f3cfca20052e4ae7554ebf,6453ca0ab439006019d33594,2023-05-04_17h08.39.029,ga_syllabified_check,2022.2.5,Win32,60.08893162,,,,,,,,,,,,,,./stim/p05_syllable_1_lakatuaisto_hit.wav,p05,lakatuaisto,hit,la-ka-tais-to,la-ka-tuais-to,la-ka-tu-ais-to,la-ka-tua-is-to,-0.40625,-0.095052083,1,0,0,1.5,text_option_1,,0,92,92,87,1
60a2a4657cb8e58bc437b6d3,63f3cfca20052e4ae7554ebf,6453ca0ab439006019d33594,2023-05-04_17h08.39.029,ga_syllabified_check,2022.2.5,Win32,60.08893162,,,,,,,,,,,,,,./stim/p04_syllable_1_lakabiaisto_hit.wav,p04,lakabiaisto,hit,la-ka-biais-to,la-ka-biais-to,la-ka-bi-ais-to,la-ka-bia-is-to,-0.40234375,-0.09765625,1,0,0,0.599,text_option_1,,0,93,93,40,1
60a2a4657cb8e58bc437b6d3,63f3cfca20052e4ae7554ebf,6453ca0ab439006019d33594,2023-05-04_17h08.39.029,ga_syllabified_check,2022.2.5,Win32,60.08893162,,,,,,,,,,,,,,./stim/p06_syllable_1_lakatuaisto_hit.wav,p06,lakatuaisto,hit,la-ka-tu-a-is,la-ka-tuais-to,la-ka-tu-ais-to,la-ka-tua-is-to,0.02734375,-0.3125,1,0,0,6.381,text_option_other,la-ka-tu-a-is-to,0,94,94,121,1
60a2a4657cb8e58bc437b6d3,63f3cfca20052e4ae7554ebf,6453ca0ab439006019d33594,2023-05-04_17h08.39.029,ga_syllabified_check,2022.2.5,Win32,60.08893162,,,,,,,,,,,,,,./stim/p08_syllable_1_nhiape_hit.wav,p08,ñiape,hit,ni-a-pe,ñia-pe,ñi-a-pe, ,0.381510417,-0.104166667,1,0,0,3.5,text_option_2,,0,95,95,193,1
60a2a4657cb8e58bc437b6d3,63f3cfca20052e4ae7554ebf,6453ca0ab439006019d33594,2023-05-04_17h08.39.029,ga_syllabified_check,2022.2.5,Win32,60.08893162,,,,,,,,,,,,,,./stim/p05_syllable_1_lakafiaisto_hit.wav,p05,lakafiaisto,hit,la-ka-fi-ais-to,la-ka-fiais-to,la-ka-fi-ais-to,la-ka-fia-is-to,0.4296875,-0.096354167,1,0,0,2.7161,text_option_2,,0,96,96,78,1
60a2a4657cb8e58bc437b6d3,63f3cfca20052e4ae7554ebf,6453ca0ab439006019d33594,2023-05-04_17h08.39.029,ga_syllabified_check,2022.2.5,Win32,60.08893162,,,,,,,,,,,,,,./stim/p03_syllable_1_lakapuaisto_hit.wav,p03,lakapuaisto,hit,la-ka-puais-to,la-ka-puais-to,la-ka-pu-ais-to,la-ka-pua-is-to,-0.36328125,-0.1015625,1,0,0,1.7538,text_option_1,,0,97,97,17,1
60a2a4657cb8e58bc437b6d3,63f3cfca20052e4ae7554ebf,6453ca0ab439006019d33594,2023-05-04_17h08.39.029,ga_syllabified_check,2022.2.5,Win32,60.08893162,,,,,,,,,,,,,,./stim/p07_syllable_1_lakaguaisto_hit.wav,p07,lakaguaisto,hit,la-ka-guais-to,la-ka-guais-to,la-ka-gu-ais-to,la-ka-gua-is-to,-0.36328125,-0.1015625,1,0,0,1.9286,text_option_1,,0,98,98,149,1
60a2a4657cb8e58bc437b6d3,63f3cfca20052e4ae7554ebf,6453ca0ab439006019d33594,2023-05-04_17h08.39.029,ga_syllabified_check,2022.2.5,Win32,60.08893162,,,,,,,,,,,,,,./stim/p03_syllable_1_paluguato_hit.wav,p03,paluguato,hit,pa-lu-gua,pa-lu-gua-to,pa-lu-gu-a-to, ,-0.352864583,-0.100260417,1,0,0,1.3666,text_option_1,,0,99,99,27,1
60a2a4657cb8e58bc437b6d3,63f3cfca20052e4ae7554ebf,6453ca0ab439006019d33594,2023-05-04_17h08.39.029,ga_syllabified_check,2022.2.5,Win32,60.08893162,,,,,,,,,,,,,,./stim/p03_syllable_1_rausto_hit.wav,p03,rausto,hit,raus-to,raus-to,ra-us-to, ,-0.3671875,-0.114583333,1,0,0,0.879,text_option_1,,0,100,100,31,1
60a2a4657cb8e58bc437b6d3,63f3cfca20052e4ae7554ebf,6453ca0ab439006019d33594,2023-05-04_17h08.39.029,ga_syllabified_check,2022.2.5,Win32,60.08893162,,,,,,,,,,,,,,./stim/p05_syllable_1_manhiala_hit.wav,p05,mañiala,hit,ma-nhia-la,ma-ñia-la,ma-ñi-a-la, ,-0.376302083,-0.11328125,1,0,0,1.2171,text_option_1,,0,101,101,89,1
60a2a4657cb8e58bc437b6d3,63f3cfca20052e4ae7554ebf,6453ca0ab439006019d33594,2023-05-04_17h08.39.029,ga_syllabified_check,2022.2.5,Win32,60.08893162,,,,,,,,,,,,,,./stim/p08_syllable_1_lakaguaisto_hit.wav,p08,lakaguaisto,hit,la-ka-gu-ais-to,la-ka-guais-to,la-ka-gu-ais-to,la-ka-gua-is-to,0.403645833,-0.100260417,1,0,0,2.9826,text_option_2,,0,102,102,183,1
60a2a4657cb8e58bc437b6d3,63f3cfca20052e4ae7554ebf,6453ca0ab439006019d33594,2023-05-04_17h08.39.029,ga_syllabified_check,2022.2.5,Win32,60.08893162,,,,,,,,,,,,,,./stim/p05_syllable_1_paluguato_hit.wav,p05,paluguato,hit,pa-lu-gau-to,pa-lu-gua-to,pa-lu-gu-a-to, ,-0.368489583,-0.114583333,1,0,0,2.0366,text_option_1,,0,103,103,95,1
60a2a4657cb8e58bc437b6d3,63f3cfca20052e4ae7554ebf,6453ca0ab439006019d33594,2023-05-04_17h08.39.029,ga_syllabified_check,2022.2.5,Win32,60.08893162,,,,,,,,,,,,,,./stim/p06_syllable_1_lliape_hit.wav,p06,lliape,hit,lli-lla-pe,llia-pe,lli-a-pe, ,0.381510417,-0.09375,1,0,0,0.989,text_option_2,,0,104,104,122,1
60a2a4657cb8e58bc437b6d3,63f3cfca20052e4ae7554ebf,6453ca0ab439006019d33594,2023-05-04_17h08.39.029,ga_syllabified_check,2022.2.5,Win32,60.08893162,,,,,,,,,,,,,,./stim/p07_syllable_1_palufauto_hit.wav,p07,palufauto,hit,pa-lu-fau-to,pa-lu-fau-to,pa-lu-fa-u-to, ,-0.434895833,-0.08984375,1,0,0,1.8871,text_option_1,,0,105,105,162,1
60a2a4657cb8e58bc437b6d3,63f3cfca20052e4ae7554ebf,6453ca0ab439006019d33594,2023-05-04_17h08.39.029,ga_syllabified_check,2022.2.5,Win32,60.08893162,,,,,,,,,,,,,,./stim/p07_syllable_1_lakabuaisto_hit.wav,p07,lakabuaisto,hit,la-ka-buais-to,la-ka-buais-to,la-ka-bu-ais-to,la-ka-bua-is-to,-0.40234375,-0.10546875,1,0,0,2.6125,text_option_1,,0,106,106,143,1
60a2a4657cb8e58bc437b6d3,63f3cfca20052e4ae7554ebf,6453ca0ab439006019d33594,2023-05-04_17h08.39.029,ga_syllabified_check,2022.2.5,Win32,60.08893162,,,,,,,,,,,,,,./stim/p08_syllable_1_lakaduaisto_hit.wav,p08,lakaduaisto,hit,la-ka-du-ais-to,la-ka-duais-to,la-ka-du-ais-to,la-ka-dua-is-to,0.416666667,-0.1171875,1,0,0,3.7829,text_option_2,,0,107,107,179,1
60a2a4657cb8e58bc437b6d3,63f3cfca20052e4ae7554ebf,6453ca0ab439006019d33594,2023-05-04_17h08.39.029,ga_syllabified_check,2022.2.5,Win32,60.08893162,,,,,,,,,,,,,,./stim/p07_syllable_1_palumaisto_hit.wav,p07,palumaisto,hit,pa-lu-mais-to,pa-lu-mais-to,pa-lu-ma-is-to, ,-0.368489583,-0.096354167,1,0,0,2.8816,text_option_1,,0,108,108,164,1
60a2a4657cb8e58bc437b6d3,63f3cfca20052e4ae7554ebf,6453ca0ab439006019d33594,2023-05-04_17h08.39.029,ga_syllabified_check,2022.2.5,Win32,60.08893162,,,,,,,,,,,,,,./stim/p06_syllable_1_tuliafo_hit.wav,p06,tuliafo,hit,tu-li-a-fo,tu-lia-fo,tu-li-a-fo, ,0.416666667,-0.10546875,1,0,0,1.6002,text_option_2,,0,109,109,135,1
60a2a4657cb8e58bc437b6d3,63f3cfca20052e4ae7554ebf,6453ca0ab439006019d33594,2023-05-04_17h08.39.029,ga_syllabified_check,2022.2.5,Win32,60.08893162,,,,,,,,,,,,,,./stim/p05_syllable_1_lakafuaisto_hit.wav,p05,lakafuaisto,hit,la-ka-fais-to,la-ka-fuais-to,la-ka-fu-ais-to,la-ka-fua-is-to,-0.358072917,-0.108072917,1,0,0,1.4184,text_option_1,,0,110,110,79,1
60a2a4657cb8e58bc437b6d3,63f3cfca20052e4ae7554ebf,6453ca0ab439006019d33594,2023-05-04_17h08.39.029,ga_syllabified_check,2022.2.5,Win32,60.08893162,,,,,,,,,,,,,,./stim/p07_syllable_1_manhiala_hit.wav,p07,mañiala,hit,ma-nhia-la,ma-ñia-la,ma-ñi-a-la, ,-0.34375,-0.09765625,1,0,0,1.3668,text_option_1,,0,111,111,157,1
60a2a4657cb8e58bc437b6d3,63f3cfca20052e4ae7554ebf,6453ca0ab439006019d33594,2023-05-04_17h08.39.029,ga_syllabified_check,2022.2.5,Win32,60.08893162,,,,,,,,,,,,,,./stim/p03_syllable_1_manhiala_hit.wav,p03,mañiala,hit,ma-nhia-la,ma-ñia-la,ma-ñi-a-la, ,-0.34375,-0.100260417,1,0,0,0.8545,text_option_1,,0,112,112,21,1
60a2a4657cb8e58bc437b6d3,63f3cfca20052e4ae7554ebf,6453ca0ab439006019d33594,2023-05-04_17h08.39.029,ga_syllabified_check,2022.2.5,Win32,60.08893162,,,,,,,,,,,,,,./stim/p05_syllable_1_lakakuaisto_hit.wav,p05,lakakuaisto,hit,la-ka-kais-to,la-ka-kuais-to,la-ka-ku-ais-to,la-ka-kua-is-to,-0.399739583,-0.108072917,1,0,0,2.7496,text_option_1,,0,113,113,83,1
60a2a4657cb8e58bc437b6d3,63f3cfca20052e4ae7554ebf,6453ca0ab439006019d33594,2023-05-04_17h08.39.029,ga_syllabified_check,2022.2.5,Win32,60.08893162,,,,,,,,,,,,,,./stim/p05_syllable_1_lakakiaisto_hit.wav,p05,lakakiaisto,hit,la-ka-ki-ais-to,la-ka-kiais-to,la-ka-ki-ais-to,la-ka-kia-is-to,-0.399739583,-0.108072917,1,0,0,1.216,text_option_1,,0,114,114,82,1
60a2a4657cb8e58bc437b6d3,63f3cfca20052e4ae7554ebf,6453ca0ab439006019d33594,2023-05-04_17h08.39.029,ga_syllabified_check,2022.2.5,Win32,60.08893162,,,,,,,,,,,,,,./stim/p04_syllable_1_pachialo_hit.wav,p04,pachialo,hit,pa-chia-lo,pa-chia-lo,pa-chi-a-lo, ,-0.399739583,-0.108072917,1,0,0,0.5668,text_option_1,,0,115,115,58,1
60a2a4657cb8e58bc437b6d3,63f3cfca20052e4ae7554ebf,6453ca0ab439006019d33594,2023-05-04_17h08.39.029,ga_syllabified_check,2022.2.5,Win32,60.08893162,,,,,,,,,,,,,,./stim/p03_syllable_1_lakagiaisto_hit.wav,p03,lakagiaisto,hit,la-ka-giais-to,la-ka-giais-to,la-ka-gi-ais-to,la-ka-gia-is-to,-0.399739583,-0.108072917,1,0,0,2.0827,text_option_1,,0,116,116,12,1
60a2a4657cb8e58bc437b6d3,63f3cfca20052e4ae7554ebf,6453ca0ab439006019d33594,2023-05-04_17h08.39.029,ga_syllabified_check,2022.2.5,Win32,60.08893162,,,,,,,,,,,,,,./stim/p04_syllable_1_lakatiaisto_hit.wav,p04,lakatiaisto,hit,la-ka-kiais-to,la-ka-tiais-to,la-ka-ti-ais-to,la-ka-tia-is-to,-0.399739583,-0.108072917,1,0,0,0.9834,text_option_1,,0,117,117,52,1
60a2a4657cb8e58bc437b6d3,63f3cfca20052e4ae7554ebf,6453ca0ab439006019d33594,2023-05-04_17h08.39.029,ga_syllabified_check,2022.2.5,Win32,60.08893162,,,,,,,,,,,,,,./stim/p04_syllable_1_lliape_hit.wav,p04,lliape,hit,lia-pe,llia-pe,lli-a-pe, ,-0.399739583,-0.108072917,1,0,0,0.4346,text_option_1,,0,118,118,54,1
60a2a4657cb8e58bc437b6d3,63f3cfca20052e4ae7554ebf,6453ca0ab439006019d33594,2023-05-04_17h08.39.029,ga_syllabified_check,2022.2.5,Win32,60.08893162,,,,,,,,,,,,,,./stim/p05_syllable_1_ruyiola_hit.wav,p05,ruyiola,hit,ru-yio-la,ru-yio-la,ru-yi-o-la, ,-0.399739583,-0.108072917,1,0,0,0.784,text_option_1,,0,119,119,100,1
60a2a4657cb8e58bc437b6d3,63f3cfca20052e4ae7554ebf,6453ca0ab439006019d33594,2023-05-04_17h08.39.029,ga_syllabified_check,2022.2.5,Win32,60.08893162,,,,,,,,,,,,,,./stim/p05_syllable_1_faluduako_hit.wav,p05,faluduako,hit,fa-lu-ba-ko,fa-lu-dua-ko,fa-lu-du-a-ko, ,-0.399739583,-0.108072917,1,0,0,1.8497,text_option_1,,0,120,120,70,1
60a2a4657cb8e58bc437b6d3,63f3cfca20052e4ae7554ebf,6453ca0ab439006019d33594,2023-05-04_17h08.39.029,ga_syllabified_check,2022.2.5,Win32,60.08893162,,,,,,,,,,,,,,./stim/p08_syllable_1_tuliafo_hit.wav,p08,tuliafo,hit,tu-li-a-fo,tu-lia-fo,tu-li-a-fo, ,0.442708333,-0.1015625,1,0,0,1.6164,text_option_2,,0,121,121,203,1
60a2a4657cb8e58bc437b6d3,63f3cfca20052e4ae7554ebf,6453ca0ab439006019d33594,2023-05-04_17h08.39.029,ga_syllabified_check,2022.2.5,Win32,60.08893162,,,,,,,,,,,,,,./stim/p08_syllable_1_lakapiaisto_hit.wav,p08,lakapiaisto,hit,la-ka-pi-as-to,la-ka-piais-to,la-ka-pi-ais-to,la-ka-pia-is-to,0.39453125,-0.111979167,1,0,0,3.9657,text_option_2,,0,122,122,186,1
60a2a4657cb8e58bc437b6d3,63f3cfca20052e4ae7554ebf,6453ca0ab439006019d33594,2023-05-04_17h08.39.029,ga_syllabified_check,2022.2.5,Win32,60.08893162,,,,,,,,,,,,,,./stim/p07_syllable_1_lakafuaisto_hit.wav,p07,lakafuaisto,hit,la-ka-fuais-to,la-ka-fuais-to,la-ka-fu-ais-to,la-ka-fua-is-to,-0.342447917,-0.10546875,1,0,0,2.0168,text_option_1,,0,123,123,147,1
60a2a4657cb8e58bc437b6d3,63f3cfca20052e4ae7554ebf,6453ca0ab439006019d33594,2023-05-04_17h08.39.029,ga_syllabified_check,2022.2.5,Win32,60.08893162,,,,,,,,,,,,,,./stim/p08_syllable_1_costonhialo_hit.wav,p08,costoñialo,hit,cos-to-nhia-lo,cos-to-ñia-lo,cos-to-ñi-a-lo, ,-0.38671875,-0.111979167,1,0,0,1.7675,text_option_1,,0,124,124,171,1
60a2a4657cb8e58bc437b6d3,63f3cfca20052e4ae7554ebf,6453ca0ab439006019d33594,2023-05-04_17h08.39.029,ga_syllabified_check,2022.2.5,Win32,60.08893162,,,,,,,,,,,,,,./stim/p04_syllable_1_palufauro_hit.wav,p04,palufauro,hit,pa-lu-fau-ro,pa-lu-fau-ro,pa-lu-fa-u-ro, ,-0.39453125,-0.111979167,1,0,0,1.2497,text_option_1,,0,125,125,59,1
60a2a4657cb8e58bc437b6d3,63f3cfca20052e4ae7554ebf,6453ca0ab439006019d33594,2023-05-04_17h08.39.029,ga_syllabified_check,2022.2.5,Win32,60.08893162,,,,,,,,,,,,,,./stim/p05_syllable_1_lakaguaisto_hit.wav,p05,lakaguaisto,hit,la-ka-gais,la-ka-guais-to,la-ka-gu-ais-to,la-ka-gua-is-to,-0.395833333,-0.111979167,1,0,0,1.4337,text_option_1,,0,126,126,81,1
60a2a4657cb8e58bc437b6d3,63f3cfca20052e4ae7554ebf,6453ca0ab439006019d33594,2023-05-04_17h08.39.029,ga_syllabified_check,2022.2.5,Win32,60.08893162,,,,,,,,,,,,,,./stim/p04_syllable_1_falutraigo_hit.wav,p04,falutraigo,hit,fa-lu-trai-go,fa-lu-trai-go,fa-lu-tra-i-go, ,-0.395833333,-0.111979167,1,0,0,0.6694,text_option_1,,0,127,127,38,1
60a2a4657cb8e58bc437b6d3,63f3cfca20052e4ae7554ebf,6453ca0ab439006019d33594,2023-05-04_17h08.39.029,ga_syllabified_check,2022.2.5,Win32,60.08893162,,,,,,,,,,,,,,./stim/p05_syllable_1_lakadiaisto_hit.wav,p05,lakadiaisto,hit,la-ka-di-ais-to,la-ka-diais-to,la-ka-di-ais-to,la-ka-dia-is-to,-0.381510417,-0.087239583,1,0,0,2.1986,text_option_1,,0,128,128,76,1
60a2a4657cb8e58bc437b6d3,63f3cfca20052e4ae7554ebf,6453ca0ab439006019d33594,2023-05-04_17h08.39.029,ga_syllabified_check,2022.2.5,Win32,60.08893162,,,,,,,,,,,,,,./stim/p08_syllable_1_lakakuaisto_hit.wav,p08,lakakuaisto,hit,la-ka-ku-ais-to,la-ka-kuais-to,la-ka-ku-ais-to,la-ka-kua-is-to,0.37890625,-0.098958333,1,0,0,3.8508,text_option_2,,0,129,129,185,1
60a2a4657cb8e58bc437b6d3,63f3cfca20052e4ae7554ebf,6453ca0ab439006019d33594,2023-05-04_17h08.39.029,ga_syllabified_check,2022.2.5,Win32,60.08893162,,,,,,,,,,,,,,./stim/p07_syllable_1_mebochiana_hit.wav,p07,mebochiana,hit,me-bo-chia-na,me-bo-chia-na,me-bo-chi-a-na, ,-0.38671875,-0.096354167,1,0,0,2.5493,text_option_1,,0,130,130,158,1
60a2a4657cb8e58bc437b6d3,63f3cfca20052e4ae7554ebf,6453ca0ab439006019d33594,2023-05-04_17h08.39.029,ga_syllabified_check,2022.2.5,Win32,60.08893162,,,,,,,,,,,,,,./stim/p05_syllable_1_lakabuaisto_hit.wav,p05,lakabuaisto,hit,la-ka-buais-to,la-ka-buais-to,la-ka-bu-ais-to,la-ka-bua-is-to,-0.36328125,-0.106770833,1,0,0,1.2359,text_option_1,,0,131,131,75,1
60a2a4657cb8e58bc437b6d3,63f3cfca20052e4ae7554ebf,6453ca0ab439006019d33594,2023-05-04_17h08.39.029,ga_syllabified_check,2022.2.5,Win32,60.08893162,,,,,,,,,,,,,,./stim/p03_syllable_1_lakakuaisto_hit.wav,p03,lakakuaisto,hit,la-ka-kuais-to,la-ka-kuais-to,la-ka-ku-ais-to,la-ka-kua-is-to,-0.372395833,-0.109375,1,0,0,0.8996,text_option_1,,0,132,132,15,1
60a2a4657cb8e58bc437b6d3,63f3cfca20052e4ae7554ebf,6453ca0ab439006019d33594,2023-05-04_17h08.39.029,ga_syllabified_check,2022.2.5,Win32,60.08893162,,,,,,,,,,,,,,./stim/p08_syllable_1_payielo_hit.wav,p08,payielo,hit,pa-yie-lo,pa-yie-lo,pa-yi-e-lo, ,-0.388020833,-0.106770833,1,0,0,2.3211,text_option_1,,0,133,133,200,1
60a2a4657cb8e58bc437b6d3,63f3cfca20052e4ae7554ebf,6453ca0ab439006019d33594,2023-05-04_17h08.39.029,ga_syllabified_check,2022.2.5,Win32,60.08893162,,,,,,,,,,,,,,./stim/p05_syllable_1_rausto_hit.wav,p05,rausto,hit,raus-to,raus-to,ra-us-to, ,-0.3671875,-0.108072917,1,0,0,0.3165,text_option_1,,0,134,134,99,1
60a2a4657cb8e58bc437b6d3,63f3cfca20052e4ae7554ebf,6453ca0ab439006019d33594,2023-05-04_17h08.39.029,ga_syllabified_check,2022.2.5,Win32,60.08893162,,,,,,,,,,,,,,./stim/p07_syllable_1_lakakuaisto_hit.wav,p07,lakakuaisto,hit,la-ka-kuais-to,la-ka-kuais-to,la-ka-ku-ais-to,la-ka-kua-is-to,-0.380208333,-0.092447917,1,0,0,3.9828,text_option_1,,0,135,135,151,1
60a2a4657cb8e58bc437b6d3,63f3cfca20052e4ae7554ebf,6453ca0ab439006019d33594,2023-05-04_17h08.39.029,ga_syllabified_check,2022.2.5,Win32,60.08893162,,,,,,,,,,,,,,./stim/p08_syllable_1_lakatuaisto_hit.wav,p08,lakatuaisto,hit,la-ka-tu-i-jis,la-ka-tuais-to,la-ka-tu-ais-to,la-ka-tua-is-to,0.3828125,-0.109375,1,0,0,4.3475,text_option_2,,0,136,136,189,1
60a2a4657cb8e58bc437b6d3,63f3cfca20052e4ae7554ebf,6453ca0ab439006019d33594,2023-05-04_17h08.39.029,ga_syllabified_check,2022.2.5,Win32,60.08893162,,,,,,,,,,,,,,./stim/p08_syllable_1_palutrauco_hit.wav,p08,palutrauco,hit,pa-lu-trau-ko,pa-lu-trau-co,pa-lu-tra-u-co, ,-0.364583333,-0.1015625,1,0,0,2.8329,text_option_1,,0,137,137,199,1
60a2a4657cb8e58bc437b6d3,63f3cfca20052e4ae7554ebf,6453ca0ab439006019d33594,2023-05-04_17h08.39.029,ga_syllabified_check,2022.2.5,Win32,60.08893162,,,,,,,,,,,,,,./stim/p03_syllable_1_lakafiaisto_hit.wav,p03,lakafiaisto,hit,la-ka-fiais-to,la-ka-fiais-to,la-ka-fi-ais-to,la-ka-fia-is-to,-0.326822917,-0.1015625,1,0,0,1.116,text_option_1,,0,138,138,10,1
60a2a4657cb8e58bc437b6d3,63f3cfca20052e4ae7554ebf,6453ca0ab439006019d33594,2023-05-04_17h08.39.029,ga_syllabified_check,2022.2.5,Win32,60.08893162,,,,,,,,,,,,,,./stim/p07_syllable_1_paluguato_hit.wav,p07,paluguato,hit,pa-lu-gua-to,pa-lu-gua-to,pa-lu-gu-a-to, ,-0.346354167,-0.102864583,1,0,0,1.55,text_option_1,,0,139,139,163,1
60a2a4657cb8e58bc437b6d3,63f3cfca20052e4ae7554ebf,6453ca0ab439006019d33594,2023-05-04_17h08.39.029,ga_syllabified_check,2022.2.5,Win32,60.08893162,,,,,,,,,,,,,,./stim/p04_syllable_1_lakakiaisto_hit.wav,p04,lakakiaisto,hit,la-ka-kiais-to,la-ka-kiais-to,la-ka-ki-ais-to,la-ka-kia-is-to,-0.346354167,-0.102864583,1,0,0,1.3213,text_option_1,,0,140,140,48,1
60a2a4657cb8e58bc437b6d3,63f3cfca20052e4ae7554ebf,6453ca0ab439006019d33594,2023-05-04_17h08.39.029,ga_syllabified_check,2022.2.5,Win32,60.08893162,,,,,,,,,,,,,,./stim/p03_syllable_1_flauro_hit.wav,p03,flauro,hit,flau-ro,flau-ro,fla-u-ro, ,-0.377604167,-0.111979167,1,0,0,0.3334,text_option_1,,0,141,141,5,1
60a2a4657cb8e58bc437b6d3,63f3cfca20052e4ae7554ebf,6453ca0ab439006019d33594,2023-05-04_17h08.39.029,ga_syllabified_check,2022.2.5,Win32,60.08893162,,,,,,,,,,,,,,./stim/p07_syllable_1_palutrauco_hit.wav,p07,palutrauco,hit,pa-lu-trau-co,pa-lu-trau-co,pa-lu-tra-u-co, ,-0.377604167,-0.111979167,1,0,0,1.416,text_option_1,,0,142,142,165,1
60a2a4657cb8e58bc437b6d3,63f3cfca20052e4ae7554ebf,6453ca0ab439006019d33594,2023-05-04_17h08.39.029,ga_syllabified_check,2022.2.5,Win32,60.08893162,,,,,,,,,,,,,,./stim/p06_syllable_1_costonhialo_hit.wav,p06,costoñialo,hit,cos-to-nhia-lo,cos-to-ñia-lo,cos-to-ñi-a-lo, ,-0.377604167,-0.111979167,1,0,0,2.9004,text_option_1,,0,143,143,103,1
60a2a4657cb8e58bc437b6d3,63f3cfca20052e4ae7554ebf,6453ca0ab439006019d33594,2023-05-04_17h08.39.029,ga_syllabified_check,2022.2.5,Win32,60.08893162,,,,,,,,,,,,,,./stim/p04_syllable_1_ruyiola_hit.wav,p04,ruyiola,hit,ru-yio-la,ru-yio-la,ru-yi-o-la, ,-0.377604167,-0.111979167,1,0,0,0.8169,text_option_1,,0,144,144,66,1
60a2a4657cb8e58bc437b6d3,63f3cfca20052e4ae7554ebf,6453ca0ab439006019d33594,2023-05-04_17h08.39.029,ga_syllabified_check,2022.2.5,Win32,60.08893162,,,,,,,,,,,,,,./stim/p04_syllable_1_palumaisto_hit.wav,p04,palumaisto,hit,pa-lu-mais-to,pa-lu-mais-to,pa-lu-ma-is-to, ,-0.377604167,-0.111979167,1,0,0,1.138,text_option_1,,0,145,145,62,1
60a2a4657cb8e58bc437b6d3,63f3cfca20052e4ae7554ebf,6453ca0ab439006019d33594,2023-05-04_17h08.39.029,ga_syllabified_check,2022.2.5,Win32,60.08893162,,,,,,,,,,,,,,./stim/p06_syllable_1_payielo_hit.wav,p06,payielo,hit,pa-yi-e-lo,pa-yie-lo,pa-yi-e-lo, ,0.442708333,-0.09375,1,0,0,2.333,text_option_2,,0,146,146,132,1
60a2a4657cb8e58bc437b6d3,63f3cfca20052e4ae7554ebf,6453ca0ab439006019d33594,2023-05-04_17h08.39.029,ga_syllabified_check,2022.2.5,Win32,60.08893162,,,,,,,,,,,,,,./stim/p08_syllable_1_lakafuaisto_hit.wav,p08,lakafuaisto,hit,la-ka-fju-ais-to,la-ka-fuais-to,la-ka-fu-ais-to,la-ka-fua-is-to,-0.390625,-0.098958333,1,0,0,5.2986,text_option_1,,0,147,147,181,1
60a2a4657cb8e58bc437b6d3,63f3cfca20052e4ae7554ebf,6453ca0ab439006019d33594,2023-05-04_17h08.39.029,ga_syllabified_check,2022.2.5,Win32,60.08893162,,,,,,,,,,,,,,./stim/p06_syllable_1_lakapiaisto_hit.wav,p06,lakapiaisto,hit,la-ka-pia-is-to,la-ka-piais-to,la-ka-pi-ais-to,la-ka-pia-is-to,0.04296875,-0.109375,1,0,0,4.7225,text_option_3,,0,148,148,118,1
60a2a4657cb8e58bc437b6d3,63f3cfca20052e4ae7554ebf,6453ca0ab439006019d33594,2023-05-04_17h08.39.029,ga_syllabified_check,2022.2.5,Win32,60.08893162,,,,,,,,,,,,,,./stim/p08_syllable_1_lakapuaisto_hit.wav,p08,lakapuaisto,hit,la-ka-pu-as-to,la-ka-puais-to,la-ka-pu-ais-to,la-ka-pua-is-to,0.424479167,-0.109375,1,0,0,3.8166,text_option_2,,0,149,149,187,1
60a2a4657cb8e58bc437b6d3,63f3cfca20052e4ae7554ebf,6453ca0ab439006019d33594,2023-05-04_17h08.39.029,ga_syllabified_check,2022.2.5,Win32,60.08893162,,,,,,,,,,,,,,./stim/p06_syllable_1_lakaguaisto_hit.wav,p06,lakaguaisto,hit,la-ka-gu-a-is,la-ka-guais-to,la-ka-gu-ais-to,la-ka-gua-is-to,0.020833333,-0.1015625,1,0,0,6.1155,text_option_3,,0,150,150,115,1
60a2a4657cb8e58bc437b6d3,63f3cfca20052e4ae7554ebf,6453ca0ab439006019d33594,2023-05-04_17h08.39.029,ga_syllabified_check,2022.2.5,Win32,60.08893162,,,,,,,,,,,,,,./stim/p03_syllable_1_lakatuaisto_hit.wav,p03,lakatuaisto,hit,la-ka-tuais-to,la-ka-tuais-to,la-ka-tu-ais-to,la-ka-tua-is-to,-0.365885417,-0.104166667,1,0,0,1.5833,text_option_1,,0,151,151,19,1
60a2a4657cb8e58bc437b6d3,63f3cfca20052e4ae7554ebf,6453ca0ab439006019d33594,2023-05-04_17h08.39.029,ga_syllabified_check,2022.2.5,Win32,60.08893162,,,,,,,,,,,,,,./stim/p06_syllable_1_nhiape_hit.wav,p06,ñiape,hit,nhi-a-pe,ñia-pe,ñi-a-pe, ,0.408854167,-0.106770833,1,0,0,1.6209,text_option_2,,0,152,152,125,1
60a2a4657cb8e58bc437b6d3,63f3cfca20052e4ae7554ebf,6453ca0ab439006019d33594,2023-05-04_17h08.39.029,ga_syllabified_check,2022.2.5,Win32,60.08893162,,,,,,,,,,,,,,./stim/p03_syllable_1_palumaisto_hit.wav,p03,palumaisto,hit,pa-lu-mais-to,pa-lu-mais-to,pa-lu-ma-is-to, ,-0.37109375,-0.100260417,1,0,0,1.9841,text_option_1,,0,153,153,28,1
60a2a4657cb8e58bc437b6d3,63f3cfca20052e4ae7554ebf,6453ca0ab439006019d33594,2023-05-04_17h08.39.029,ga_syllabified_check,2022.2.5,Win32,60.08893162,,,,,,,,,,,,,,./stim/p07_syllable_1_lakagiaisto_hit.wav,p07,lakagiaisto,hit,la-ka-gais-to,la-ka-giais-to,la-ka-gi-ais-to,la-ka-gia-is-to,-0.389322917,-0.106770833,1,0,0,1.9644,text_option_1,,0,154,154,148,1
60a2a4657cb8e58bc437b6d3,63f3cfca20052e4ae7554ebf,6453ca0ab439006019d33594,2023-05-04_17h08.39.029,ga_syllabified_check,2022.2.5,Win32,60.08893162,,,,,,,,,,,,,,./stim/p05_syllable_1_lakapuaisto_hit.wav,p05,lakapuaisto,hit,la-ka-pais-to,la-ka-puais-to,la-ka-pu-ais-to,la-ka-pua-is-to,-0.41015625,-0.12109375,1,0,0,1.8995,text_option_1,,0,155,155,85,1
60a2a4657cb8e58bc437b6d3,63f3cfca20052e4ae7554ebf,6453ca0ab439006019d33594,2023-05-04_17h08.39.029,ga_syllabified_check,2022.2.5,Win32,60.08893162,,,,,,,,,,,,,,./stim/p05_syllable_1_palumaisto_hit.wav,p05,palumaisto,hit,pa-lu-mais-to,pa-lu-mais-to,pa-lu-ma-is-to, ,-0.41015625,-0.12109375,1,0,0,1.1,text_option_1,,0,156,156,96,1
60a2a4657cb8e58bc437b6d3,63f3cfca20052e4ae7554ebf,6453ca0ab439006019d33594,2023-05-04_17h08.39.029,ga_syllabified_check,2022.2.5,Win32,60.08893162,,,,,,,,,,,,,,./stim/p03_syllable_1_palutrauco_hit.wav,p03,palutrauco,hit,pa-lu-trau-co,pa-lu-trau-co,pa-lu-tra-u-co, ,-0.41015625,-0.12109375,1,0,0,1.2666,text_option_1,,0,157,157,29,1
60a2a4657cb8e58bc437b6d3,63f3cfca20052e4ae7554ebf,6453ca0ab439006019d33594,2023-05-04_17h08.39.029,ga_syllabified_check,2022.2.5,Win32,60.08893162,,,,,,,,,,,,,,./stim/p06_syllable_1_falufaisto_hit.wav,p06,falufaisto,hit,fa-lu-fa-is-to,fa-lu-fais-to,fa-lu-fa-is-to, ,0.395833333,-0.122395833,1,0,0,3.5335,text_option_2,,0,158,158,105,1
60a2a4657cb8e58bc437b6d3,63f3cfca20052e4ae7554ebf,6453ca0ab439006019d33594,2023-05-04_17h08.39.029,ga_syllabified_check,2022.2.5,Win32,60.08893162,,,,,,,,,,,,,,./stim/p08_syllable_1_faluduako_hit.wav,p08,faluduako,hit,fa-lu-duai-ko,fa-lu-dua-ko,fa-lu-du-a-ko, ,-0.39453125,-0.115885417,1,0,0,2.863,text_option_1,,0,159,159,172,1
60a2a4657cb8e58bc437b6d3,63f3cfca20052e4ae7554ebf,6453ca0ab439006019d33594,2023-05-04_17h08.39.029,ga_syllabified_check,2022.2.5,Win32,60.08893162,,,,,,,,,,,,,,./stim/p07_syllable_1_lakabiaisto_hit.wav,p07,lakabiaisto,hit,la-ka-bais-to,la-ka-biais-to,la-ka-bi-ais-to,la-ka-bia-is-to,-0.39453125,-0.115885417,1,0,0,3.484,text_option_1,,0,160,160,142,1
60a2a4657cb8e58bc437b6d3,63f3cfca20052e4ae7554ebf,6453ca0ab439006019d33594,2023-05-04_17h08.39.029,ga_syllabified_check,2022.2.5,Win32,60.08893162,,,,,,,,,,,,,,./stim/p05_syllable_1_lakabiaisto_hit.wav,p05,lakabiaisto,hit,la-ka-bi-ais-to,la-ka-biais-to,la-ka-bi-ais-to,la-ka-bia-is-to,0.0078125,-0.1015625,1,0,0,3.0878,text_option_3,,0,161,161,74,1
60a2a4657cb8e58bc437b6d3,63f3cfca20052e4ae7554ebf,6453ca0ab439006019d33594,2023-05-04_17h08.39.029,ga_syllabified_check,2022.2.5,Win32,60.08893162,,,,,,,,,,,,,,./stim/p07_syllable_1_flauro_hit.wav,p07,flauro,hit,flau-ro,flau-ro,fla-u-ro, ,-0.385416667,-0.111979167,1,0,0,1.533,text_option_1,,0,162,162,141,1
60a2a4657cb8e58bc437b6d3,63f3cfca20052e4ae7554ebf,6453ca0ab439006019d33594,2023-05-04_17h08.39.029,ga_syllabified_check,2022.2.5,Win32,60.08893162,,,,,,,,,,,,,,./stim/p08_syllable_1_lakakiaisto_hit.wav,p08,lakakiaisto,hit,la-ka-ki-jas-to,la-ka-kiais-to,la-ka-ki-ais-to,la-ka-kia-is-to,0.450520833,-0.111979167,1,0,0,4.6991,text_option_2,,0,163,163,184,1
60a2a4657cb8e58bc437b6d3,63f3cfca20052e4ae7554ebf,6453ca0ab439006019d33594,2023-05-04_17h08.39.029,ga_syllabified_check,2022.2.5,Win32,60.08893162,,,,,,,,,,,,,,./stim/p03_syllable_1_lakakiaisto_hit.wav,p03,lakakiaisto,hit,la-ka-kiais-to,la-ka-kiais-to,la-ka-ki-ais-to,la-ka-kia-is-to,-0.397135417,-0.115885417,1,0,0,1.634,text_option_1,,0,164,164,14,1
60a2a4657cb8e58bc437b6d3,63f3cfca20052e4ae7554ebf,6453ca0ab439006019d33594,2023-05-04_17h08.39.029,ga_syllabified_check,2022.2.5,Win32,60.08893162,,,,,,,,,,,,,,./stim/p04_syllable_1_chiaba_hit.wav,p04,chiaba,hit,chia-ba,chia-ba,chi-a-ba, ,-0.397135417,-0.115885417,1,0,0,0.367,text_option_1,,0,165,165,34,1
60a2a4657cb8e58bc437b6d3,63f3cfca20052e4ae7554ebf,6453ca0ab439006019d33594,2023-05-04_17h08.39.029,ga_syllabified_check,2022.2.5,Win32,60.08893162,,,,,,,,,,,,,,./stim/p04_syllable_1_tuliafo_hit.wav,p04,tuliafo,hit,tu-lia-fo,tu-lia-fo,tu-li-a-fo, ,-0.397135417,-0.115885417,1,0,0,0.4014,text_option_1,,0,166,166,67,1
60a2a4657cb8e58bc437b6d3,63f3cfca20052e4ae7554ebf,6453ca0ab439006019d33594,2023-05-04_17h08.39.029,ga_syllabified_check,2022.2.5,Win32,60.08893162,,,,,,,,,,,,,,./stim/p07_syllable_1_costonhialo_hit.wav,p07,costoñialo,hit,cos-to-nhia-lo,cos-to-ñia-lo,cos-to-ñi-a-lo, ,-0.334635417,-0.119791667,1,0,0,2.064,text_option_1,,0,167,167,137,1
60a2a4657cb8e58bc437b6d3,63f3cfca20052e4ae7554ebf,6453ca0ab439006019d33594,2023-05-04_17h08.39.029,ga_syllabified_check,2022.2.5,Win32,60.08893162,,,,,,,,,,,,,,./stim/p04_syllable_1_paluguato_hit.wav,p04,paluguato,hit,pa-lu-gua,pa-lu-gua-to,pa-lu-gu-a-to, ,-0.39453125,-0.102864583,1,0,0,2.7304,text_option_1,,0,168,168,61,1
60a2a4657cb8e58bc437b6d3,63f3cfca20052e4ae7554ebf,6453ca0ab439006019d33594,2023-05-04_17h08.39.029,ga_syllabified_check,2022.2.5,Win32,60.08893162,,,,,,,,,,,,,,./stim/p08_syllable_1_manhiala_hit.wav,p08,mañiala,hit,ma-nhia-la,ma-ñia-la,ma-ñi-a-la, ,-0.372395833,-0.096354167,1,0,0,1.3995,text_option_1,,0,169,169,191,1
60a2a4657cb8e58bc437b6d3,63f3cfca20052e4ae7554ebf,6453ca0ab439006019d33594,2023-05-04_17h08.39.029,ga_syllabified_check,2022.2.5,Win32,60.08893162,,,,,,,,,,,,,,./stim/p07_syllable_1_lakaduaisto_hit.wav,p07,lakaduaisto,hit,la-ka-duais-to,la-ka-duais-to,la-ka-du-ais-to,la-ka-dua-is-to,-0.365885417,-0.102864583,1,0,0,1.912,text_option_1,,0,170,170,145,1
60a2a4657cb8e58bc437b6d3,63f3cfca20052e4ae7554ebf,6453ca0ab439006019d33594,2023-05-04_17h08.39.029,ga_syllabified_check,2022.2.5,Win32,60.08893162,,,,,,,,,,,,,,./stim/p07_syllable_1_ruyiola_hit.wav,p07,ruyiola,hit,ru-yio-la,ru-yio-la,ru-yi-o-la, ,-0.365885417,-0.102864583,1,0,0,1.0336,text_option_1,,0,171,171,168,1
60a2a4657cb8e58bc437b6d3,63f3cfca20052e4ae7554ebf,6453ca0ab439006019d33594,2023-05-04_17h08.39.029,ga_syllabified_check,2022.2.5,Win32,60.08893162,,,,,,,,,,,,,,./stim/p08_syllable_1_pachialo_hit.wav,p08,pachialo,hit,pa-chi-ja-lo,pa-chia-lo,pa-chi-a-lo, ,0.446614583,-0.114583333,1,0,0,1.564,text_option_2,,0,172,172,194,1
60a2a4657cb8e58bc437b6d3,63f3cfca20052e4ae7554ebf,6453ca0ab439006019d33594,2023-05-04_17h08.39.029,ga_syllabified_check,2022.2.5,Win32,60.08893162,,,,,,,,,,,,,,./stim/p04_syllable_1_flauro_hit.wav,p04,flauro,hit,flau-ro,flau-ro,fla-u-ro, ,-0.391927083,-0.09375,1,0,0,2.1664,text_option_1,,0,173,173,39,1
60a2a4657cb8e58bc437b6d3,63f3cfca20052e4ae7554ebf,6453ca0ab439006019d33594,2023-05-04_17h08.39.029,ga_syllabified_check,2022.2.5,Win32,60.08893162,,,,,,,,,,,,,,./stim/p06_syllable_1_chiaba_hit.wav,p06,chiaba,hit,chi-a-ba,chia-ba,chi-a-ba, ,-0.377604167,-0.108072917,1,0,0,1.2834,text_option_1,,0,174,174,102,1
60a2a4657cb8e58bc437b6d3,63f3cfca20052e4ae7554ebf,6453ca0ab439006019d33594,2023-05-04_17h08.39.029,ga_syllabified_check,2022.2.5,Win32,60.08893162,,,,,,,,,,,,,,./stim/p06_syllable_1_lakaduaisto_hit.wav,p06,lakaduaisto,hit,la-ka-du-a-is,la-ka-duais-to,la-ka-du-ais-to,la-ka-dua-is-to,0.00390625,-0.11328125,1,0,0,2.7999,text_option_3,,0,175,175,111,1
60a2a4657cb8e58bc437b6d3,63f3cfca20052e4ae7554ebf,6453ca0ab439006019d33594,2023-05-04_17h08.39.029,ga_syllabified_check,2022.2.5,Win32,60.08893162,,,,,,,,,,,,,,./stim/p04_syllable_1_palutrauco_hit.wav,p04,palutrauco,hit,pa-lu-trau-co,pa-lu-trau-co,pa-lu-tra-u-co, ,-0.4296875,-0.095052083,1,0,0,2.1223,text_option_1,,0,176,176,63,1
60a2a4657cb8e58bc437b6d3,63f3cfca20052e4ae7554ebf,6453ca0ab439006019d33594,2023-05-04_17h08.39.029,ga_syllabified_check,2022.2.5,Win32,60.08893162,,,,,,,,,,,,,,./stim/p03_syllable_1_costonhialo_hit.wav,p03,costoñialo,hit,cos-to-nhia-lo,cos-to-ñia-lo,cos-to-ñi-a-lo, ,-0.358072917,-0.106770833,1,0,0,1.2156,text_option_1,,0,177,177,1,1
60a2a4657cb8e58bc437b6d3,63f3cfca20052e4ae7554ebf,6453ca0ab439006019d33594,2023-05-04_17h08.39.029,ga_syllabified_check,2022.2.5,Win32,60.08893162,,,,,,,,,,,,,,./stim/p05_syllable_1_falutraigo_hit.wav,p05,falutraigo,hit,fa-lu-trai-go,fa-lu-trai-go,fa-lu-tra-i-go, ,-0.358072917,-0.106770833,1,0,0,0.9169,text_option_1,,0,178,178,72,1
60a2a4657cb8e58bc437b6d3,63f3cfca20052e4ae7554ebf,6453ca0ab439006019d33594,2023-05-04_17h08.39.029,ga_syllabified_check,2022.2.5,Win32,60.08893162,,,,,,,,,,,,,,./stim/p07_syllable_1_palufauro_hit.wav,p07,palufauro,hit,pa-lu-fau-ro,pa-lu-fau-ro,pa-lu-fa-u-ro, ,-0.358072917,-0.106770833,1,0,0,1.3509,text_option_1,,0,179,179,161,1
60a2a4657cb8e58bc437b6d3,63f3cfca20052e4ae7554ebf,6453ca0ab439006019d33594,2023-05-04_17h08.39.029,ga_syllabified_check,2022.2.5,Win32,60.08893162,,,,,,,,,,,,,,./stim/p03_syllable_1_palufauto_hit.wav,p03,palufauto,hit,pa-lu-fau,pa-lu-fau-to,pa-lu-fa-u-to, ,-0.380208333,-0.1015625,1,0,0,1.3001,text_option_1,,0,180,180,26,1
60a2a4657cb8e58bc437b6d3,63f3cfca20052e4ae7554ebf,6453ca0ab439006019d33594,2023-05-04_17h08.39.029,ga_syllabified_check,2022.2.5,Win32,60.08893162,,,,,,,,,,,,,,./stim/p05_syllable_1_lliape_hit.wav,p05,lliape,hit,liai-pe,llia-pe,lli-a-pe, ,-0.411458333,-0.098958333,1,0,0,2.3673,text_option_1,,0,181,181,88,1
60a2a4657cb8e58bc437b6d3,63f3cfca20052e4ae7554ebf,6453ca0ab439006019d33594,2023-05-04_17h08.39.029,ga_syllabified_check,2022.2.5,Win32,60.08893162,,,,,,,,,,,,,,./stim/p06_syllable_1_lakagiaisto_hit.wav,p06,lakagiaisto,hit,la-ka-gia-is-to,la-ka-giais-to,la-ka-gi-ais-to,la-ka-gia-is-to,-0.002604167,-0.1015625,1,0,0,4.0058,text_option_3,,0,182,182,114,1
60a2a4657cb8e58bc437b6d3,63f3cfca20052e4ae7554ebf,6453ca0ab439006019d33594,2023-05-04_17h08.39.029,ga_syllabified_check,2022.2.5,Win32,60.08893162,,,,,,,,,,,,,,./stim/p07_syllable_1_pachialo_hit.wav,p07,pachialo,hit,pa-cha-lo,pa-chia-lo,pa-chi-a-lo, ,-0.384114583,-0.109375,1,0,0,1.3164,text_option_1,,0,183,183,160,1
60a2a4657cb8e58bc437b6d3,63f3cfca20052e4ae7554ebf,6453ca0ab439006019d33594,2023-05-04_17h08.39.029,ga_syllabified_check,2022.2.5,Win32,60.08893162,,,,,,,,,,,,,,./stim/p07_syllable_1_falutraigo_hit.wav,p07,falutraigo,hit,fa-lu-trai-go,fa-lu-trai-go,fa-lu-tra-i-go, ,-0.35546875,-0.106770833,1,0,0,2.3998,text_option_1,,0,184,184,140,1
60a2a4657cb8e58bc437b6d3,63f3cfca20052e4ae7554ebf,6453ca0ab439006019d33594,2023-05-04_17h08.39.029,ga_syllabified_check,2022.2.5,Win32,60.08893162,,,,,,,,,,,,,,./stim/p04_syllable_1_falufaisto_hit.wav,p04,falufaisto,hit,fa-lu-fais-to,fa-lu-fais-to,fa-lu-fa-is-to, ,-0.356770833,-0.106770833,1,0,0,0.8334,text_option_1,,0,185,185,37,1
60a2a4657cb8e58bc437b6d3,63f3cfca20052e4ae7554ebf,6453ca0ab439006019d33594,2023-05-04_17h08.39.029,ga_syllabified_check,2022.2.5,Win32,60.08893162,,,,,,,,,,,,,,./stim/p06_syllable_1_palutrauco_hit.wav,p06,palutrauco,hit,pa-lu-tra-u-co,pa-lu-trau-co,pa-lu-tra-u-co, ,0.393229167,-0.10546875,1,0,0,3.5662,text_option_2,,0,186,186,131,1
60a2a4657cb8e58bc437b6d3,63f3cfca20052e4ae7554ebf,6453ca0ab439006019d33594,2023-05-04_17h08.39.029,ga_syllabified_check,2022.2.5,Win32,60.08893162,,,,,,,,,,,,,,./stim/p05_syllable_1_palufauro_hit.wav,p05,palufauro,hit,pa-lu-fau-ro,pa-lu-fau-ro,pa-lu-fa-u-ro, ,-0.39453125,-0.109375,1,0,0,8.8823,text_option_1,,0,187,187,93,1
60a2a4657cb8e58bc437b6d3,63f3cfca20052e4ae7554ebf,6453ca0ab439006019d33594,2023-05-04_17h08.39.029,ga_syllabified_check,2022.2.5,Win32,60.08893162,,,,,,,,,,,,,,./stim/p08_syllable_1_mebochiana_hit.wav,p08,mebochiana,hit,me-bo-chi-a-na,me-bo-chia-na,me-bo-chi-a-na, ,0.430989583,-0.111979167,1,0,0,4.9332,text_option_2,,0,188,188,192,1
60a2a4657cb8e58bc437b6d3,63f3cfca20052e4ae7554ebf,6453ca0ab439006019d33594,2023-05-04_17h08.39.029,ga_syllabified_check,2022.2.5,Win32,60.08893162,,,,,,,,,,,,,,./stim/p08_syllable_1_falufaisto_hit.wav,p08,falufaisto,hit,fa-lu-fais-to,fa-lu-fais-to,fa-lu-fa-is-to, ,-0.4140625,-0.109375,1,0,0,2.3725,text_option_1,,0,189,189,173,1
60a2a4657cb8e58bc437b6d3,63f3cfca20052e4ae7554ebf,6453ca0ab439006019d33594,2023-05-04_17h08.39.029,ga_syllabified_check,2022.2.5,Win32,60.08893162,,,,,,,,,,,,,,./stim/p04_syllable_1_lakatuaisto_hit.wav,p04,lakatuaisto,hit,la-ka-kuais-to,la-ka-tuais-to,la-ka-tu-ais-to,la-ka-tua-is-to,-0.33984375,-0.119791667,1,0,0,1.6667,text_option_1,,0,190,190,53,1
60a2a4657cb8e58bc437b6d3,63f3cfca20052e4ae7554ebf,6453ca0ab439006019d33594,2023-05-04_17h08.39.029,ga_syllabified_check,2022.2.5,Win32,60.08893162,,,,,,,,,,,,,,./stim/p04_syllable_1_lakabuaisto_hit.wav,p04,lakabuaisto,hit,la-ka-buais-to,la-ka-buais-to,la-ka-bu-ais-to,la-ka-bua-is-to,-0.33984375,-0.119791667,1,0,0,1.1503,text_option_1,,0,191,191,41,1
60a2a4657cb8e58bc437b6d3,63f3cfca20052e4ae7554ebf,6453ca0ab439006019d33594,2023-05-04_17h08.39.029,ga_syllabified_check,2022.2.5,Win32,60.08893162,,,,,,,,,,,,,,./stim/p06_syllable_1_ruyiola_hit.wav,p06,ruyiola,hit,ru-yi-o-la,ru-yio-la,ru-yi-o-la, ,0.40234375,-0.119791667,1,0,0,3.6653,text_option_2,,0,192,192,134,1
60a2a4657cb8e58bc437b6d3,63f3cfca20052e4ae7554ebf,6453ca0ab439006019d33594,2023-05-04_17h08.39.029,ga_syllabified_check,2022.2.5,Win32,60.08893162,,,,,,,,,,,,,,./stim/p06_syllable_1_mebochiana_hit.wav,p06,mebochiana,hit,me-bo-shi-a-na,me-bo-chia-na,me-bo-chi-a-na, ,0.40234375,-0.119791667,1,0,0,4.1222,text_option_2,,0,193,193,124,1
60a2a4657cb8e58bc437b6d3,63f3cfca20052e4ae7554ebf,6453ca0ab439006019d33594,2023-05-04_17h08.39.029,ga_syllabified_check,2022.2.5,Win32,60.08893162,,,,,,,,,,,,,,./stim/p04_syllable_1_lakapuaisto_hit.wav,p04,lakapuaisto,hit,la-ka-puais-to,la-ka-puais-to,la-ka-pu-ais-to,la-ka-pua-is-to,-0.37109375,-0.106770833,1,0,0,4.7616,text_option_1,,0,194,194,51,1
60a2a4657cb8e58bc437b6d3,63f3cfca20052e4ae7554ebf,6453ca0ab439006019d33594,2023-05-04_17h08.39.029,ga_syllabified_check,2022.2.5,Win32,60.08893162,,,,,,,,,,,,,,./stim/p03_syllable_1_lakabiaisto_hit.wav,p03,lakabiaisto,hit,la-ka-biais-to,la-ka-biais-to,la-ka-bi-ais-to,la-ka-bia-is-to,-0.37109375,-0.106770833,1,0,0,2.7159,text_option_1,,0,195,195,6,1
60a2a4657cb8e58bc437b6d3,63f3cfca20052e4ae7554ebf,6453ca0ab439006019d33594,2023-05-04_17h08.39.029,ga_syllabified_check,2022.2.5,Win32,60.08893162,,,,,,,,,,,,,,./stim/p06_syllable_1_faluduako_hit.wav,p06,faluduako,hit,fa-lu-dua-ko,fa-lu-dua-ko,fa-lu-du-a-ko, ,-0.37109375,-0.106770833,1,0,0,3.0998,text_option_1,,0,196,196,104,1
60a2a4657cb8e58bc437b6d3,63f3cfca20052e4ae7554ebf,6453ca0ab439006019d33594,2023-05-04_17h08.39.029,ga_syllabified_check,2022.2.5,Win32,60.08893162,,,,,,,,,,,,,,./stim/p07_syllable_1_payielo_hit.wav,p07,payielo,hit,pa-yie-lo,pa-yie-lo,pa-yi-e-lo, ,-0.37109375,-0.106770833,1,0,0,1.0999,text_option_1,,0,197,197,166,1
60a2a4657cb8e58bc437b6d3,63f3cfca20052e4ae7554ebf,6453ca0ab439006019d33594,2023-05-04_17h08.39.029,ga_syllabified_check,2022.2.5,Win32,60.08893162,,,,,,,,,,,,,,./stim/p03_syllable_1_lakaduaisto_hit.wav,p03,lakaduaisto,hit,la-ka-duais-to,la-ka-duais-to,la-ka-du-ais-to,la-ka-dua-is-to,-0.37109375,-0.106770833,1,0,0,1.7655,text_option_1,,0,198,198,9,1
60a2a4657cb8e58bc437b6d3,63f3cfca20052e4ae7554ebf,6453ca0ab439006019d33594,2023-05-04_17h08.39.029,ga_syllabified_check,2022.2.5,Win32,60.08893162,,,,,,,,,,,,,,./stim/p05_syllable_1_pachialo_hit.wav,p05,pachialo,hit,pan-chia-lo,pa-chia-lo,pa-chi-a-lo, ,0.407552083,-0.098958333,1,0,0,1.6022,text_option_2,,0,199,199,92,1
60a2a4657cb8e58bc437b6d3,63f3cfca20052e4ae7554ebf,6453ca0ab439006019d33594,2023-05-04_17h08.39.029,ga_syllabified_check,2022.2.5,Win32,60.08893162,,,,,,,,,,,,,,./stim/p04_syllable_1_lakaduaisto_hit.wav,p04,lakaduaisto,hit,la-ka-duais-to,la-ka-duais-to,la-ka-du-ais-to,la-ka-dua-is-to,-0.395833333,-0.110677083,1,0,0,0.8516,text_option_1,,0,200,200,43,1
60a2a4657cb8e58bc437b6d3,63f3cfca20052e4ae7554ebf,6453ca0ab439006019d33594,2023-05-04_17h08.39.029,ga_syllabified_check,2022.2.5,Win32,60.08893162,,,,,,,,,,,,,,./stim/p07_syllable_1_lakafiaisto_hit.wav,p07,lakafiaisto,hit,la-ka-fiais-to,la-ka-fiais-to,la-ka-fi-ais-to,la-ka-fia-is-to,-0.334635417,-0.09765625,1,0,0,1.45,text_option_1,,0,201,201,146,1
60a2a4657cb8e58bc437b6d3,63f3cfca20052e4ae7554ebf,6453ca0ab439006019d33594,2023-05-04_17h08.39.029,ga_syllabified_check,2022.2.5,Win32,60.08893162,,,,,,,,,,,,,,./stim/p06_syllable_1_lakafiaisto_hit.wav,p06,lakafiaisto,hit,la-ka-fia-is-to,la-ka-fiais-to,la-ka-fi-ais-to,la-ka-fia-is-to,0.0546875,-0.100260417,1,0,0,4.8498,text_option_3,,0,202,202,112,1
60a2a4657cb8e58bc437b6d3,63f3cfca20052e4ae7554ebf,6453ca0ab439006019d33594,2023-05-04_17h08.39.029,ga_syllabified_check,2022.2.5,Win32,60.08893162,,,,,,,,,,,,,,./stim/p06_syllable_1_pachialo_hit.wav,p06,pachialo,hit,pa-shi-a-lo,pa-chia-lo,pa-chi-a-lo, ,0.380208333,-0.11328125,1,0,0,4.1657,text_option_2,,0,203,203,126,1
60a2a4657cb8e58bc437b6d3,63f3cfca20052e4ae7554ebf,6453ca0ab439006019d33594,2023-05-04_17h08.39.029,ga_syllabified_check,2022.2.5,Win32,60.08893162,,,,,,,,,,,,,,,,,,,,,,,,,,,,,,,,,,
