participant,study,session,date,expName,psychopyVersion,OS,frameRate,mouse_practice.x,mouse_practice.y,mouse_practice.leftButton,mouse_practice.midButton,mouse_practice.rightButton,mouse_practice.time,mouse_practice.clicked_name,textbox_followup_practice.text,trials_practice.thisRepN,trials_practice.thisTrialN,trials_practice.thisN,trials_practice.thisIndex,trials_practice.ran,file_path,id,item,status,response,op1,op2,op3,mouse.x,mouse.y,mouse.leftButton,mouse.midButton,mouse.rightButton,mouse.time,mouse.clicked_name,textbox_followup.text,trials.thisRepN,trials.thisTrialN,trials.thisN,trials.thisIndex,trials.ran
60be4d9e7f4d10be1c1b2cc7,63f3cfca20052e4ae7554ebf,6453ca72f64e4ae431652940,2023-05-04_17h09.14.070,ga_syllabified_check,2022.2.5,Win32,59.97361161,,,,,,,,,,,,,,,,,,,,,,,,,,,,,,,,,,
60be4d9e7f4d10be1c1b2cc7,63f3cfca20052e4ae7554ebf,6453ca72f64e4ae431652940,2023-05-04_17h09.14.070,ga_syllabified_check,2022.2.5,Win32,59.97361161,-0.39537037,-0.09537037,1,0,0,3.5168,text_option_1_practice,,0,0,0,0,1,./stim/p03_syllable_1_liamo_hit.wav,p03,liamo,hit,lia-mo,lia-mo,li-a-mo, ,,,,,,,,,,,,,
60be4d9e7f4d10be1c1b2cc7,63f3cfca20052e4ae7554ebf,6453ca72f64e4ae431652940,2023-05-04_17h09.14.070,ga_syllabified_check,2022.2.5,Win32,59.97361161,-0.375,-0.107407407,1,0,0,3.4503,text_option_1_practice,,0,1,1,1,1,./stim/p05_syllable_1_matio_hit.wav,p05,matio,hit,ma-tio,ma-tio,ma-ti-o, ,,,,,,,,,,,,,
60be4d9e7f4d10be1c1b2cc7,63f3cfca20052e4ae7554ebf,6453ca72f64e4ae431652940,2023-05-04_17h09.14.070,ga_syllabified_check,2022.2.5,Win32,59.97361161,-0.373148148,-0.107407407,1,0,0,4.1375,text_option_1_practice,,0,2,2,2,1,./stim/p08_syllable_1_liamo_hit.wav,p08,liamo,hit,ja-mo,lia-mo,li-a-mo, ,,,,,,,,,,,,,
60be4d9e7f4d10be1c1b2cc7,63f3cfca20052e4ae7554ebf,6453ca72f64e4ae431652940,2023-05-04_17h09.14.070,ga_syllabified_check,2022.2.5,Win32,59.97361161,,,,,,,,,,,,,,,,,,,,,,,,,,,,,,,,,,
60be4d9e7f4d10be1c1b2cc7,63f3cfca20052e4ae7554ebf,6453ca72f64e4ae431652940,2023-05-04_17h09.14.070,ga_syllabified_check,2022.2.5,Win32,59.97361161,,,,,,,,,,,,,,./stim/p06_syllable_1_paluguato_hit.wav,p06,paluguato,hit,pa-lu-gua-to,pa-lu-gua-to,pa-lu-gu-a-to, ,-0.374074074,-0.109259259,1,0,0,3.9322,text_option_1,,0,0,0,129,1
60be4d9e7f4d10be1c1b2cc7,63f3cfca20052e4ae7554ebf,6453ca72f64e4ae431652940,2023-05-04_17h09.14.070,ga_syllabified_check,2022.2.5,Win32,59.97361161,,,,,,,,,,,,,,./stim/p08_syllable_1_lakagiaisto_hit.wav,p08,lakagiaisto,hit,la-ka-gi-jas-to,la-ka-giais-to,la-ka-gi-ais-to,la-ka-gia-is-to,0.026851852,-0.103703704,1,0,0,8.302,text_option_3,,0,1,1,182,1
60be4d9e7f4d10be1c1b2cc7,63f3cfca20052e4ae7554ebf,6453ca72f64e4ae431652940,2023-05-04_17h09.14.070,ga_syllabified_check,2022.2.5,Win32,59.97361161,,,,,,,,,,,,,,./stim/p03_syllable_1_flauro_hit.wav,p03,flauro,hit,flau-ro,flau-ro,fla-u-ro, ,-0.402777778,-0.103703704,1,0,0,2.233,text_option_1,,0,2,2,5,1
60be4d9e7f4d10be1c1b2cc7,63f3cfca20052e4ae7554ebf,6453ca72f64e4ae431652940,2023-05-04_17h09.14.070,ga_syllabified_check,2022.2.5,Win32,59.97361161,,,,,,,,,,,,,,./stim/p04_syllable_1_lliape_hit.wav,p04,lliape,hit,lia-pe,llia-pe,lli-a-pe, ,-0.427777778,-0.094444444,1,0,0,0.5829,text_option_1,,0,3,3,54,1
60be4d9e7f4d10be1c1b2cc7,63f3cfca20052e4ae7554ebf,6453ca72f64e4ae431652940,2023-05-04_17h09.14.070,ga_syllabified_check,2022.2.5,Win32,59.97361161,,,,,,,,,,,,,,./stim/p08_syllable_1_falutraigo_hit.wav,p08,falutraigo,hit,fa-lu-trai-go,fa-lu-trai-go,fa-lu-tra-i-go, ,-0.391666667,-0.109259259,1,0,0,2.9507,text_option_1,,0,4,4,174,1
60be4d9e7f4d10be1c1b2cc7,63f3cfca20052e4ae7554ebf,6453ca72f64e4ae431652940,2023-05-04_17h09.14.070,ga_syllabified_check,2022.2.5,Win32,59.97361161,,,,,,,,,,,,,,./stim/p07_syllable_1_lakapiaisto_hit.wav,p07,lakapiaisto,hit,la-ka-pia-sto,la-ka-piais-to,la-ka-pi-ais-to,la-ka-pia-is-to,-0.371296296,-0.114814815,1,0,0,12.4345,text_option_1,,0,5,5,152,1
60be4d9e7f4d10be1c1b2cc7,63f3cfca20052e4ae7554ebf,6453ca72f64e4ae431652940,2023-05-04_17h09.14.070,ga_syllabified_check,2022.2.5,Win32,59.97361161,,,,,,,,,,,,,,./stim/p03_syllable_1_lakabuaisto_hit.wav,p03,lakabuaisto,hit,la-ka-buais-to,la-ka-buais-to,la-ka-bu-ais-to,la-ka-bua-is-to,-0.362037037,-0.111111111,1,0,0,3.2013,text_option_1,,0,6,6,7,1
60be4d9e7f4d10be1c1b2cc7,63f3cfca20052e4ae7554ebf,6453ca72f64e4ae431652940,2023-05-04_17h09.14.070,ga_syllabified_check,2022.2.5,Win32,59.97361161,,,,,,,,,,,,,,./stim/p08_syllable_1_palumaisto_hit.wav,p08,palumaisto,hit,pa-lu-mais-to,pa-lu-mais-to,pa-lu-ma-is-to, ,-0.369444444,-0.088888889,1,0,0,3.3205,text_option_1,,0,7,7,198,1
60be4d9e7f4d10be1c1b2cc7,63f3cfca20052e4ae7554ebf,6453ca72f64e4ae431652940,2023-05-04_17h09.14.070,ga_syllabified_check,2022.2.5,Win32,59.97361161,,,,,,,,,,,,,,./stim/p08_syllable_1_lakatuaisto_hit.wav,p08,lakatuaisto,hit,la-ka-tu-i-jis,la-ka-tuais-to,la-ka-tu-ais-to,la-ka-tua-is-to,-0.001851852,-0.099074074,1,0,0,16.9677,text_option_3,,0,8,8,189,1
60be4d9e7f4d10be1c1b2cc7,63f3cfca20052e4ae7554ebf,6453ca72f64e4ae431652940,2023-05-04_17h09.14.070,ga_syllabified_check,2022.2.5,Win32,59.97361161,,,,,,,,,,,,,,./stim/p06_syllable_1_palumaisto_hit.wav,p06,palumaisto,hit,pa-lu-ma-is-to,pa-lu-mais-to,pa-lu-ma-is-to, ,0.390740741,-0.113888889,1,0,0,3.369,text_option_2,,0,9,9,130,1
60be4d9e7f4d10be1c1b2cc7,63f3cfca20052e4ae7554ebf,6453ca72f64e4ae431652940,2023-05-04_17h09.14.070,ga_syllabified_check,2022.2.5,Win32,59.97361161,,,,,,,,,,,,,,./stim/p08_syllable_1_lliape_hit.wav,p08,lliape,hit,li-a-pe,llia-pe,lli-a-pe, ,0.401851852,-0.122222222,1,0,0,1.1175,text_option_2,,0,10,10,190,1
60be4d9e7f4d10be1c1b2cc7,63f3cfca20052e4ae7554ebf,6453ca72f64e4ae431652940,2023-05-04_17h09.14.070,ga_syllabified_check,2022.2.5,Win32,59.97361161,,,,,,,,,,,,,,./stim/p07_syllable_1_palumaisto_hit.wav,p07,palumaisto,hit,pa-lu-mais-to,pa-lu-mais-to,pa-lu-ma-is-to, ,-0.4,-0.109259259,1,0,0,2.9837,text_option_1,,0,11,11,164,1
60be4d9e7f4d10be1c1b2cc7,63f3cfca20052e4ae7554ebf,6453ca72f64e4ae431652940,2023-05-04_17h09.14.070,ga_syllabified_check,2022.2.5,Win32,59.97361161,,,,,,,,,,,,,,./stim/p07_syllable_1_lakaguaisto_hit.wav,p07,lakaguaisto,hit,la-ka-guais-to,la-ka-guais-to,la-ka-gu-ais-to,la-ka-gua-is-to,-0.391666667,-0.115740741,1,0,0,2.9006,text_option_1,,0,12,12,149,1
60be4d9e7f4d10be1c1b2cc7,63f3cfca20052e4ae7554ebf,6453ca72f64e4ae431652940,2023-05-04_17h09.14.070,ga_syllabified_check,2022.2.5,Win32,59.97361161,,,,,,,,,,,,,,./stim/p04_syllable_1_palumaisto_hit.wav,p04,palumaisto,hit,pa-lu-mais-to,pa-lu-mais-to,pa-lu-ma-is-to, ,-0.347222222,-0.113888889,1,0,0,1.9331,text_option_1,,0,13,13,62,1
60be4d9e7f4d10be1c1b2cc7,63f3cfca20052e4ae7554ebf,6453ca72f64e4ae431652940,2023-05-04_17h09.14.070,ga_syllabified_check,2022.2.5,Win32,59.97361161,,,,,,,,,,,,,,./stim/p08_syllable_1_tuliafo_hit.wav,p08,tuliafo,hit,tu-li-a-fo,tu-lia-fo,tu-li-a-fo, ,0.42962963,-0.083333333,1,0,0,1.8664,text_option_2,,0,14,14,203,1
60be4d9e7f4d10be1c1b2cc7,63f3cfca20052e4ae7554ebf,6453ca72f64e4ae431652940,2023-05-04_17h09.14.070,ga_syllabified_check,2022.2.5,Win32,59.97361161,,,,,,,,,,,,,,./stim/p08_syllable_1_lakabuaisto_hit.wav,p08,lakabuaisto,hit,la-ka-bu-ais-to,la-ka-buais-to,la-ka-bu-ais-to,la-ka-bua-is-to,0.400925926,-0.09537037,1,0,0,3.5678,text_option_2,,0,15,15,177,1
60be4d9e7f4d10be1c1b2cc7,63f3cfca20052e4ae7554ebf,6453ca72f64e4ae431652940,2023-05-04_17h09.14.070,ga_syllabified_check,2022.2.5,Win32,59.97361161,,,,,,,,,,,,,,./stim/p08_syllable_1_nhiape_hit.wav,p08,ñiape,hit,ni-a-pe,ñia-pe,ñi-a-pe, ,0.400925926,-0.110185185,1,0,0,1.2173,text_option_2,,0,16,16,193,1
60be4d9e7f4d10be1c1b2cc7,63f3cfca20052e4ae7554ebf,6453ca72f64e4ae431652940,2023-05-04_17h09.14.070,ga_syllabified_check,2022.2.5,Win32,59.97361161,,,,,,,,,,,,,,./stim/p04_syllable_1_falufaisto_hit.wav,p04,falufaisto,hit,fa-lu-fais-to,fa-lu-fais-to,fa-lu-fa-is-to, ,-0.371296296,-0.101851852,1,0,0,1.1339,text_option_1,,0,17,17,37,1
60be4d9e7f4d10be1c1b2cc7,63f3cfca20052e4ae7554ebf,6453ca72f64e4ae431652940,2023-05-04_17h09.14.070,ga_syllabified_check,2022.2.5,Win32,59.97361161,,,,,,,,,,,,,,./stim/p05_syllable_1_lakapiaisto_hit.wav,p05,lakapiaisto,hit,la-ka-pais-to,la-ka-piais-to,la-ka-pi-ais-to,la-ka-pia-is-to,-0.369444444,-0.112962963,1,0,0,10.8003,text_option_1,,0,18,18,84,1
60be4d9e7f4d10be1c1b2cc7,63f3cfca20052e4ae7554ebf,6453ca72f64e4ae431652940,2023-05-04_17h09.14.070,ga_syllabified_check,2022.2.5,Win32,59.97361161,,,,,,,,,,,,,,./stim/p03_syllable_1_lakatuaisto_hit.wav,p03,lakatuaisto,hit,la-ka-tuais-to,la-ka-tuais-to,la-ka-tu-ais-to,la-ka-tua-is-to,-0.357407407,-0.109259259,1,0,0,3.2506,text_option_1,,0,19,19,19,1
60be4d9e7f4d10be1c1b2cc7,63f3cfca20052e4ae7554ebf,6453ca72f64e4ae431652940,2023-05-04_17h09.14.070,ga_syllabified_check,2022.2.5,Win32,59.97361161,,,,,,,,,,,,,,./stim/p04_syllable_1_lakaguaisto_hit.wav,p04,lakaguaisto,hit,la-ka-guais-to,la-ka-guais-to,la-ka-gu-ais-to,la-ka-gua-is-to,-0.357407407,-0.090740741,1,0,0,1.5349,text_option_1,,0,20,20,47,1
60be4d9e7f4d10be1c1b2cc7,63f3cfca20052e4ae7554ebf,6453ca72f64e4ae431652940,2023-05-04_17h09.14.070,ga_syllabified_check,2022.2.5,Win32,59.97361161,,,,,,,,,,,,,,./stim/p04_syllable_1_lakakiaisto_hit.wav,p04,lakakiaisto,hit,la-ka-kiais-to,la-ka-kiais-to,la-ka-ki-ais-to,la-ka-kia-is-to,-0.362962963,-0.111111111,1,0,0,1.6005,text_option_1,,0,21,21,48,1
60be4d9e7f4d10be1c1b2cc7,63f3cfca20052e4ae7554ebf,6453ca72f64e4ae431652940,2023-05-04_17h09.14.070,ga_syllabified_check,2022.2.5,Win32,59.97361161,,,,,,,,,,,,,,./stim/p04_syllable_1_lakadiaisto_hit.wav,p04,lakadiaisto,hit,la-ka-dias-to,la-ka-diais-to,la-ka-di-ais-to,la-ka-dia-is-to,-0.381481481,-0.100925926,1,0,0,1.1335,text_option_1,,0,22,22,42,1
60be4d9e7f4d10be1c1b2cc7,63f3cfca20052e4ae7554ebf,6453ca72f64e4ae431652940,2023-05-04_17h09.14.070,ga_syllabified_check,2022.2.5,Win32,59.97361161,,,,,,,,,,,,,,./stim/p04_syllable_1_payielo_hit.wav,p04,payielo,hit,pa-yie-lo,pa-yie-lo,pa-yi-e-lo, ,-0.375,-0.097222222,1,0,0,0.8503,text_option_1,,0,23,23,64,1
60be4d9e7f4d10be1c1b2cc7,63f3cfca20052e4ae7554ebf,6453ca72f64e4ae431652940,2023-05-04_17h09.14.070,ga_syllabified_check,2022.2.5,Win32,59.97361161,,,,,,,,,,,,,,./stim/p03_syllable_1_paluguato_hit.wav,p03,paluguato,hit,pa-lu-gua,pa-lu-gua-to,pa-lu-gu-a-to, ,-0.377777778,-0.103703704,1,0,0,1.9022,text_option_1,,0,24,24,27,1
60be4d9e7f4d10be1c1b2cc7,63f3cfca20052e4ae7554ebf,6453ca72f64e4ae431652940,2023-05-04_17h09.14.070,ga_syllabified_check,2022.2.5,Win32,59.97361161,,,,,,,,,,,,,,./stim/p06_syllable_1_flauro_hit.wav,p06,flauro,hit,fla-u-ro,flau-ro,fla-u-ro, ,0.418518519,-0.100925926,1,0,0,1.5508,text_option_2,,0,25,25,107,1
60be4d9e7f4d10be1c1b2cc7,63f3cfca20052e4ae7554ebf,6453ca72f64e4ae431652940,2023-05-04_17h09.14.070,ga_syllabified_check,2022.2.5,Win32,59.97361161,,,,,,,,,,,,,,./stim/p04_syllable_1_lakakuaisto_hit.wav,p04,lakakuaisto,hit,la-ka-kuais-to,la-ka-kuais-to,la-ka-ku-ais-to,la-ka-kua-is-to,-0.375925926,-0.111111111,1,0,0,1.5835,text_option_1,,0,26,26,49,1
60be4d9e7f4d10be1c1b2cc7,63f3cfca20052e4ae7554ebf,6453ca72f64e4ae431652940,2023-05-04_17h09.14.070,ga_syllabified_check,2022.2.5,Win32,59.97361161,,,,,,,,,,,,,,./stim/p05_syllable_1_faluduako_hit.wav,p05,faluduako,hit,fa-lu-ba-ko,fa-lu-dua-ko,fa-lu-du-a-ko, ,-0.375925926,-0.106481481,1,0,0,1.8037,text_option_1,,0,27,27,70,1
60be4d9e7f4d10be1c1b2cc7,63f3cfca20052e4ae7554ebf,6453ca72f64e4ae431652940,2023-05-04_17h09.14.070,ga_syllabified_check,2022.2.5,Win32,59.97361161,,,,,,,,,,,,,,./stim/p08_syllable_1_pachialo_hit.wav,p08,pachialo,hit,pa-chi-ja-lo,pa-chia-lo,pa-chi-a-lo, ,0.401851852,-0.092592593,1,0,0,1.4669,text_option_2,,0,28,28,194,1
60be4d9e7f4d10be1c1b2cc7,63f3cfca20052e4ae7554ebf,6453ca72f64e4ae431652940,2023-05-04_17h09.14.070,ga_syllabified_check,2022.2.5,Win32,59.97361161,,,,,,,,,,,,,,./stim/p07_syllable_1_palufauro_hit.wav,p07,palufauro,hit,pa-lu-fau-ro,pa-lu-fau-ro,pa-lu-fa-u-ro, ,-0.341666667,-0.10462963,1,0,0,2.1504,text_option_1,,0,29,29,161,1
60be4d9e7f4d10be1c1b2cc7,63f3cfca20052e4ae7554ebf,6453ca72f64e4ae431652940,2023-05-04_17h09.14.070,ga_syllabified_check,2022.2.5,Win32,59.97361161,,,,,,,,,,,,,,./stim/p05_syllable_1_pachialo_hit.wav,p05,pachialo,hit,pan-chia-lo,pa-chia-lo,pa-chi-a-lo, ,0.391666667,-0.109259259,1,0,0,4.3495,text_option_2,,0,30,30,92,1
60be4d9e7f4d10be1c1b2cc7,63f3cfca20052e4ae7554ebf,6453ca72f64e4ae431652940,2023-05-04_17h09.14.070,ga_syllabified_check,2022.2.5,Win32,59.97361161,,,,,,,,,,,,,,./stim/p07_syllable_1_lakabuaisto_hit.wav,p07,lakabuaisto,hit,la-ka-buais-to,la-ka-buais-to,la-ka-bu-ais-to,la-ka-bua-is-to,-0.355555556,-0.108333333,1,0,0,2.6503,text_option_1,,0,31,31,143,1
60be4d9e7f4d10be1c1b2cc7,63f3cfca20052e4ae7554ebf,6453ca72f64e4ae431652940,2023-05-04_17h09.14.070,ga_syllabified_check,2022.2.5,Win32,59.97361161,,,,,,,,,,,,,,./stim/p06_syllable_1_lakatiaisto_hit.wav,p06,lakatiaisto,hit,la-ka-pia-is-to,la-ka-tiais-to,la-ka-ti-ais-to,la-ka-tia-is-to,0.017592593,-0.093518519,1,0,0,3.768,text_option_3,,0,32,32,120,1
60be4d9e7f4d10be1c1b2cc7,63f3cfca20052e4ae7554ebf,6453ca72f64e4ae431652940,2023-05-04_17h09.14.070,ga_syllabified_check,2022.2.5,Win32,59.97361161,,,,,,,,,,,,,,./stim/p06_syllable_1_lliape_hit.wav,p06,lliape,hit,lli-lla-pe,llia-pe,lli-a-pe, ,0.380555556,-0.103703704,1,0,0,14.9372,text_option_2,,0,33,33,122,1
60be4d9e7f4d10be1c1b2cc7,63f3cfca20052e4ae7554ebf,6453ca72f64e4ae431652940,2023-05-04_17h09.14.070,ga_syllabified_check,2022.2.5,Win32,59.97361161,,,,,,,,,,,,,,./stim/p05_syllable_1_lakafuaisto_hit.wav,p05,lakafuaisto,hit,la-ka-fais-to,la-ka-fuais-to,la-ka-fu-ais-to,la-ka-fua-is-to,-0.349074074,-0.102777778,1,0,0,3.1872,text_option_1,,0,34,34,79,1
60be4d9e7f4d10be1c1b2cc7,63f3cfca20052e4ae7554ebf,6453ca72f64e4ae431652940,2023-05-04_17h09.14.070,ga_syllabified_check,2022.2.5,Win32,59.97361161,,,,,,,,,,,,,,./stim/p05_syllable_1_paluguato_hit.wav,p05,paluguato,hit,pa-lu-gau-to,pa-lu-gua-to,pa-lu-gu-a-to, ,0.001851852,-0.294444444,1,0,0,7.1463,text_option_other,pa-lu-gau-to,0,35,35,95,1
60be4d9e7f4d10be1c1b2cc7,63f3cfca20052e4ae7554ebf,6453ca72f64e4ae431652940,2023-05-04_17h09.14.070,ga_syllabified_check,2022.2.5,Win32,59.97361161,,,,,,,,,,,,,,./stim/p07_syllable_1_lakatiaisto_hit.wav,p07,lakatiaisto,hit,la-ka-tiai-sto,la-ka-tiais-to,la-ka-ti-ais-to,la-ka-tia-is-to,-0.351851852,-0.099074074,1,0,0,7.3322,text_option_1,,0,36,36,154,1
60be4d9e7f4d10be1c1b2cc7,63f3cfca20052e4ae7554ebf,6453ca72f64e4ae431652940,2023-05-04_17h09.14.070,ga_syllabified_check,2022.2.5,Win32,59.97361161,,,,,,,,,,,,,,./stim/p04_syllable_1_faluduako_hit.wav,p04,faluduako,hit,fa-lu-dua-ko,fa-lu-dua-ko,fa-lu-du-a-ko, ,-0.377777778,-0.093518519,1,0,0,1.1868,text_option_1,,0,37,37,36,1
60be4d9e7f4d10be1c1b2cc7,63f3cfca20052e4ae7554ebf,6453ca72f64e4ae431652940,2023-05-04_17h09.14.070,ga_syllabified_check,2022.2.5,Win32,59.97361161,,,,,,,,,,,,,,./stim/p04_syllable_1_lakapuaisto_hit.wav,p04,lakapuaisto,hit,la-ka-puais-to,la-ka-puais-to,la-ka-pu-ais-to,la-ka-pua-is-to,-0.374074074,-0.111111111,1,0,0,0.8974,text_option_1,,0,38,38,51,1
60be4d9e7f4d10be1c1b2cc7,63f3cfca20052e4ae7554ebf,6453ca72f64e4ae431652940,2023-05-04_17h09.14.070,ga_syllabified_check,2022.2.5,Win32,59.97361161,,,,,,,,,,,,,,./stim/p07_syllable_1_lakabiaisto_hit.wav,p07,lakabiaisto,hit,la-ka-bais-to,la-ka-biais-to,la-ka-bi-ais-to,la-ka-bia-is-to,0.032407407,-0.3,1,0,0,7.7007,text_option_other,la-ka-bais-to,0,39,39,142,1
60be4d9e7f4d10be1c1b2cc7,63f3cfca20052e4ae7554ebf,6453ca72f64e4ae431652940,2023-05-04_17h09.14.070,ga_syllabified_check,2022.2.5,Win32,59.97361161,,,,,,,,,,,,,,./stim/p06_syllable_1_falutraigo_hit.wav,p06,falutraigo,hit,fa-lu-tra-i-go,fa-lu-trai-go,fa-lu-tra-i-go, ,0.417592593,-0.1,1,0,0,3.7873,text_option_2,,0,40,40,106,1
60be4d9e7f4d10be1c1b2cc7,63f3cfca20052e4ae7554ebf,6453ca72f64e4ae431652940,2023-05-04_17h09.14.070,ga_syllabified_check,2022.2.5,Win32,59.97361161,,,,,,,,,,,,,,./stim/p04_syllable_1_nhiape_hit.wav,p04,ñiape,hit,nhia-pe,ñia-pe,ñi-a-pe, ,-0.423148148,-0.094444444,1,0,0,1.0869,text_option_1,,0,41,41,57,1
60be4d9e7f4d10be1c1b2cc7,63f3cfca20052e4ae7554ebf,6453ca72f64e4ae431652940,2023-05-04_17h09.14.070,ga_syllabified_check,2022.2.5,Win32,59.97361161,,,,,,,,,,,,,,./stim/p04_syllable_1_manhiala_hit.wav,p04,mañiala,hit,ma-nhia-la,ma-ñia-la,ma-ñi-a-la, ,-0.373148148,-0.107407407,1,0,0,2.3995,text_option_1,,0,42,42,55,1
60be4d9e7f4d10be1c1b2cc7,63f3cfca20052e4ae7554ebf,6453ca72f64e4ae431652940,2023-05-04_17h09.14.070,ga_syllabified_check,2022.2.5,Win32,59.97361161,,,,,,,,,,,,,,./stim/p04_syllable_1_lakafiaisto_hit.wav,p04,lakafiaisto,hit,la-ka-fiais-to,la-ka-fiais-to,la-ka-fi-ais-to,la-ka-fia-is-to,-0.407407407,-0.098148148,1,0,0,2.9686,text_option_1,,0,43,43,44,1
60be4d9e7f4d10be1c1b2cc7,63f3cfca20052e4ae7554ebf,6453ca72f64e4ae431652940,2023-05-04_17h09.14.070,ga_syllabified_check,2022.2.5,Win32,59.97361161,,,,,,,,,,,,,,./stim/p05_syllable_1_lakakuaisto_hit.wav,p05,lakakuaisto,hit,la-ka-kais-to,la-ka-kuais-to,la-ka-ku-ais-to,la-ka-kua-is-to,0.012037037,-0.305555556,1,0,0,5.0671,text_option_other,la-ka-kais-to,0,44,44,83,1
60be4d9e7f4d10be1c1b2cc7,63f3cfca20052e4ae7554ebf,6453ca72f64e4ae431652940,2023-05-04_17h09.14.070,ga_syllabified_check,2022.2.5,Win32,59.97361161,,,,,,,,,,,,,,./stim/p07_syllable_1_falufaisto_hit.wav,p07,falufaisto,hit,fa-lu-fais-to,fa-lu-fais-to,fa-lu-fa-is-to, ,-0.449074074,-0.094444444,1,0,0,3.0331,text_option_1,,0,45,45,139,1
60be4d9e7f4d10be1c1b2cc7,63f3cfca20052e4ae7554ebf,6453ca72f64e4ae431652940,2023-05-04_17h09.14.070,ga_syllabified_check,2022.2.5,Win32,59.97361161,,,,,,,,,,,,,,./stim/p05_syllable_1_payielo_hit.wav,p05,payielo,hit,pai-yu-we-lo,pa-yie-lo,pa-yi-e-lo, ,0.012037037,-0.302777778,1,0,0,5.1998,text_option_other,pa-yu-e-lo,0,46,46,98,1
60be4d9e7f4d10be1c1b2cc7,63f3cfca20052e4ae7554ebf,6453ca72f64e4ae431652940,2023-05-04_17h09.14.070,ga_syllabified_check,2022.2.5,Win32,59.97361161,,,,,,,,,,,,,,./stim/p05_syllable_1_lakatiaisto_hit.wav,p05,lakatiaisto,hit,la-ka-ti-ais-to,la-ka-tiais-to,la-ka-ti-ais-to,la-ka-tia-is-to,-0.365740741,-0.100925926,1,0,0,1.7008,text_option_1,,0,47,47,86,1
60be4d9e7f4d10be1c1b2cc7,63f3cfca20052e4ae7554ebf,6453ca72f64e4ae431652940,2023-05-04_17h09.14.070,ga_syllabified_check,2022.2.5,Win32,59.97361161,,,,,,,,,,,,,,./stim/p08_syllable_1_manhiala_hit.wav,p08,mañiala,hit,ma-nhia-la,ma-ñia-la,ma-ñi-a-la, ,-0.363888889,-0.090740741,1,0,0,2.7692,text_option_1,,0,48,48,191,1
60be4d9e7f4d10be1c1b2cc7,63f3cfca20052e4ae7554ebf,6453ca72f64e4ae431652940,2023-05-04_17h09.14.070,ga_syllabified_check,2022.2.5,Win32,59.97361161,,,,,,,,,,,,,,./stim/p03_syllable_1_falufaisto_hit.wav,p03,falufaisto,hit,fa-lu-fais-to,fa-lu-fais-to,fa-lu-fa-is-to, ,-0.456481481,-0.085185185,1,0,0,2.3002,text_option_1,,0,49,49,3,1
60be4d9e7f4d10be1c1b2cc7,63f3cfca20052e4ae7554ebf,6453ca72f64e4ae431652940,2023-05-04_17h09.14.070,ga_syllabified_check,2022.2.5,Win32,59.97361161,,,,,,,,,,,,,,./stim/p06_syllable_1_lakatuaisto_hit.wav,p06,lakatuaisto,hit,la-ka-tu-a-is,la-ka-tuais-to,la-ka-tu-ais-to,la-ka-tua-is-to,0.025925926,-0.30462963,1,0,0,7.9824,text_option_other,la-ka-tu-a-is-to,0,50,50,121,1
60be4d9e7f4d10be1c1b2cc7,63f3cfca20052e4ae7554ebf,6453ca72f64e4ae431652940,2023-05-04_17h09.14.070,ga_syllabified_check,2022.2.5,Win32,59.97361161,,,,,,,,,,,,,,./stim/p05_syllable_1_falufaisto_hit.wav,p05,falufaisto,hit,fa-lu-fais-to,fa-lu-fais-to,fa-lu-fa-is-to, ,-0.406481481,-0.097222222,1,0,0,1.1328,text_option_1,,0,51,51,71,1
60be4d9e7f4d10be1c1b2cc7,63f3cfca20052e4ae7554ebf,6453ca72f64e4ae431652940,2023-05-04_17h09.14.070,ga_syllabified_check,2022.2.5,Win32,59.97361161,,,,,,,,,,,,,,./stim/p03_syllable_1_pachialo_hit.wav,p03,pachialo,hit,pa-chia-lo,pa-chia-lo,pa-chi-a-lo, ,-0.357407407,-0.108333333,1,0,0,2.0009,text_option_1,,0,52,52,24,1
60be4d9e7f4d10be1c1b2cc7,63f3cfca20052e4ae7554ebf,6453ca72f64e4ae431652940,2023-05-04_17h09.14.070,ga_syllabified_check,2022.2.5,Win32,59.97361161,,,,,,,,,,,,,,./stim/p04_syllable_1_flauro_hit.wav,p04,flauro,hit,flau-ro,flau-ro,fla-u-ro, ,-0.359259259,-0.108333333,1,0,0,0.25,text_option_1,,0,53,53,39,1
60be4d9e7f4d10be1c1b2cc7,63f3cfca20052e4ae7554ebf,6453ca72f64e4ae431652940,2023-05-04_17h09.14.070,ga_syllabified_check,2022.2.5,Win32,59.97361161,,,,,,,,,,,,,,./stim/p08_syllable_1_lakafuaisto_hit.wav,p08,lakafuaisto,hit,la-ka-fju-ais-to,la-ka-fuais-to,la-ka-fu-ais-to,la-ka-fua-is-to,0.4,-0.091666667,1,0,0,11.0339,text_option_2,,0,54,54,181,1
60be4d9e7f4d10be1c1b2cc7,63f3cfca20052e4ae7554ebf,6453ca72f64e4ae431652940,2023-05-04_17h09.14.070,ga_syllabified_check,2022.2.5,Win32,59.97361161,,,,,,,,,,,,,,./stim/p03_syllable_1_chiaba_hit.wav,p03,chiaba,hit,chia-ba,chia-ba,chi-a-ba, ,-0.380555556,-0.105555556,1,0,0,0.8842,text_option_1,,0,55,55,0,1
60be4d9e7f4d10be1c1b2cc7,63f3cfca20052e4ae7554ebf,6453ca72f64e4ae431652940,2023-05-04_17h09.14.070,ga_syllabified_check,2022.2.5,Win32,59.97361161,,,,,,,,,,,,,,./stim/p05_syllable_1_palufauro_hit.wav,p05,palufauro,hit,pa-lu-fau-ro,pa-lu-fau-ro,pa-lu-fa-u-ro, ,-0.392592593,-0.083333333,1,0,0,0.6969,text_option_1,,0,56,56,93,1
60be4d9e7f4d10be1c1b2cc7,63f3cfca20052e4ae7554ebf,6453ca72f64e4ae431652940,2023-05-04_17h09.14.070,ga_syllabified_check,2022.2.5,Win32,59.97361161,,,,,,,,,,,,,,./stim/p03_syllable_1_palufauro_hit.wav,p03,palufauro,hit,pa-lu-fau-ro,pa-lu-fau-ro,pa-lu-fa-u-ro, ,-0.378703704,-0.098148148,1,0,0,0.9497,text_option_1,,0,57,57,25,1
60be4d9e7f4d10be1c1b2cc7,63f3cfca20052e4ae7554ebf,6453ca72f64e4ae431652940,2023-05-04_17h09.14.070,ga_syllabified_check,2022.2.5,Win32,59.97361161,,,,,,,,,,,,,,./stim/p07_syllable_1_palutrauco_hit.wav,p07,palutrauco,hit,pa-lu-trau-co,pa-lu-trau-co,pa-lu-tra-u-co, ,-0.381481481,-0.099074074,1,0,0,1.3333,text_option_1,,0,58,58,165,1
60be4d9e7f4d10be1c1b2cc7,63f3cfca20052e4ae7554ebf,6453ca72f64e4ae431652940,2023-05-04_17h09.14.070,ga_syllabified_check,2022.2.5,Win32,59.97361161,,,,,,,,,,,,,,./stim/p03_syllable_1_lakatiaisto_hit.wav,p03,lakatiaisto,hit,la-ka-tiais-to,la-ka-tiais-to,la-ka-ti-ais-to,la-ka-tia-is-to,-0.389814815,-0.10462963,1,0,0,2.4044,text_option_1,,0,59,59,18,1
60be4d9e7f4d10be1c1b2cc7,63f3cfca20052e4ae7554ebf,6453ca72f64e4ae431652940,2023-05-04_17h09.14.070,ga_syllabified_check,2022.2.5,Win32,59.97361161,,,,,,,,,,,,,,./stim/p07_syllable_1_payielo_hit.wav,p07,payielo,hit,pa-yie-lo,pa-yie-lo,pa-yi-e-lo, ,-0.390740741,-0.107407407,1,0,0,2.1491,text_option_1,,0,60,60,166,1
60be4d9e7f4d10be1c1b2cc7,63f3cfca20052e4ae7554ebf,6453ca72f64e4ae431652940,2023-05-04_17h09.14.070,ga_syllabified_check,2022.2.5,Win32,59.97361161,,,,,,,,,,,,,,./stim/p04_syllable_1_ruyiola_hit.wav,p04,ruyiola,hit,ru-yio-la,ru-yio-la,ru-yi-o-la, ,-0.393518519,-0.112037037,1,0,0,0.6045,text_option_1,,0,61,61,66,1
60be4d9e7f4d10be1c1b2cc7,63f3cfca20052e4ae7554ebf,6453ca72f64e4ae431652940,2023-05-04_17h09.14.070,ga_syllabified_check,2022.2.5,Win32,59.97361161,,,,,,,,,,,,,,./stim/p06_syllable_1_lakapiaisto_hit.wav,p06,lakapiaisto,hit,la-ka-pia-is-to,la-ka-piais-to,la-ka-pi-ais-to,la-ka-pia-is-to,0.056481481,-0.1,1,0,0,4.7863,text_option_3,,0,62,62,118,1
60be4d9e7f4d10be1c1b2cc7,63f3cfca20052e4ae7554ebf,6453ca72f64e4ae431652940,2023-05-04_17h09.14.070,ga_syllabified_check,2022.2.5,Win32,59.97361161,,,,,,,,,,,,,,./stim/p05_syllable_1_manhiala_hit.wav,p05,mañiala,hit,ma-nhia-la,ma-ñia-la,ma-ñi-a-la, ,0.433333333,-0.105555556,1,0,0,4.2371,text_option_2,,0,63,63,89,1
60be4d9e7f4d10be1c1b2cc7,63f3cfca20052e4ae7554ebf,6453ca72f64e4ae431652940,2023-05-04_17h09.14.070,ga_syllabified_check,2022.2.5,Win32,59.97361161,,,,,,,,,,,,,,./stim/p08_syllable_1_faluduako_hit.wav,p08,faluduako,hit,fa-lu-duai-ko,fa-lu-dua-ko,fa-lu-du-a-ko, ,0.008333333,-0.298148148,1,0,0,3.8842,text_option_other,fa-du-duai-ko,0,64,64,172,1
60be4d9e7f4d10be1c1b2cc7,63f3cfca20052e4ae7554ebf,6453ca72f64e4ae431652940,2023-05-04_17h09.14.070,ga_syllabified_check,2022.2.5,Win32,59.97361161,,,,,,,,,,,,,,./stim/p06_syllable_1_faluduako_hit.wav,p06,faluduako,hit,fa-lu-dua-ko,fa-lu-dua-ko,fa-lu-du-a-ko, ,-0.384259259,-0.096296296,1,0,0,3.1965,text_option_1,,0,65,65,104,1
60be4d9e7f4d10be1c1b2cc7,63f3cfca20052e4ae7554ebf,6453ca72f64e4ae431652940,2023-05-04_17h09.14.070,ga_syllabified_check,2022.2.5,Win32,59.97361161,,,,,,,,,,,,,,./stim/p03_syllable_1_lakafiaisto_hit.wav,p03,lakafiaisto,hit,la-ka-fiais-to,la-ka-fiais-to,la-ka-fi-ais-to,la-ka-fia-is-to,-0.366666667,-0.101851852,1,0,0,1.4045,text_option_1,,0,66,66,10,1
60be4d9e7f4d10be1c1b2cc7,63f3cfca20052e4ae7554ebf,6453ca72f64e4ae431652940,2023-05-04_17h09.14.070,ga_syllabified_check,2022.2.5,Win32,59.97361161,,,,,,,,,,,,,,./stim/p05_syllable_1_lakafiaisto_hit.wav,p05,lakafiaisto,hit,la-ka-fi-ais-to,la-ka-fiais-to,la-ka-fi-ais-to,la-ka-fia-is-to,0.02037037,-0.097222222,1,0,0,6.6002,text_option_3,,0,67,67,78,1
60be4d9e7f4d10be1c1b2cc7,63f3cfca20052e4ae7554ebf,6453ca72f64e4ae431652940,2023-05-04_17h09.14.070,ga_syllabified_check,2022.2.5,Win32,59.97361161,,,,,,,,,,,,,,./stim/p06_syllable_1_nhiape_hit.wav,p06,ñiape,hit,nhi-a-pe,ñia-pe,ñi-a-pe, ,0.399074074,-0.099074074,1,0,0,1.362,text_option_2,,0,68,68,125,1
60be4d9e7f4d10be1c1b2cc7,63f3cfca20052e4ae7554ebf,6453ca72f64e4ae431652940,2023-05-04_17h09.14.070,ga_syllabified_check,2022.2.5,Win32,59.97361161,,,,,,,,,,,,,,./stim/p07_syllable_1_manhiala_hit.wav,p07,mañiala,hit,ma-nhia-la,ma-ñia-la,ma-ñi-a-la, ,-0.390740741,-0.10462963,1,0,0,1.5338,text_option_1,,0,69,69,157,1
60be4d9e7f4d10be1c1b2cc7,63f3cfca20052e4ae7554ebf,6453ca72f64e4ae431652940,2023-05-04_17h09.14.070,ga_syllabified_check,2022.2.5,Win32,59.97361161,,,,,,,,,,,,,,./stim/p07_syllable_1_falutraigo_hit.wav,p07,falutraigo,hit,fa-lu-trai-go,fa-lu-trai-go,fa-lu-tra-i-go, ,-0.391666667,-0.100925926,1,0,0,3.4166,text_option_1,,0,70,70,140,1
60be4d9e7f4d10be1c1b2cc7,63f3cfca20052e4ae7554ebf,6453ca72f64e4ae431652940,2023-05-04_17h09.14.070,ga_syllabified_check,2022.2.5,Win32,59.97361161,,,,,,,,,,,,,,./stim/p08_syllable_1_lakakiaisto_hit.wav,p08,lakakiaisto,hit,la-ka-ki-jas-to,la-ka-kiais-to,la-ka-ki-ais-to,la-ka-kia-is-to,0.390740741,-0.109259259,1,0,0,6.5842,text_option_2,,0,71,71,184,1
60be4d9e7f4d10be1c1b2cc7,63f3cfca20052e4ae7554ebf,6453ca72f64e4ae431652940,2023-05-04_17h09.14.070,ga_syllabified_check,2022.2.5,Win32,59.97361161,,,,,,,,,,,,,,./stim/p04_syllable_1_tuliafo_hit.wav,p04,tuliafo,hit,tu-lia-fo,tu-lia-fo,tu-li-a-fo, ,-0.411111111,-0.083333333,1,0,0,1.4665,text_option_1,,0,72,72,67,1
60be4d9e7f4d10be1c1b2cc7,63f3cfca20052e4ae7554ebf,6453ca72f64e4ae431652940,2023-05-04_17h09.14.070,ga_syllabified_check,2022.2.5,Win32,59.97361161,,,,,,,,,,,,,,./stim/p06_syllable_1_lakadiaisto_hit.wav,p06,lakadiaisto,hit,la-ka-dia-is-to,la-ka-diais-to,la-ka-di-ais-to,la-ka-dia-is-to,0.006481481,-0.105555556,1,0,0,3.767,text_option_3,,0,73,73,110,1
60be4d9e7f4d10be1c1b2cc7,63f3cfca20052e4ae7554ebf,6453ca72f64e4ae431652940,2023-05-04_17h09.14.070,ga_syllabified_check,2022.2.5,Win32,59.97361161,,,,,,,,,,,,,,./stim/p07_syllable_1_ruyiola_hit.wav,p07,ruyiola,hit,ru-yio-la,ru-yio-la,ru-yi-o-la, ,-0.410185185,-0.100925926,1,0,0,1.0172,text_option_1,,0,74,74,168,1
60be4d9e7f4d10be1c1b2cc7,63f3cfca20052e4ae7554ebf,6453ca72f64e4ae431652940,2023-05-04_17h09.14.070,ga_syllabified_check,2022.2.5,Win32,59.97361161,,,,,,,,,,,,,,./stim/p03_syllable_1_lakabiaisto_hit.wav,p03,lakabiaisto,hit,la-ka-biais-to,la-ka-biais-to,la-ka-bi-ais-to,la-ka-bia-is-to,-0.372222222,-0.109259259,1,0,0,3.4802,text_option_1,,0,75,75,6,1
60be4d9e7f4d10be1c1b2cc7,63f3cfca20052e4ae7554ebf,6453ca72f64e4ae431652940,2023-05-04_17h09.14.070,ga_syllabified_check,2022.2.5,Win32,59.97361161,,,,,,,,,,,,,,./stim/p07_syllable_1_rausto_hit.wav,p07,rausto,hit,raus-to,raus-to,ra-us-to, ,-0.372222222,-0.112962963,1,0,0,1.2661,text_option_1,,0,76,76,167,1
60be4d9e7f4d10be1c1b2cc7,63f3cfca20052e4ae7554ebf,6453ca72f64e4ae431652940,2023-05-04_17h09.14.070,ga_syllabified_check,2022.2.5,Win32,59.97361161,,,,,,,,,,,,,,./stim/p06_syllable_1_mebochiana_hit.wav,p06,mebochiana,hit,me-bo-shi-a-na,me-bo-chia-na,me-bo-chi-a-na, ,0.385185185,-0.086111111,1,0,0,2.5998,text_option_2,,0,77,77,124,1
60be4d9e7f4d10be1c1b2cc7,63f3cfca20052e4ae7554ebf,6453ca72f64e4ae431652940,2023-05-04_17h09.14.070,ga_syllabified_check,2022.2.5,Win32,59.97361161,,,,,,,,,,,,,,./stim/p05_syllable_1_costonhialo_hit.wav,p05,costoñialo,hit,cos-to-nhia-lo,cos-to-ñia-lo,cos-to-ñi-a-lo, ,-0.332407407,-0.103703704,1,0,0,3.367,text_option_1,,0,78,78,69,1
60be4d9e7f4d10be1c1b2cc7,63f3cfca20052e4ae7554ebf,6453ca72f64e4ae431652940,2023-05-04_17h09.14.070,ga_syllabified_check,2022.2.5,Win32,59.97361161,,,,,,,,,,,,,,./stim/p08_syllable_1_lakapuaisto_hit.wav,p08,lakapuaisto,hit,la-ka-pu-as-to,la-ka-puais-to,la-ka-pu-ais-to,la-ka-pua-is-to,0.048148148,-0.309259259,1,0,0,14.968,text_option_other,la-ka-pu-as-to,0,79,79,187,1
60be4d9e7f4d10be1c1b2cc7,63f3cfca20052e4ae7554ebf,6453ca72f64e4ae431652940,2023-05-04_17h09.14.070,ga_syllabified_check,2022.2.5,Win32,59.97361161,,,,,,,,,,,,,,./stim/p05_syllable_1_lakakiaisto_hit.wav,p05,lakakiaisto,hit,la-ka-ki-ais-to,la-ka-kiais-to,la-ka-ki-ais-to,la-ka-kia-is-to,-0.328703704,-0.102777778,1,0,0,2.0891,text_option_1,,0,80,80,82,1
60be4d9e7f4d10be1c1b2cc7,63f3cfca20052e4ae7554ebf,6453ca72f64e4ae431652940,2023-05-04_17h09.14.070,ga_syllabified_check,2022.2.5,Win32,59.97361161,,,,,,,,,,,,,,./stim/p06_syllable_1_lakaduaisto_hit.wav,p06,lakaduaisto,hit,la-ka-du-a-is,la-ka-duais-to,la-ka-du-ais-to,la-ka-dua-is-to,0.036111111,-0.300925926,1,0,0,5.9477,text_option_other,la-ka-du-a-is-to,0,81,81,111,1
60be4d9e7f4d10be1c1b2cc7,63f3cfca20052e4ae7554ebf,6453ca72f64e4ae431652940,2023-05-04_17h09.14.070,ga_syllabified_check,2022.2.5,Win32,59.97361161,,,,,,,,,,,,,,./stim/p05_syllable_1_falutraigo_hit.wav,p05,falutraigo,hit,fa-lu-trai-go,fa-lu-trai-go,fa-lu-tra-i-go, ,-0.336111111,-0.110185185,1,0,0,0.9325,text_option_1,,0,82,82,72,1
60be4d9e7f4d10be1c1b2cc7,63f3cfca20052e4ae7554ebf,6453ca72f64e4ae431652940,2023-05-04_17h09.14.070,ga_syllabified_check,2022.2.5,Win32,59.97361161,,,,,,,,,,,,,,./stim/p06_syllable_1_palufauro_hit.wav,p06,palufauro,hit,pa-lu-fau-ro,pa-lu-fau-ro,pa-lu-fa-u-ro, ,0.348148148,-0.110185185,1,0,0,6.3666,text_option_2,,0,83,83,127,1
60be4d9e7f4d10be1c1b2cc7,63f3cfca20052e4ae7554ebf,6453ca72f64e4ae431652940,2023-05-04_17h09.14.070,ga_syllabified_check,2022.2.5,Win32,59.97361161,,,,,,,,,,,,,,./stim/p08_syllable_1_falufaisto_hit.wav,p08,falufaisto,hit,fa-lu-fais-to,fa-lu-fais-to,fa-lu-fa-is-to, ,-0.353703704,-0.10462963,1,0,0,1.9464,text_option_1,,0,84,84,173,1
60be4d9e7f4d10be1c1b2cc7,63f3cfca20052e4ae7554ebf,6453ca72f64e4ae431652940,2023-05-04_17h09.14.070,ga_syllabified_check,2022.2.5,Win32,59.97361161,,,,,,,,,,,,,,./stim/p05_syllable_1_nhiape_hit.wav,p05,ñiape,hit,nhia-pe,ñia-pe,ñi-a-pe, ,-0.397222222,-0.100925926,1,0,0,0.3465,text_option_1,,0,85,85,91,1
60be4d9e7f4d10be1c1b2cc7,63f3cfca20052e4ae7554ebf,6453ca72f64e4ae431652940,2023-05-04_17h09.14.070,ga_syllabified_check,2022.2.5,Win32,59.97361161,,,,,,,,,,,,,,./stim/p03_syllable_1_palumaisto_hit.wav,p03,palumaisto,hit,pa-lu-mais-to,pa-lu-mais-to,pa-lu-ma-is-to, ,-0.372222222,-0.109259259,1,0,0,1.0504,text_option_1,,0,86,86,28,1
60be4d9e7f4d10be1c1b2cc7,63f3cfca20052e4ae7554ebf,6453ca72f64e4ae431652940,2023-05-04_17h09.14.070,ga_syllabified_check,2022.2.5,Win32,59.97361161,,,,,,,,,,,,,,./stim/p03_syllable_1_lakakuaisto_hit.wav,p03,lakakuaisto,hit,la-ka-kuais-to,la-ka-kuais-to,la-ka-ku-ais-to,la-ka-kua-is-to,-0.360185185,-0.097222222,1,0,0,1.516,text_option_1,,0,87,87,15,1
60be4d9e7f4d10be1c1b2cc7,63f3cfca20052e4ae7554ebf,6453ca72f64e4ae431652940,2023-05-04_17h09.14.070,ga_syllabified_check,2022.2.5,Win32,59.97361161,,,,,,,,,,,,,,./stim/p06_syllable_1_lakafiaisto_hit.wav,p06,lakafiaisto,hit,la-ka-fia-is-to,la-ka-fiais-to,la-ka-fi-ais-to,la-ka-fia-is-to,0.018518519,-0.107407407,1,0,0,3.2661,text_option_3,,0,88,88,112,1
60be4d9e7f4d10be1c1b2cc7,63f3cfca20052e4ae7554ebf,6453ca72f64e4ae431652940,2023-05-04_17h09.14.070,ga_syllabified_check,2022.2.5,Win32,59.97361161,,,,,,,,,,,,,,./stim/p03_syllable_1_lakaduaisto_hit.wav,p03,lakaduaisto,hit,la-ka-duais-to,la-ka-duais-to,la-ka-du-ais-to,la-ka-dua-is-to,-0.407407407,-0.103703704,1,0,0,1.8038,text_option_1,,0,89,89,9,1
60be4d9e7f4d10be1c1b2cc7,63f3cfca20052e4ae7554ebf,6453ca72f64e4ae431652940,2023-05-04_17h09.14.070,ga_syllabified_check,2022.2.5,Win32,59.97361161,,,,,,,,,,,,,,./stim/p03_syllable_1_lakafuaisto_hit.wav,p03,lakafuaisto,hit,la-ka-fuais-to,la-ka-fuais-to,la-ka-fu-ais-to,la-ka-fua-is-to,-0.319444444,-0.105555556,1,0,0,1.3871,text_option_1,,0,90,90,11,1
60be4d9e7f4d10be1c1b2cc7,63f3cfca20052e4ae7554ebf,6453ca72f64e4ae431652940,2023-05-04_17h09.14.070,ga_syllabified_check,2022.2.5,Win32,59.97361161,,,,,,,,,,,,,,./stim/p04_syllable_1_pachialo_hit.wav,p04,pachialo,hit,pa-chia-lo,pa-chia-lo,pa-chi-a-lo, ,-0.442592593,-0.082407407,1,0,0,0.6871,text_option_1,,0,91,91,58,1
60be4d9e7f4d10be1c1b2cc7,63f3cfca20052e4ae7554ebf,6453ca72f64e4ae431652940,2023-05-04_17h09.14.070,ga_syllabified_check,2022.2.5,Win32,59.97361161,,,,,,,,,,,,,,./stim/p04_syllable_1_lakafuaisto_hit.wav,p04,lakafuaisto,hit,la-ka-fuais-to,la-ka-fuais-to,la-ka-fu-ais-to,la-ka-fua-is-to,-0.392592593,-0.106481481,1,0,0,0.5494,text_option_1,,0,92,92,45,1
60be4d9e7f4d10be1c1b2cc7,63f3cfca20052e4ae7554ebf,6453ca72f64e4ae431652940,2023-05-04_17h09.14.070,ga_syllabified_check,2022.2.5,Win32,59.97361161,,,,,,,,,,,,,,./stim/p06_syllable_1_payielo_hit.wav,p06,payielo,hit,pa-yi-e-lo,pa-yie-lo,pa-yi-e-lo, ,0.42962963,-0.101851852,1,0,0,1.8525,text_option_2,,0,93,93,132,1
60be4d9e7f4d10be1c1b2cc7,63f3cfca20052e4ae7554ebf,6453ca72f64e4ae431652940,2023-05-04_17h09.14.070,ga_syllabified_check,2022.2.5,Win32,59.97361161,,,,,,,,,,,,,,./stim/p05_syllable_1_lliape_hit.wav,p05,lliape,hit,liai-pe,llia-pe,lli-a-pe, ,0.453703704,-0.112037037,1,0,0,5.1831,text_option_2,,0,94,94,88,1
60be4d9e7f4d10be1c1b2cc7,63f3cfca20052e4ae7554ebf,6453ca72f64e4ae431652940,2023-05-04_17h09.14.070,ga_syllabified_check,2022.2.5,Win32,59.97361161,,,,,,,,,,,,,,./stim/p05_syllable_1_lakaguaisto_hit.wav,p05,lakaguaisto,hit,la-ka-gais,la-ka-guais-to,la-ka-gu-ais-to,la-ka-gua-is-to,0.024074074,-0.300925926,1,0,0,6.4838,text_option_other,la-ka-gais-to,0,95,95,81,1
60be4d9e7f4d10be1c1b2cc7,63f3cfca20052e4ae7554ebf,6453ca72f64e4ae431652940,2023-05-04_17h09.14.070,ga_syllabified_check,2022.2.5,Win32,59.97361161,,,,,,,,,,,,,,./stim/p08_syllable_1_mebochiana_hit.wav,p08,mebochiana,hit,me-bo-chi-a-na,me-bo-chia-na,me-bo-chi-a-na, ,0.368518519,-0.109259259,1,0,0,2.117,text_option_2,,0,96,96,192,1
60be4d9e7f4d10be1c1b2cc7,63f3cfca20052e4ae7554ebf,6453ca72f64e4ae431652940,2023-05-04_17h09.14.070,ga_syllabified_check,2022.2.5,Win32,59.97361161,,,,,,,,,,,,,,./stim/p06_syllable_1_chiaba_hit.wav,p06,chiaba,hit,chi-a-ba,chia-ba,chi-a-ba, ,-0.411111111,-0.097222222,1,0,0,1.4661,text_option_1,,0,97,97,102,1
60be4d9e7f4d10be1c1b2cc7,63f3cfca20052e4ae7554ebf,6453ca72f64e4ae431652940,2023-05-04_17h09.14.070,ga_syllabified_check,2022.2.5,Win32,59.97361161,,,,,,,,,,,,,,./stim/p07_syllable_1_lakadiaisto_hit.wav,p07,lakadiaisto,hit,la-ka-dia-is-to,la-ka-diais-to,la-ka-di-ais-to,la-ka-dia-is-to,0.037037037,-0.103703704,1,0,0,3.1998,text_option_3,,0,98,98,144,1
60be4d9e7f4d10be1c1b2cc7,63f3cfca20052e4ae7554ebf,6453ca72f64e4ae431652940,2023-05-04_17h09.14.070,ga_syllabified_check,2022.2.5,Win32,59.97361161,,,,,,,,,,,,,,./stim/p03_syllable_1_lakapuaisto_hit.wav,p03,lakapuaisto,hit,la-ka-puais-to,la-ka-puais-to,la-ka-pu-ais-to,la-ka-pua-is-to,-0.323148148,-0.097222222,1,0,0,1.7325,text_option_1,,0,99,99,17,1
60be4d9e7f4d10be1c1b2cc7,63f3cfca20052e4ae7554ebf,6453ca72f64e4ae431652940,2023-05-04_17h09.14.070,ga_syllabified_check,2022.2.5,Win32,59.97361161,,,,,,,,,,,,,,./stim/p03_syllable_1_falutraigo_hit.wav,p03,falutraigo,hit,fa-lu-trai-go,fa-lu-trai-go,fa-lu-tra-i-go, ,-0.351851852,-0.106481481,1,0,0,1.4668,text_option_1,,0,100,100,4,1
60be4d9e7f4d10be1c1b2cc7,63f3cfca20052e4ae7554ebf,6453ca72f64e4ae431652940,2023-05-04_17h09.14.070,ga_syllabified_check,2022.2.5,Win32,59.97361161,,,,,,,,,,,,,,./stim/p07_syllable_1_lakatuaisto_hit.wav,p07,lakatuaisto,hit,la-ka-tuais-to,la-ka-tuais-to,la-ka-tu-ais-to,la-ka-tua-is-to,-0.349074074,-0.116666667,1,0,0,2.3047,text_option_1,,0,101,101,155,1
60be4d9e7f4d10be1c1b2cc7,63f3cfca20052e4ae7554ebf,6453ca72f64e4ae431652940,2023-05-04_17h09.14.070,ga_syllabified_check,2022.2.5,Win32,59.97361161,,,,,,,,,,,,,,./stim/p05_syllable_1_lakadiaisto_hit.wav,p05,lakadiaisto,hit,la-ka-di-ais-to,la-ka-diais-to,la-ka-di-ais-to,la-ka-dia-is-to,0.455555556,-0.103703704,1,0,0,10.0188,text_option_2,,0,102,102,76,1
60be4d9e7f4d10be1c1b2cc7,63f3cfca20052e4ae7554ebf,6453ca72f64e4ae431652940,2023-05-04_17h09.14.070,ga_syllabified_check,2022.2.5,Win32,59.97361161,,,,,,,,,,,,,,./stim/p07_syllable_1_lliape_hit.wav,p07,lliape,hit,lliai-pe,llia-pe,lli-a-pe, ,-0.018518519,-0.296296296,1,0,0,6.9846,text_option_other,llial-pe,0,103,103,156,1
60be4d9e7f4d10be1c1b2cc7,63f3cfca20052e4ae7554ebf,6453ca72f64e4ae431652940,2023-05-04_17h09.14.070,ga_syllabified_check,2022.2.5,Win32,59.97361161,,,,,,,,,,,,,,./stim/p04_syllable_1_costonhialo_hit.wav,p04,costoñialo,hit,cos-to-nhia-lo,cos-to-ñia-lo,cos-to-ñi-a-lo, ,-0.377777778,-0.117592593,1,0,0,3.4499,text_option_1,,0,104,104,35,1
60be4d9e7f4d10be1c1b2cc7,63f3cfca20052e4ae7554ebf,6453ca72f64e4ae431652940,2023-05-04_17h09.14.070,ga_syllabified_check,2022.2.5,Win32,59.97361161,,,,,,,,,,,,,,./stim/p05_syllable_1_rausto_hit.wav,p05,rausto,hit,raus-to,raus-to,ra-us-to, ,-0.377777778,-0.117592593,1,0,0,0.2299,text_option_1,,0,105,105,99,1
60be4d9e7f4d10be1c1b2cc7,63f3cfca20052e4ae7554ebf,6453ca72f64e4ae431652940,2023-05-04_17h09.14.070,ga_syllabified_check,2022.2.5,Win32,59.97361161,,,,,,,,,,,,,,./stim/p07_syllable_1_paluguato_hit.wav,p07,paluguato,hit,pa-lu-gua-to,pa-lu-gua-to,pa-lu-gu-a-to, ,-0.367592593,-0.107407407,1,0,0,2.0173,text_option_1,,0,106,106,163,1
60be4d9e7f4d10be1c1b2cc7,63f3cfca20052e4ae7554ebf,6453ca72f64e4ae431652940,2023-05-04_17h09.14.070,ga_syllabified_check,2022.2.5,Win32,59.97361161,,,,,,,,,,,,,,./stim/p03_syllable_1_lakapiaisto_hit.wav,p03,lakapiaisto,hit,la-ka-piais-to,la-ka-piais-to,la-ka-pi-ais-to,la-ka-pia-is-to,-0.337962963,-0.116666667,1,0,0,1.1014,text_option_1,,0,107,107,16,1
60be4d9e7f4d10be1c1b2cc7,63f3cfca20052e4ae7554ebf,6453ca72f64e4ae431652940,2023-05-04_17h09.14.070,ga_syllabified_check,2022.2.5,Win32,59.97361161,,,,,,,,,,,,,,./stim/p07_syllable_1_chiaba_hit.wav,p07,chiaba,hit,chia-ba,chia-ba,chi-a-ba, ,-0.360185185,-0.110185185,1,0,0,0.5045,text_option_1,,0,108,108,136,1
60be4d9e7f4d10be1c1b2cc7,63f3cfca20052e4ae7554ebf,6453ca72f64e4ae431652940,2023-05-04_17h09.14.070,ga_syllabified_check,2022.2.5,Win32,59.97361161,,,,,,,,,,,,,,./stim/p04_syllable_1_lakabiaisto_hit.wav,p04,lakabiaisto,hit,la-ka-biais-to,la-ka-biais-to,la-ka-bi-ais-to,la-ka-bia-is-to,-0.349074074,-0.103703704,1,0,0,0.7632,text_option_1,,0,109,109,40,1
60be4d9e7f4d10be1c1b2cc7,63f3cfca20052e4ae7554ebf,6453ca72f64e4ae431652940,2023-05-04_17h09.14.070,ga_syllabified_check,2022.2.5,Win32,59.97361161,,,,,,,,,,,,,,./stim/p03_syllable_1_palufauto_hit.wav,p03,palufauto,hit,pa-lu-fau,pa-lu-fau-to,pa-lu-fa-u-to, ,-0.34537037,-0.108333333,1,0,0,0.9469,text_option_1,,0,110,110,26,1
60be4d9e7f4d10be1c1b2cc7,63f3cfca20052e4ae7554ebf,6453ca72f64e4ae431652940,2023-05-04_17h09.14.070,ga_syllabified_check,2022.2.5,Win32,59.97361161,,,,,,,,,,,,,,./stim/p08_syllable_1_lakapiaisto_hit.wav,p08,lakapiaisto,hit,la-ka-pi-as-to,la-ka-piais-to,la-ka-pi-ais-to,la-ka-pia-is-to,0.003703704,-0.300925926,1,0,0,4.3998,text_option_other,la-ka-pi-as-to,0,111,111,186,1
60be4d9e7f4d10be1c1b2cc7,63f3cfca20052e4ae7554ebf,6453ca72f64e4ae431652940,2023-05-04_17h09.14.070,ga_syllabified_check,2022.2.5,Win32,59.97361161,,,,,,,,,,,,,,./stim/p08_syllable_1_rausto_hit.wav,p08,rausto,hit,raus-to,raus-to,ra-us-to, ,-0.427777778,-0.112037037,1,0,0,1.0471,text_option_1,,0,112,112,201,1
60be4d9e7f4d10be1c1b2cc7,63f3cfca20052e4ae7554ebf,6453ca72f64e4ae431652940,2023-05-04_17h09.14.070,ga_syllabified_check,2022.2.5,Win32,59.97361161,,,,,,,,,,,,,,./stim/p06_syllable_1_lakabuaisto_hit.wav,p06,lakabuaisto,hit,la-ka-bu-a-is,la-ka-buais-to,la-ka-bu-ais-to,la-ka-bua-is-to,0.025,-0.307407407,1,0,0,8.4999,text_option_other,la-ka-bu-a-is-to,0,113,113,109,1
60be4d9e7f4d10be1c1b2cc7,63f3cfca20052e4ae7554ebf,6453ca72f64e4ae431652940,2023-05-04_17h09.14.070,ga_syllabified_check,2022.2.5,Win32,59.97361161,,,,,,,,,,,,,,./stim/p04_syllable_1_lakabuaisto_hit.wav,p04,lakabuaisto,hit,la-ka-buais-to,la-ka-buais-to,la-ka-bu-ais-to,la-ka-bua-is-to,-0.383333333,-0.090740741,1,0,0,0.7837,text_option_1,,0,114,114,41,1
60be4d9e7f4d10be1c1b2cc7,63f3cfca20052e4ae7554ebf,6453ca72f64e4ae431652940,2023-05-04_17h09.14.070,ga_syllabified_check,2022.2.5,Win32,59.97361161,,,,,,,,,,,,,,./stim/p07_syllable_1_mebochiana_hit.wav,p07,mebochiana,hit,me-bo-chia-na,me-bo-chia-na,me-bo-chi-a-na, ,-0.341666667,-0.106481481,1,0,0,2.0159,text_option_1,,0,115,115,158,1
60be4d9e7f4d10be1c1b2cc7,63f3cfca20052e4ae7554ebf,6453ca72f64e4ae431652940,2023-05-04_17h09.14.070,ga_syllabified_check,2022.2.5,Win32,59.97361161,,,,,,,,,,,,,,./stim/p06_syllable_1_lakafuaisto_hit.wav,p06,lakafuaisto,hit,la-ka-fu-a-is,la-ka-fuais-to,la-ka-fu-ais-to,la-ka-fua-is-to,0.048148148,-0.294444444,1,0,0,8.0347,text_option_other,la-ka-fu-a-is-to,0,116,116,113,1
60be4d9e7f4d10be1c1b2cc7,63f3cfca20052e4ae7554ebf,6453ca72f64e4ae431652940,2023-05-04_17h09.14.070,ga_syllabified_check,2022.2.5,Win32,59.97361161,,,,,,,,,,,,,,./stim/p04_syllable_1_mebochiana_hit.wav,p04,mebochiana,hit,me-bo-chia-na,me-bo-chia-na,me-bo-chi-a-na, ,-0.326851852,-0.113888889,1,0,0,1.0662,text_option_1,,0,117,117,56,1
60be4d9e7f4d10be1c1b2cc7,63f3cfca20052e4ae7554ebf,6453ca72f64e4ae431652940,2023-05-04_17h09.14.070,ga_syllabified_check,2022.2.5,Win32,59.97361161,,,,,,,,,,,,,,./stim/p07_syllable_1_costonhialo_hit.wav,p07,costoñialo,hit,cos-to-nhia-lo,cos-to-ñia-lo,cos-to-ñi-a-lo, ,-0.348148148,-0.10462963,1,0,0,1.8012,text_option_1,,0,118,118,137,1
60be4d9e7f4d10be1c1b2cc7,63f3cfca20052e4ae7554ebf,6453ca72f64e4ae431652940,2023-05-04_17h09.14.070,ga_syllabified_check,2022.2.5,Win32,59.97361161,,,,,,,,,,,,,,./stim/p06_syllable_1_costonhialo_hit.wav,p06,costoñialo,hit,cos-to-nhia-lo,cos-to-ñia-lo,cos-to-ñi-a-lo, ,-0.334259259,-0.103703704,1,0,0,2.4369,text_option_1,,0,119,119,103,1
60be4d9e7f4d10be1c1b2cc7,63f3cfca20052e4ae7554ebf,6453ca72f64e4ae431652940,2023-05-04_17h09.14.070,ga_syllabified_check,2022.2.5,Win32,59.97361161,,,,,,,,,,,,,,./stim/p04_syllable_1_chiaba_hit.wav,p04,chiaba,hit,chia-ba,chia-ba,chi-a-ba, ,-0.364814815,-0.108333333,1,0,0,0.2666,text_option_1,,0,120,120,34,1
60be4d9e7f4d10be1c1b2cc7,63f3cfca20052e4ae7554ebf,6453ca72f64e4ae431652940,2023-05-04_17h09.14.070,ga_syllabified_check,2022.2.5,Win32,59.97361161,,,,,,,,,,,,,,./stim/p07_syllable_1_nhiape_hit.wav,p07,ñiape,hit,nhia-pe,ñia-pe,ñi-a-pe, ,-0.398148148,-0.107407407,1,0,0,0.4128,text_option_1,,0,121,121,159,1
60be4d9e7f4d10be1c1b2cc7,63f3cfca20052e4ae7554ebf,6453ca72f64e4ae431652940,2023-05-04_17h09.14.070,ga_syllabified_check,2022.2.5,Win32,59.97361161,,,,,,,,,,,,,,./stim/p08_syllable_1_ruyiola_hit.wav,p08,ruyiola,hit,ru-yio-la,ru-yio-la,ru-yi-o-la, ,-0.367592593,-0.092592593,1,0,0,0.9453,text_option_1,,0,122,122,202,1
60be4d9e7f4d10be1c1b2cc7,63f3cfca20052e4ae7554ebf,6453ca72f64e4ae431652940,2023-05-04_17h09.14.070,ga_syllabified_check,2022.2.5,Win32,59.97361161,,,,,,,,,,,,,,./stim/p07_syllable_1_lakafiaisto_hit.wav,p07,lakafiaisto,hit,la-ka-fiais-to,la-ka-fiais-to,la-ka-fi-ais-to,la-ka-fia-is-to,-0.378703704,-0.108333333,1,0,0,1.3347,text_option_1,,0,123,123,146,1
60be4d9e7f4d10be1c1b2cc7,63f3cfca20052e4ae7554ebf,6453ca72f64e4ae431652940,2023-05-04_17h09.14.070,ga_syllabified_check,2022.2.5,Win32,59.97361161,,,,,,,,,,,,,,./stim/p04_syllable_1_lakagiaisto_hit.wav,p04,lakagiaisto,hit,la-ka-giais-to,la-ka-giais-to,la-ka-gi-ais-to,la-ka-gia-is-to,-0.373148148,-0.107407407,1,0,0,1.3968,text_option_1,,0,124,124,46,1
60be4d9e7f4d10be1c1b2cc7,63f3cfca20052e4ae7554ebf,6453ca72f64e4ae431652940,2023-05-04_17h09.14.070,ga_syllabified_check,2022.2.5,Win32,59.97361161,,,,,,,,,,,,,,./stim/p08_syllable_1_palufauto_hit.wav,p08,palufauto,hit,pa-lu-fau-to,pa-lu-fau-to,pa-lu-fa-u-to, ,-0.380555556,-0.096296296,1,0,0,2.3127,text_option_1,,0,125,125,196,1
60be4d9e7f4d10be1c1b2cc7,63f3cfca20052e4ae7554ebf,6453ca72f64e4ae431652940,2023-05-04_17h09.14.070,ga_syllabified_check,2022.2.5,Win32,59.97361161,,,,,,,,,,,,,,./stim/p05_syllable_1_lakapuaisto_hit.wav,p05,lakapuaisto,hit,la-ka-pais-to,la-ka-puais-to,la-ka-pu-ais-to,la-ka-pua-is-to,-0.012962963,-0.302777778,1,0,0,4.8335,text_option_other,la-ka-pais-to,0,126,126,85,1
60be4d9e7f4d10be1c1b2cc7,63f3cfca20052e4ae7554ebf,6453ca72f64e4ae431652940,2023-05-04_17h09.14.070,ga_syllabified_check,2022.2.5,Win32,59.97361161,,,,,,,,,,,,,,./stim/p08_syllable_1_payielo_hit.wav,p08,payielo,hit,pa-yie-lo,pa-yie-lo,pa-yi-e-lo, ,-0.335185185,-0.118518519,1,0,0,1.4794,text_option_1,,0,127,127,200,1
60be4d9e7f4d10be1c1b2cc7,63f3cfca20052e4ae7554ebf,6453ca72f64e4ae431652940,2023-05-04_17h09.14.070,ga_syllabified_check,2022.2.5,Win32,59.97361161,,,,,,,,,,,,,,./stim/p08_syllable_1_palutrauco_hit.wav,p08,palutrauco,hit,pa-lu-trau-ko,pa-lu-trau-co,pa-lu-tra-u-co, ,-0.341666667,-0.115740741,1,0,0,2.2166,text_option_1,,0,128,128,199,1
60be4d9e7f4d10be1c1b2cc7,63f3cfca20052e4ae7554ebf,6453ca72f64e4ae431652940,2023-05-04_17h09.14.070,ga_syllabified_check,2022.2.5,Win32,59.97361161,,,,,,,,,,,,,,./stim/p03_syllable_1_palutrauco_hit.wav,p03,palutrauco,hit,pa-lu-trau-co,pa-lu-trau-co,pa-lu-tra-u-co, ,-0.346296296,-0.102777778,1,0,0,1.0339,text_option_1,,0,129,129,29,1
60be4d9e7f4d10be1c1b2cc7,63f3cfca20052e4ae7554ebf,6453ca72f64e4ae431652940,2023-05-04_17h09.14.070,ga_syllabified_check,2022.2.5,Win32,59.97361161,,,,,,,,,,,,,,./stim/p05_syllable_1_mebochiana_hit.wav,p05,mebochiana,hit,me-cho-chai-na,me-bo-chia-na,me-bo-chi-a-na, ,-0.006481481,-0.296296296,1,0,0,7.5821,text_option_other,me-cho-chia-na,0,130,130,90,1
60be4d9e7f4d10be1c1b2cc7,63f3cfca20052e4ae7554ebf,6453ca72f64e4ae431652940,2023-05-04_17h09.14.070,ga_syllabified_check,2022.2.5,Win32,59.97361161,,,,,,,,,,,,,,./stim/p03_syllable_1_faluduako_hit.wav,p03,faluduako,hit,fa-lu-dua-ko,fa-lu-dua-ko,fa-lu-du-a-ko, ,-0.350925926,-0.112962963,1,0,0,2.5508,text_option_1,,0,131,131,2,1
60be4d9e7f4d10be1c1b2cc7,63f3cfca20052e4ae7554ebf,6453ca72f64e4ae431652940,2023-05-04_17h09.14.070,ga_syllabified_check,2022.2.5,Win32,59.97361161,,,,,,,,,,,,,,./stim/p08_syllable_1_paluguato_hit.wav,p08,paluguato,hit,pa-lu-gua-to,pa-lu-gua-to,pa-lu-gu-a-to, ,-0.349074074,-0.112962963,1,0,0,1.3505,text_option_1,,0,132,132,197,1
60be4d9e7f4d10be1c1b2cc7,63f3cfca20052e4ae7554ebf,6453ca72f64e4ae431652940,2023-05-04_17h09.14.070,ga_syllabified_check,2022.2.5,Win32,59.97361161,,,,,,,,,,,,,,./stim/p04_syllable_1_palufauto_hit.wav,p04,palufauto,hit,pa-lu-fau-to,pa-lu-fau-to,pa-lu-fa-u-to, ,-0.349074074,-0.112962963,1,0,0,0.4674,text_option_1,,0,133,133,60,1
60be4d9e7f4d10be1c1b2cc7,63f3cfca20052e4ae7554ebf,6453ca72f64e4ae431652940,2023-05-04_17h09.14.070,ga_syllabified_check,2022.2.5,Win32,59.97361161,,,,,,,,,,,,,,./stim/p08_syllable_1_costonhialo_hit.wav,p08,costoñialo,hit,cos-to-nhia-lo,cos-to-ñia-lo,cos-to-ñi-a-lo, ,-0.349074074,-0.114814815,1,0,0,1.363,text_option_1,,0,134,134,171,1
60be4d9e7f4d10be1c1b2cc7,63f3cfca20052e4ae7554ebf,6453ca72f64e4ae431652940,2023-05-04_17h09.14.070,ga_syllabified_check,2022.2.5,Win32,59.97361161,,,,,,,,,,,,,,./stim/p08_syllable_1_lakafiaisto_hit.wav,p08,lakafiaisto,hit,la-ka-fi-as-to,la-ka-fiais-to,la-ka-fi-ais-to,la-ka-fia-is-to,0.002777778,-0.301851852,1,0,0,7.9669,text_option_other,la-ka-fi-as-to,0,135,135,180,1
60be4d9e7f4d10be1c1b2cc7,63f3cfca20052e4ae7554ebf,6453ca72f64e4ae431652940,2023-05-04_17h09.14.070,ga_syllabified_check,2022.2.5,Win32,59.97361161,,,,,,,,,,,,,,./stim/p04_syllable_1_paluguato_hit.wav,p04,paluguato,hit,pa-lu-gua,pa-lu-gua-to,pa-lu-gu-a-to, ,-0.326851852,-0.10462963,1,0,0,0.3788,text_option_1,,0,136,136,61,1
60be4d9e7f4d10be1c1b2cc7,63f3cfca20052e4ae7554ebf,6453ca72f64e4ae431652940,2023-05-04_17h09.14.070,ga_syllabified_check,2022.2.5,Win32,59.97361161,,,,,,,,,,,,,,./stim/p08_syllable_1_chiaba_hit.wav,p08,chiaba,hit,chi-a-ba,chia-ba,chi-a-ba, ,0.412037037,-0.087962963,1,0,0,1.6004,text_option_2,,0,137,137,170,1
60be4d9e7f4d10be1c1b2cc7,63f3cfca20052e4ae7554ebf,6453ca72f64e4ae431652940,2023-05-04_17h09.14.070,ga_syllabified_check,2022.2.5,Win32,59.97361161,,,,,,,,,,,,,,./stim/p06_syllable_1_lakakuaisto_hit.wav,p06,lakakuaisto,hit,la-ka-ku-a-is,la-ka-kuais-to,la-ka-ku-ais-to,la-ka-kua-is-to,0.064814815,-0.291666667,1,0,0,4.5368,text_option_other,la-ka-ku-a-is-to,0,138,138,117,1
60be4d9e7f4d10be1c1b2cc7,63f3cfca20052e4ae7554ebf,6453ca72f64e4ae431652940,2023-05-04_17h09.14.070,ga_syllabified_check,2022.2.5,Win32,59.97361161,,,,,,,,,,,,,,./stim/p08_syllable_1_palufauro_hit.wav,p08,palufauro,hit,pa-lu-fau-ro,pa-lu-fau-ro,pa-lu-fa-u-ro, ,-0.386111111,-0.112962963,1,0,0,2.3504,text_option_1,,0,139,139,195,1
60be4d9e7f4d10be1c1b2cc7,63f3cfca20052e4ae7554ebf,6453ca72f64e4ae431652940,2023-05-04_17h09.14.070,ga_syllabified_check,2022.2.5,Win32,59.97361161,,,,,,,,,,,,,,./stim/p08_syllable_1_lakaguaisto_hit.wav,p08,lakaguaisto,hit,la-ka-gu-ais-to,la-ka-guais-to,la-ka-gu-ais-to,la-ka-gua-is-to,0.423148148,-0.106481481,1,0,0,5.237,text_option_2,,0,140,140,183,1
60be4d9e7f4d10be1c1b2cc7,63f3cfca20052e4ae7554ebf,6453ca72f64e4ae431652940,2023-05-04_17h09.14.070,ga_syllabified_check,2022.2.5,Win32,59.97361161,,,,,,,,,,,,,,./stim/p07_syllable_1_faluduako_hit.wav,p07,faluduako,hit,fa-lu-dua-ko,fa-lu-dua-ko,fa-lu-du-a-ko, ,-0.380555556,-0.100925926,1,0,0,2.3133,text_option_1,,0,141,141,138,1
60be4d9e7f4d10be1c1b2cc7,63f3cfca20052e4ae7554ebf,6453ca72f64e4ae431652940,2023-05-04_17h09.14.070,ga_syllabified_check,2022.2.5,Win32,59.97361161,,,,,,,,,,,,,,./stim/p04_syllable_1_lakatiaisto_hit.wav,p04,lakatiaisto,hit,la-ka-kiais-to,la-ka-tiais-to,la-ka-ti-ais-to,la-ka-tia-is-to,-0.362962963,-0.105555556,1,0,0,3.1713,text_option_1,,0,142,142,52,1
60be4d9e7f4d10be1c1b2cc7,63f3cfca20052e4ae7554ebf,6453ca72f64e4ae431652940,2023-05-04_17h09.14.070,ga_syllabified_check,2022.2.5,Win32,59.97361161,,,,,,,,,,,,,,./stim/p06_syllable_1_tuliafo_hit.wav,p06,tuliafo,hit,tu-li-a-fo,tu-lia-fo,tu-li-a-fo, ,0.401851852,-0.10462963,1,0,0,1.6003,text_option_2,,0,143,143,135,1
60be4d9e7f4d10be1c1b2cc7,63f3cfca20052e4ae7554ebf,6453ca72f64e4ae431652940,2023-05-04_17h09.14.070,ga_syllabified_check,2022.2.5,Win32,59.97361161,,,,,,,,,,,,,,./stim/p07_syllable_1_lakakiaisto_hit.wav,p07,lakakiaisto,hit,la-ka-kais-to,la-ka-kiais-to,la-ka-ki-ais-to,la-ka-kia-is-to,-0.00462963,-0.312037037,1,0,0,4.3496,text_option_other,la-ka-kais-to,0,144,144,150,1
60be4d9e7f4d10be1c1b2cc7,63f3cfca20052e4ae7554ebf,6453ca72f64e4ae431652940,2023-05-04_17h09.14.070,ga_syllabified_check,2022.2.5,Win32,59.97361161,,,,,,,,,,,,,,./stim/p04_syllable_1_lakaduaisto_hit.wav,p04,lakaduaisto,hit,la-ka-duais-to,la-ka-duais-to,la-ka-du-ais-to,la-ka-dua-is-to,-0.325,-0.113888889,1,0,0,0.7495,text_option_1,,0,145,145,43,1
60be4d9e7f4d10be1c1b2cc7,63f3cfca20052e4ae7554ebf,6453ca72f64e4ae431652940,2023-05-04_17h09.14.070,ga_syllabified_check,2022.2.5,Win32,59.97361161,,,,,,,,,,,,,,./stim/p06_syllable_1_lakaguaisto_hit.wav,p06,lakaguaisto,hit,la-ka-gu-a-is,la-ka-guais-to,la-ka-gu-ais-to,la-ka-gua-is-to,0.035185185,-0.293518519,1,0,0,6.5665,text_option_other,la-ka-gu-a-is-to,0,146,146,115,1
60be4d9e7f4d10be1c1b2cc7,63f3cfca20052e4ae7554ebf,6453ca72f64e4ae431652940,2023-05-04_17h09.14.070,ga_syllabified_check,2022.2.5,Win32,59.97361161,,,,,,,,,,,,,,./stim/p05_syllable_1_lakaduaisto_hit.wav,p05,lakaduaisto,hit,la-ka-dais-to,la-ka-duais-to,la-ka-du-ais-to,la-ka-dua-is-to,-0.37037037,-0.108333333,1,0,0,8.0312,text_option_1,,0,147,147,77,1
60be4d9e7f4d10be1c1b2cc7,63f3cfca20052e4ae7554ebf,6453ca72f64e4ae431652940,2023-05-04_17h09.14.070,ga_syllabified_check,2022.2.5,Win32,59.97361161,,,,,,,,,,,,,,./stim/p04_syllable_1_rausto_hit.wav,p04,rausto,hit,raus-to,raus-to,ra-us-to, ,-0.380555556,-0.110185185,1,0,0,0.8667,text_option_1,,0,148,148,65,1
60be4d9e7f4d10be1c1b2cc7,63f3cfca20052e4ae7554ebf,6453ca72f64e4ae431652940,2023-05-04_17h09.14.070,ga_syllabified_check,2022.2.5,Win32,59.97361161,,,,,,,,,,,,,,./stim/p05_syllable_1_tuliafo_hit.wav,p05,tuliafo,hit,tu-lai-fo,tu-lia-fo,tu-li-a-fo, ,0.00462963,-0.310185185,1,0,0,3.084,text_option_other,tu-lai-fo,0,149,149,101,1
60be4d9e7f4d10be1c1b2cc7,63f3cfca20052e4ae7554ebf,6453ca72f64e4ae431652940,2023-05-04_17h09.14.070,ga_syllabified_check,2022.2.5,Win32,59.97361161,,,,,,,,,,,,,,./stim/p03_syllable_1_costonhialo_hit.wav,p03,costoñialo,hit,cos-to-nhia-lo,cos-to-ñia-lo,cos-to-ñi-a-lo, ,-0.339814815,-0.106481481,1,0,0,2.446,text_option_1,,0,150,150,1,1
60be4d9e7f4d10be1c1b2cc7,63f3cfca20052e4ae7554ebf,6453ca72f64e4ae431652940,2023-05-04_17h09.14.070,ga_syllabified_check,2022.2.5,Win32,59.97361161,,,,,,,,,,,,,,./stim/p05_syllable_1_lakatuaisto_hit.wav,p05,lakatuaisto,hit,la-ka-tais-to,la-ka-tuais-to,la-ka-tu-ais-to,la-ka-tua-is-to,0.075925926,-0.305555556,1,0,0,2.801,text_option_other,la-ka-tais-to,0,151,151,87,1
60be4d9e7f4d10be1c1b2cc7,63f3cfca20052e4ae7554ebf,6453ca72f64e4ae431652940,2023-05-04_17h09.14.070,ga_syllabified_check,2022.2.5,Win32,59.97361161,,,,,,,,,,,,,,./stim/p03_syllable_1_tuliafo_hit.wav,p03,tuliafo,hit,tu-lia-fo,tu-lia-fo,tu-li-a-fo, ,-0.426851852,-0.10462963,1,0,0,1.2043,text_option_1,,0,152,152,33,1
60be4d9e7f4d10be1c1b2cc7,63f3cfca20052e4ae7554ebf,6453ca72f64e4ae431652940,2023-05-04_17h09.14.070,ga_syllabified_check,2022.2.5,Win32,59.97361161,,,,,,,,,,,,,,./stim/p07_syllable_1_palufauto_hit.wav,p07,palufauto,hit,pa-lu-fau-to,pa-lu-fau-to,pa-lu-fa-u-to, ,-0.385185185,-0.10462963,1,0,0,1.6339,text_option_1,,0,153,153,162,1
60be4d9e7f4d10be1c1b2cc7,63f3cfca20052e4ae7554ebf,6453ca72f64e4ae431652940,2023-05-04_17h09.14.070,ga_syllabified_check,2022.2.5,Win32,59.97361161,,,,,,,,,,,,,,./stim/p05_syllable_1_lakabiaisto_hit.wav,p05,lakabiaisto,hit,la-ka-bi-ais-to,la-ka-biais-to,la-ka-bi-ais-to,la-ka-bia-is-to,0.437037037,-0.09537037,1,0,0,2.8704,text_option_2,,0,154,154,74,1
60be4d9e7f4d10be1c1b2cc7,63f3cfca20052e4ae7554ebf,6453ca72f64e4ae431652940,2023-05-04_17h09.14.070,ga_syllabified_check,2022.2.5,Win32,59.97361161,,,,,,,,,,,,,,./stim/p04_syllable_1_palufauro_hit.wav,p04,palufauro,hit,pa-lu-fau-ro,pa-lu-fau-ro,pa-lu-fa-u-ro, ,-0.361111111,-0.109259259,1,0,0,2.0175,text_option_1,,0,155,155,59,1
60be4d9e7f4d10be1c1b2cc7,63f3cfca20052e4ae7554ebf,6453ca72f64e4ae431652940,2023-05-04_17h09.14.070,ga_syllabified_check,2022.2.5,Win32,59.97361161,,,,,,,,,,,,,,./stim/p03_syllable_1_lliape_hit.wav,p03,lliape,hit,llia,llia-pe,lli-a-pe, ,-0.375,-0.102777778,1,0,0,0.4498,text_option_1,,0,156,156,20,1
60be4d9e7f4d10be1c1b2cc7,63f3cfca20052e4ae7554ebf,6453ca72f64e4ae431652940,2023-05-04_17h09.14.070,ga_syllabified_check,2022.2.5,Win32,59.97361161,,,,,,,,,,,,,,./stim/p07_syllable_1_pachialo_hit.wav,p07,pachialo,hit,pa-cha-lo,pa-chia-lo,pa-chi-a-lo, ,-0.018518519,-0.303703704,1,0,0,5.1999,text_option_other,pa-cha-lo,0,157,157,160,1
60be4d9e7f4d10be1c1b2cc7,63f3cfca20052e4ae7554ebf,6453ca72f64e4ae431652940,2023-05-04_17h09.14.070,ga_syllabified_check,2022.2.5,Win32,59.97361161,,,,,,,,,,,,,,./stim/p06_syllable_1_falufaisto_hit.wav,p06,falufaisto,hit,fa-lu-fa-is-to,fa-lu-fais-to,fa-lu-fa-is-to, ,0.392592593,-0.096296296,1,0,0,3.021,text_option_2,,0,158,158,105,1
60be4d9e7f4d10be1c1b2cc7,63f3cfca20052e4ae7554ebf,6453ca72f64e4ae431652940,2023-05-04_17h09.14.070,ga_syllabified_check,2022.2.5,Win32,59.97361161,,,,,,,,,,,,,,./stim/p07_syllable_1_tuliafo_hit.wav,p07,tuliafo,hit,tu-lia-fo,tu-lia-fo,tu-li-a-fo, ,-0.393518519,-0.108333333,1,0,0,0.7634,text_option_1,,0,159,159,169,1
60be4d9e7f4d10be1c1b2cc7,63f3cfca20052e4ae7554ebf,6453ca72f64e4ae431652940,2023-05-04_17h09.14.070,ga_syllabified_check,2022.2.5,Win32,59.97361161,,,,,,,,,,,,,,./stim/p08_syllable_1_lakaduaisto_hit.wav,p08,lakaduaisto,hit,la-ka-du-ais-to,la-ka-duais-to,la-ka-du-ais-to,la-ka-dua-is-to,0.444444444,-0.097222222,1,0,0,3.1457,text_option_2,,0,160,160,179,1
60be4d9e7f4d10be1c1b2cc7,63f3cfca20052e4ae7554ebf,6453ca72f64e4ae431652940,2023-05-04_17h09.14.070,ga_syllabified_check,2022.2.5,Win32,59.97361161,,,,,,,,,,,,,,./stim/p05_syllable_1_lakagiaisto_hit.wav,p05,lakagiaisto,hit,la-ka-ki-ais-to,la-ka-giais-to,la-ka-gi-ais-to,la-ka-gia-is-to,-0.322222222,-0.113888889,1,0,0,16.1833,text_option_1,,0,161,161,80,1
60be4d9e7f4d10be1c1b2cc7,63f3cfca20052e4ae7554ebf,6453ca72f64e4ae431652940,2023-05-04_17h09.14.070,ga_syllabified_check,2022.2.5,Win32,59.97361161,,,,,,,,,,,,,,./stim/p06_syllable_1_rausto_hit.wav,p06,rausto,hit,ra-us-to,raus-to,ra-us-to, ,0.406481481,-0.106481481,1,0,0,1.9299,text_option_2,,0,162,162,133,1
60be4d9e7f4d10be1c1b2cc7,63f3cfca20052e4ae7554ebf,6453ca72f64e4ae431652940,2023-05-04_17h09.14.070,ga_syllabified_check,2022.2.5,Win32,59.97361161,,,,,,,,,,,,,,./stim/p06_syllable_1_palutrauco_hit.wav,p06,palutrauco,hit,pa-lu-tra-u-co,pa-lu-trau-co,pa-lu-tra-u-co, ,0.487962963,-0.082407407,1,0,0,2.4837,text_option_2,,0,163,163,131,1
60be4d9e7f4d10be1c1b2cc7,63f3cfca20052e4ae7554ebf,6453ca72f64e4ae431652940,2023-05-04_17h09.14.070,ga_syllabified_check,2022.2.5,Win32,59.97361161,,,,,,,,,,,,,,./stim/p03_syllable_1_lakaguaisto_hit.wav,p03,lakaguaisto,hit,la-ka-guais-to,la-ka-guais-to,la-ka-gu-ais-to,la-ka-gua-is-to,-0.317592593,-0.108333333,1,0,0,1.5624,text_option_1,,0,164,164,13,1
60be4d9e7f4d10be1c1b2cc7,63f3cfca20052e4ae7554ebf,6453ca72f64e4ae431652940,2023-05-04_17h09.14.070,ga_syllabified_check,2022.2.5,Win32,59.97361161,,,,,,,,,,,,,,./stim/p03_syllable_1_lakagiaisto_hit.wav,p03,lakagiaisto,hit,la-ka-giais-to,la-ka-giais-to,la-ka-gi-ais-to,la-ka-gia-is-to,-0.35,-0.106481481,1,0,0,1.6003,text_option_1,,0,165,165,12,1
60be4d9e7f4d10be1c1b2cc7,63f3cfca20052e4ae7554ebf,6453ca72f64e4ae431652940,2023-05-04_17h09.14.070,ga_syllabified_check,2022.2.5,Win32,59.97361161,,,,,,,,,,,,,,./stim/p07_syllable_1_lakafuaisto_hit.wav,p07,lakafuaisto,hit,la-ka-fuais-to,la-ka-fuais-to,la-ka-fu-ais-to,la-ka-fua-is-to,-0.374074074,-0.105555556,1,0,0,2.0798,text_option_1,,0,166,166,147,1
60be4d9e7f4d10be1c1b2cc7,63f3cfca20052e4ae7554ebf,6453ca72f64e4ae431652940,2023-05-04_17h09.14.070,ga_syllabified_check,2022.2.5,Win32,59.97361161,,,,,,,,,,,,,,./stim/p04_syllable_1_lakatuaisto_hit.wav,p04,lakatuaisto,hit,la-ka-kuais-to,la-ka-tuais-to,la-ka-tu-ais-to,la-ka-tua-is-to,-0.348148148,-0.106481481,1,0,0,0.8507,text_option_1,,0,167,167,53,1
60be4d9e7f4d10be1c1b2cc7,63f3cfca20052e4ae7554ebf,6453ca72f64e4ae431652940,2023-05-04_17h09.14.070,ga_syllabified_check,2022.2.5,Win32,59.97361161,,,,,,,,,,,,,,./stim/p07_syllable_1_lakapuaisto_hit.wav,p07,lakapuaisto,hit,la-ka-puais-to,la-ka-puais-to,la-ka-pu-ais-to,la-ka-pua-is-to,-0.365740741,-0.103703704,1,0,0,2.88,text_option_1,,0,168,168,153,1
60be4d9e7f4d10be1c1b2cc7,63f3cfca20052e4ae7554ebf,6453ca72f64e4ae431652940,2023-05-04_17h09.14.070,ga_syllabified_check,2022.2.5,Win32,59.97361161,,,,,,,,,,,,,,./stim/p03_syllable_1_payielo_hit.wav,p03,payielo,hit,pa-yie-lo,pa-yie-lo,pa-yi-e-lo, ,-0.371296296,-0.101851852,1,0,0,0.6997,text_option_1,,0,169,169,30,1
60be4d9e7f4d10be1c1b2cc7,63f3cfca20052e4ae7554ebf,6453ca72f64e4ae431652940,2023-05-04_17h09.14.070,ga_syllabified_check,2022.2.5,Win32,59.97361161,,,,,,,,,,,,,,./stim/p07_syllable_1_lakagiaisto_hit.wav,p07,lakagiaisto,hit,la-ka-gais-to,la-ka-giais-to,la-ka-gi-ais-to,la-ka-gia-is-to,0.003703704,-0.301851852,1,0,0,3.8038,text_option_other,la-ka-gais-to,0,170,170,148,1
60be4d9e7f4d10be1c1b2cc7,63f3cfca20052e4ae7554ebf,6453ca72f64e4ae431652940,2023-05-04_17h09.14.070,ga_syllabified_check,2022.2.5,Win32,59.97361161,,,,,,,,,,,,,,./stim/p04_syllable_1_lakapiaisto_hit.wav,p04,lakapiaisto,hit,la-ka-piais-to,la-ka-piais-to,la-ka-pi-ais-to,la-ka-pia-is-to,-0.373148148,-0.109259259,1,0,0,2.5834,text_option_1,,0,171,171,50,1
60be4d9e7f4d10be1c1b2cc7,63f3cfca20052e4ae7554ebf,6453ca72f64e4ae431652940,2023-05-04_17h09.14.070,ga_syllabified_check,2022.2.5,Win32,59.97361161,,,,,,,,,,,,,,./stim/p08_syllable_1_lakadiaisto_hit.wav,p08,lakadiaisto,hit,la-ka-di-jas-to,la-ka-diais-to,la-ka-di-ais-to,la-ka-dia-is-to,0.462037037,-0.105555556,1,0,0,15.6338,text_option_2,,0,172,172,178,1
60be4d9e7f4d10be1c1b2cc7,63f3cfca20052e4ae7554ebf,6453ca72f64e4ae431652940,2023-05-04_17h09.14.070,ga_syllabified_check,2022.2.5,Win32,59.97361161,,,,,,,,,,,,,,./stim/p03_syllable_1_lakadiaisto_hit.wav,p03,lakadiaisto,hit,la-ka-diais-to,la-ka-diais-to,la-ka-di-ais-to,la-ka-dia-is-to,-0.343518519,-0.1,1,0,0,3.7831,text_option_1,,0,173,173,8,1
60be4d9e7f4d10be1c1b2cc7,63f3cfca20052e4ae7554ebf,6453ca72f64e4ae431652940,2023-05-04_17h09.14.070,ga_syllabified_check,2022.2.5,Win32,59.97361161,,,,,,,,,,,,,,./stim/p06_syllable_1_palufauto_hit.wav,p06,palufauto,hit,pa-lu-fau-to,pa-lu-fau-to,pa-lu-fa-u-to, ,-0.356481481,-0.110185185,1,0,0,2.8502,text_option_1,,0,174,174,128,1
60be4d9e7f4d10be1c1b2cc7,63f3cfca20052e4ae7554ebf,6453ca72f64e4ae431652940,2023-05-04_17h09.14.070,ga_syllabified_check,2022.2.5,Win32,59.97361161,,,,,,,,,,,,,,./stim/p06_syllable_1_lakagiaisto_hit.wav,p06,lakagiaisto,hit,la-ka-gia-is-to,la-ka-giais-to,la-ka-gi-ais-to,la-ka-gia-is-to,0.001851852,-0.101851852,1,0,0,3.8123,text_option_3,,0,175,175,114,1
60be4d9e7f4d10be1c1b2cc7,63f3cfca20052e4ae7554ebf,6453ca72f64e4ae431652940,2023-05-04_17h09.14.070,ga_syllabified_check,2022.2.5,Win32,59.97361161,,,,,,,,,,,,,,./stim/p06_syllable_1_lakakiaisto_hit.wav,p06,lakakiaisto,hit,la-ka-kia-is-to,la-ka-kiais-to,la-ka-ki-ais-to,la-ka-kia-is-to,-0.021296296,-0.087962963,1,0,0,3.8641,text_option_3,,0,176,176,116,1
60be4d9e7f4d10be1c1b2cc7,63f3cfca20052e4ae7554ebf,6453ca72f64e4ae431652940,2023-05-04_17h09.14.070,ga_syllabified_check,2022.2.5,Win32,59.97361161,,,,,,,,,,,,,,./stim/p06_syllable_1_manhiala_hit.wav,p06,mañiala,hit,ma-nhi-a-la,ma-ñia-la,ma-ñi-a-la, ,0.352777778,-0.100925926,1,0,0,1.6334,text_option_2,,0,177,177,123,1
60be4d9e7f4d10be1c1b2cc7,63f3cfca20052e4ae7554ebf,6453ca72f64e4ae431652940,2023-05-04_17h09.14.070,ga_syllabified_check,2022.2.5,Win32,59.97361161,,,,,,,,,,,,,,./stim/p03_syllable_1_lakakiaisto_hit.wav,p03,lakakiaisto,hit,la-ka-kiais-to,la-ka-kiais-to,la-ka-ki-ais-to,la-ka-kia-is-to,-0.366666667,-0.10462963,1,0,0,1.5837,text_option_1,,0,178,178,14,1
60be4d9e7f4d10be1c1b2cc7,63f3cfca20052e4ae7554ebf,6453ca72f64e4ae431652940,2023-05-04_17h09.14.070,ga_syllabified_check,2022.2.5,Win32,59.97361161,,,,,,,,,,,,,,./stim/p08_syllable_1_lakakuaisto_hit.wav,p08,lakakuaisto,hit,la-ka-ku-ais-to,la-ka-kuais-to,la-ka-ku-ais-to,la-ka-kua-is-to,0.417592593,-0.107407407,1,0,0,3.9001,text_option_2,,0,179,179,185,1
60be4d9e7f4d10be1c1b2cc7,63f3cfca20052e4ae7554ebf,6453ca72f64e4ae431652940,2023-05-04_17h09.14.070,ga_syllabified_check,2022.2.5,Win32,59.97361161,,,,,,,,,,,,,,./stim/p06_syllable_1_lakapuaisto_hit.wav,p06,lakapuaisto,hit,la-ka-pu-a-is,la-ka-puais-to,la-ka-pu-ais-to,la-ka-pua-is-to,-0.000925926,-0.307407407,1,0,0,7.8861,text_option_other,la-ka-pu-a-is-to,0,180,180,119,1
60be4d9e7f4d10be1c1b2cc7,63f3cfca20052e4ae7554ebf,6453ca72f64e4ae431652940,2023-05-04_17h09.14.070,ga_syllabified_check,2022.2.5,Win32,59.97361161,,,,,,,,,,,,,,./stim/p03_syllable_1_nhiape_hit.wav,p03,ñiape,hit,nhia-pe,ñia-pe,ñi-a-pe, ,-0.414814815,-0.103703704,1,0,0,0.4167,text_option_1,,0,181,181,23,1
60be4d9e7f4d10be1c1b2cc7,63f3cfca20052e4ae7554ebf,6453ca72f64e4ae431652940,2023-05-04_17h09.14.070,ga_syllabified_check,2022.2.5,Win32,59.97361161,,,,,,,,,,,,,,./stim/p06_syllable_1_lakabiaisto_hit.wav,p06,lakabiaisto,hit,la-ka-bia-is-to,la-ka-biais-to,la-ka-bi-ais-to,la-ka-bia-is-to,-0.003703704,-0.109259259,1,0,0,3.9001,text_option_3,,0,182,182,108,1
60be4d9e7f4d10be1c1b2cc7,63f3cfca20052e4ae7554ebf,6453ca72f64e4ae431652940,2023-05-04_17h09.14.070,ga_syllabified_check,2022.2.5,Win32,59.97361161,,,,,,,,,,,,,,./stim/p03_syllable_1_ruyiola_hit.wav,p03,ruyiola,hit,ru-yio-la,ru-yio-la,ru-yi-o-la, ,-0.349074074,-0.101851852,1,0,0,0.6004,text_option_1,,0,183,183,32,1
60be4d9e7f4d10be1c1b2cc7,63f3cfca20052e4ae7554ebf,6453ca72f64e4ae431652940,2023-05-04_17h09.14.070,ga_syllabified_check,2022.2.5,Win32,59.97361161,,,,,,,,,,,,,,./stim/p03_syllable_1_rausto_hit.wav,p03,rausto,hit,raus-to,raus-to,ra-us-to, ,-0.381481481,-0.111111111,1,0,0,3.934,text_option_1,,0,184,184,31,1
60be4d9e7f4d10be1c1b2cc7,63f3cfca20052e4ae7554ebf,6453ca72f64e4ae431652940,2023-05-04_17h09.14.070,ga_syllabified_check,2022.2.5,Win32,59.97361161,,,,,,,,,,,,,,./stim/p05_syllable_1_palutrauco_hit.wav,p05,palutrauco,hit,pa-lu-trai-co,pa-lu-trau-co,pa-lu-tra-u-co, ,0.035185185,-0.291666667,1,0,0,3.6527,text_option_other,pa-lu-trae-co,0,185,185,97,1
60be4d9e7f4d10be1c1b2cc7,63f3cfca20052e4ae7554ebf,6453ca72f64e4ae431652940,2023-05-04_17h09.14.070,ga_syllabified_check,2022.2.5,Win32,59.97361161,,,,,,,,,,,,,,./stim/p08_syllable_1_lakabiaisto_hit.wav,p08,lakabiaisto,hit,la-ka-bi-as-to,la-ka-biais-to,la-ka-bi-ais-to,la-ka-bia-is-to,0.018518519,-0.306481481,1,0,0,5.3336,text_option_other,la-ka-bi-as-to,0,186,186,176,1
60be4d9e7f4d10be1c1b2cc7,63f3cfca20052e4ae7554ebf,6453ca72f64e4ae431652940,2023-05-04_17h09.14.070,ga_syllabified_check,2022.2.5,Win32,59.97361161,,,,,,,,,,,,,,./stim/p04_syllable_1_falutraigo_hit.wav,p04,falutraigo,hit,fa-lu-trai-go,fa-lu-trai-go,fa-lu-tra-i-go, ,-0.35,-0.100925926,1,0,0,0.8337,text_option_1,,0,187,187,38,1
60be4d9e7f4d10be1c1b2cc7,63f3cfca20052e4ae7554ebf,6453ca72f64e4ae431652940,2023-05-04_17h09.14.070,ga_syllabified_check,2022.2.5,Win32,59.97361161,,,,,,,,,,,,,,./stim/p04_syllable_1_palutrauco_hit.wav,p04,palutrauco,hit,pa-lu-trau-co,pa-lu-trau-co,pa-lu-tra-u-co, ,-0.356481481,-0.114814815,1,0,0,2.2823,text_option_1,,0,188,188,63,1
60be4d9e7f4d10be1c1b2cc7,63f3cfca20052e4ae7554ebf,6453ca72f64e4ae431652940,2023-05-04_17h09.14.070,ga_syllabified_check,2022.2.5,Win32,59.97361161,,,,,,,,,,,,,,./stim/p03_syllable_1_manhiala_hit.wav,p03,mañiala,hit,ma-nhia-la,ma-ñia-la,ma-ñi-a-la, ,-0.398148148,-0.109259259,1,0,0,0.7016,text_option_1,,0,189,189,21,1
60be4d9e7f4d10be1c1b2cc7,63f3cfca20052e4ae7554ebf,6453ca72f64e4ae431652940,2023-05-04_17h09.14.070,ga_syllabified_check,2022.2.5,Win32,59.97361161,,,,,,,,,,,,,,./stim/p07_syllable_1_flauro_hit.wav,p07,flauro,hit,flau-ro,flau-ro,fla-u-ro, ,-0.389814815,-0.110185185,1,0,0,0.9683,text_option_1,,0,190,190,141,1
60be4d9e7f4d10be1c1b2cc7,63f3cfca20052e4ae7554ebf,6453ca72f64e4ae431652940,2023-05-04_17h09.14.070,ga_syllabified_check,2022.2.5,Win32,59.97361161,,,,,,,,,,,,,,./stim/p03_syllable_1_mebochiana_hit.wav,p03,mebochiana,hit,me-bo-chia-na,me-bo-chia-na,me-bo-chi-a-na, ,-0.376851852,-0.112962963,1,0,0,1.5987,text_option_1,,0,191,191,22,1
60be4d9e7f4d10be1c1b2cc7,63f3cfca20052e4ae7554ebf,6453ca72f64e4ae431652940,2023-05-04_17h09.14.070,ga_syllabified_check,2022.2.5,Win32,59.97361161,,,,,,,,,,,,,,./stim/p07_syllable_1_lakakuaisto_hit.wav,p07,lakakuaisto,hit,la-ka-kuais-to,la-ka-kuais-to,la-ka-ku-ais-to,la-ka-kua-is-to,-0.427777778,-0.084259259,1,0,0,2.95,text_option_1,,0,192,192,151,1
60be4d9e7f4d10be1c1b2cc7,63f3cfca20052e4ae7554ebf,6453ca72f64e4ae431652940,2023-05-04_17h09.14.070,ga_syllabified_check,2022.2.5,Win32,59.97361161,,,,,,,,,,,,,,./stim/p05_syllable_1_lakabuaisto_hit.wav,p05,lakabuaisto,hit,la-ka-buais-to,la-ka-buais-to,la-ka-bu-ais-to,la-ka-bua-is-to,-0.386111111,-0.105555556,1,0,0,1.7339,text_option_1,,0,193,193,75,1
60be4d9e7f4d10be1c1b2cc7,63f3cfca20052e4ae7554ebf,6453ca72f64e4ae431652940,2023-05-04_17h09.14.070,ga_syllabified_check,2022.2.5,Win32,59.97361161,,,,,,,,,,,,,,./stim/p05_syllable_1_palufauto_hit.wav,p05,palufauto,hit,pa-lu-fau-to,pa-lu-fau-to,pa-lu-fa-u-to, ,-0.391666667,-0.108333333,1,0,0,3.2875,text_option_1,,0,194,194,94,1
60be4d9e7f4d10be1c1b2cc7,63f3cfca20052e4ae7554ebf,6453ca72f64e4ae431652940,2023-05-04_17h09.14.070,ga_syllabified_check,2022.2.5,Win32,59.97361161,,,,,,,,,,,,,,./stim/p05_syllable_1_ruyiola_hit.wav,p05,ruyiola,hit,ru-yio-la,ru-yio-la,ru-yi-o-la, ,-0.391666667,-0.110185185,1,0,0,0.6153,text_option_1,,0,195,195,100,1
60be4d9e7f4d10be1c1b2cc7,63f3cfca20052e4ae7554ebf,6453ca72f64e4ae431652940,2023-05-04_17h09.14.070,ga_syllabified_check,2022.2.5,Win32,59.97361161,,,,,,,,,,,,,,./stim/p08_syllable_1_lakatiaisto_hit.wav,p08,lakatiaisto,hit,la-ka-ti-as-to,la-ka-tiais-to,la-ka-ti-ais-to,la-ka-tia-is-to,0.003703704,-0.302777778,1,0,0,7.0155,text_option_other,la-ka-ti-as-to,0,196,196,188,1
60be4d9e7f4d10be1c1b2cc7,63f3cfca20052e4ae7554ebf,6453ca72f64e4ae431652940,2023-05-04_17h09.14.070,ga_syllabified_check,2022.2.5,Win32,59.97361161,,,,,,,,,,,,,,./stim/p05_syllable_1_flauro_hit.wav,p05,flauro,hit,fa-lu-ro,flau-ro,fla-u-ro, ,-0.012037037,-0.291666667,1,0,0,1.5005,text_option_other,fa-lu-ro,0,197,197,73,1
60be4d9e7f4d10be1c1b2cc7,63f3cfca20052e4ae7554ebf,6453ca72f64e4ae431652940,2023-05-04_17h09.14.070,ga_syllabified_check,2022.2.5,Win32,59.97361161,,,,,,,,,,,,,,./stim/p06_syllable_1_ruyiola_hit.wav,p06,ruyiola,hit,ru-yi-o-la,ru-yio-la,ru-yi-o-la, ,0.40462963,-0.1,1,0,0,1.7007,text_option_2,,0,198,198,134,1
60be4d9e7f4d10be1c1b2cc7,63f3cfca20052e4ae7554ebf,6453ca72f64e4ae431652940,2023-05-04_17h09.14.070,ga_syllabified_check,2022.2.5,Win32,59.97361161,,,,,,,,,,,,,,./stim/p05_syllable_1_palumaisto_hit.wav,p05,palumaisto,hit,pa-lu-mais-to,pa-lu-mais-to,pa-lu-ma-is-to, ,-0.314814815,-0.091666667,1,0,0,1.2174,text_option_1,,0,199,199,96,1
60be4d9e7f4d10be1c1b2cc7,63f3cfca20052e4ae7554ebf,6453ca72f64e4ae431652940,2023-05-04_17h09.14.070,ga_syllabified_check,2022.2.5,Win32,59.97361161,,,,,,,,,,,,,,./stim/p07_syllable_1_lakaduaisto_hit.wav,p07,lakaduaisto,hit,la-ka-duais-to,la-ka-duais-to,la-ka-du-ais-to,la-ka-dua-is-to,-0.342592593,-0.109259259,1,0,0,1.7666,text_option_1,,0,200,200,145,1
60be4d9e7f4d10be1c1b2cc7,63f3cfca20052e4ae7554ebf,6453ca72f64e4ae431652940,2023-05-04_17h09.14.070,ga_syllabified_check,2022.2.5,Win32,59.97361161,,,,,,,,,,,,,,./stim/p06_syllable_1_pachialo_hit.wav,p06,pachialo,hit,pa-shi-a-lo,pa-chia-lo,pa-chi-a-lo, ,0.419444444,-0.108333333,1,0,0,1.4505,text_option_2,,0,201,201,126,1
60be4d9e7f4d10be1c1b2cc7,63f3cfca20052e4ae7554ebf,6453ca72f64e4ae431652940,2023-05-04_17h09.14.070,ga_syllabified_check,2022.2.5,Win32,59.97361161,,,,,,,,,,,,,,./stim/p08_syllable_1_flauro_hit.wav,p08,flauro,hit,flau-ro,flau-ro,fla-u-ro, ,-0.371296296,-0.103703704,1,0,0,1.6182,text_option_1,,0,202,202,175,1
60be4d9e7f4d10be1c1b2cc7,63f3cfca20052e4ae7554ebf,6453ca72f64e4ae431652940,2023-05-04_17h09.14.070,ga_syllabified_check,2022.2.5,Win32,59.97361161,,,,,,,,,,,,,,./stim/p05_syllable_1_chiaba_hit.wav,p05,chiaba,hit,chia-ba,chia-ba,chi-a-ba, ,0.061111111,-0.308333333,1,0,0,3.4336,text_option_other,chai-ba,0,203,203,68,1
60be4d9e7f4d10be1c1b2cc7,63f3cfca20052e4ae7554ebf,6453ca72f64e4ae431652940,2023-05-04_17h09.14.070,ga_syllabified_check,2022.2.5,Win32,59.97361161,,,,,,,,,,,,,,,,,,,,,,,,,,,,,,,,,,
