participant,study,session,date,expName,psychopyVersion,OS,frameRate,mouse_practice.x,mouse_practice.y,mouse_practice.leftButton,mouse_practice.midButton,mouse_practice.rightButton,mouse_practice.time,mouse_practice.clicked_name,textbox_followup_practice.text,trials_practice.thisRepN,trials_practice.thisTrialN,trials_practice.thisN,trials_practice.thisIndex,trials_practice.ran,file_path,id,item,status,response,op1,op2,op3,mouse.x,mouse.y,mouse.leftButton,mouse.midButton,mouse.rightButton,mouse.time,mouse.clicked_name,textbox_followup.text,trials.thisRepN,trials.thisTrialN,trials.thisN,trials.thisIndex,trials.ran
60df30c4e945892dc94a626c,63f3cfca20052e4ae7554ebf,6453ccd7830171360d046efe,2023-05-04_17h25.26.043,ga_syllabified_check,2022.2.5,Win32,75.05253678,,,,,,,,,,,,,,,,,,,,,,,,,,,,,,,,,,
60df30c4e945892dc94a626c,63f3cfca20052e4ae7554ebf,6453ccd7830171360d046efe,2023-05-04_17h25.26.043,ga_syllabified_check,2022.2.5,Win32,75.05253678,-0.391794872,-0.097948718,1,0,0,4.5343,text_option_1_practice,,0,0,0,0,1,./stim/p03_syllable_1_liamo_hit.wav,p03,liamo,hit,lia-mo,lia-mo,li-a-mo, ,,,,,,,,,,,,,
60df30c4e945892dc94a626c,63f3cfca20052e4ae7554ebf,6453ccd7830171360d046efe,2023-05-04_17h25.26.043,ga_syllabified_check,2022.2.5,Win32,75.05253678,-0.41025641,-0.106153846,1,0,0,0.8138,text_option_1_practice,,0,1,1,1,1,./stim/p05_syllable_1_matio_hit.wav,p05,matio,hit,ma-tio,ma-tio,ma-ti-o, ,,,,,,,,,,,,,
60df30c4e945892dc94a626c,63f3cfca20052e4ae7554ebf,6453ccd7830171360d046efe,2023-05-04_17h25.26.043,ga_syllabified_check,2022.2.5,Win32,75.05253678,-0.411282051,-0.111282051,1,0,0,2.1713,text_option_1_practice,,0,2,2,2,1,./stim/p08_syllable_1_liamo_hit.wav,p08,liamo,hit,ja-mo,lia-mo,li-a-mo, ,,,,,,,,,,,,,
60df30c4e945892dc94a626c,63f3cfca20052e4ae7554ebf,6453ccd7830171360d046efe,2023-05-04_17h25.26.043,ga_syllabified_check,2022.2.5,Win32,75.05253678,,,,,,,,,,,,,,,,,,,,,,,,,,,,,,,,,,
60df30c4e945892dc94a626c,63f3cfca20052e4ae7554ebf,6453ccd7830171360d046efe,2023-05-04_17h25.26.043,ga_syllabified_check,2022.2.5,Win32,75.05253678,,,,,,,,,,,,,,./stim/p08_syllable_1_lakapuaisto_hit.wav,p08,lakapuaisto,hit,la-ka-pu-as-to,la-ka-puais-to,la-ka-pu-ais-to,la-ka-pua-is-to,0.456410256,-0.11025641,1,0,0,6.4429,text_option_2,,0,0,0,187,1
60df30c4e945892dc94a626c,63f3cfca20052e4ae7554ebf,6453ccd7830171360d046efe,2023-05-04_17h25.26.043,ga_syllabified_check,2022.2.5,Win32,75.05253678,,,,,,,,,,,,,,./stim/p05_syllable_1_lakagiaisto_hit.wav,p05,lakagiaisto,hit,la-ka-ki-ais-to,la-ka-giais-to,la-ka-gi-ais-to,la-ka-gia-is-to,-0.350769231,-0.117435897,1,0,0,2.4811,text_option_1,,0,1,1,80,1
60df30c4e945892dc94a626c,63f3cfca20052e4ae7554ebf,6453ccd7830171360d046efe,2023-05-04_17h25.26.043,ga_syllabified_check,2022.2.5,Win32,75.05253678,,,,,,,,,,,,,,./stim/p08_syllable_1_lakatiaisto_hit.wav,p08,lakatiaisto,hit,la-ka-ti-as-to,la-ka-tiais-to,la-ka-ti-ais-to,la-ka-tia-is-to,-0.373333333,-0.111282051,1,0,0,3.1212,text_option_1,,0,2,2,188,1
60df30c4e945892dc94a626c,63f3cfca20052e4ae7554ebf,6453ccd7830171360d046efe,2023-05-04_17h25.26.043,ga_syllabified_check,2022.2.5,Win32,75.05253678,,,,,,,,,,,,,,./stim/p04_syllable_1_lliape_hit.wav,p04,lliape,hit,lia-pe,llia-pe,lli-a-pe, ,-0.363076923,-0.107179487,1,0,0,1.2141,text_option_1,,0,3,3,54,1
60df30c4e945892dc94a626c,63f3cfca20052e4ae7554ebf,6453ccd7830171360d046efe,2023-05-04_17h25.26.043,ga_syllabified_check,2022.2.5,Win32,75.05253678,,,,,,,,,,,,,,./stim/p03_syllable_1_lakabuaisto_hit.wav,p03,lakabuaisto,hit,la-ka-buais-to,la-ka-buais-to,la-ka-bu-ais-to,la-ka-bua-is-to,-0.387692308,-0.105128205,1,0,0,1.7341,text_option_1,,0,4,4,7,1
60df30c4e945892dc94a626c,63f3cfca20052e4ae7554ebf,6453ccd7830171360d046efe,2023-05-04_17h25.26.043,ga_syllabified_check,2022.2.5,Win32,75.05253678,,,,,,,,,,,,,,./stim/p07_syllable_1_palufauro_hit.wav,p07,palufauro,hit,pa-lu-fau-ro,pa-lu-fau-ro,pa-lu-fa-u-ro, ,-0.387692308,-0.104102564,1,0,0,1.6944,text_option_1,,0,5,5,161,1
60df30c4e945892dc94a626c,63f3cfca20052e4ae7554ebf,6453ccd7830171360d046efe,2023-05-04_17h25.26.043,ga_syllabified_check,2022.2.5,Win32,75.05253678,,,,,,,,,,,,,,./stim/p07_syllable_1_lakaguaisto_hit.wav,p07,lakaguaisto,hit,la-ka-guais-to,la-ka-guais-to,la-ka-gu-ais-to,la-ka-gua-is-to,-0.339487179,-0.116410256,1,0,0,1.8408,text_option_1,,0,6,6,149,1
60df30c4e945892dc94a626c,63f3cfca20052e4ae7554ebf,6453ccd7830171360d046efe,2023-05-04_17h25.26.043,ga_syllabified_check,2022.2.5,Win32,75.05253678,,,,,,,,,,,,,,./stim/p03_syllable_1_costonhialo_hit.wav,p03,costoñialo,hit,cos-to-nhia-lo,cos-to-ñia-lo,cos-to-ñi-a-lo, ,-0.34974359,-0.113333333,1,0,0,1.9342,text_option_1,,0,7,7,1,1
60df30c4e945892dc94a626c,63f3cfca20052e4ae7554ebf,6453ccd7830171360d046efe,2023-05-04_17h25.26.043,ga_syllabified_check,2022.2.5,Win32,75.05253678,,,,,,,,,,,,,,./stim/p08_syllable_1_flauro_hit.wav,p08,flauro,hit,flau-ro,flau-ro,fla-u-ro, ,-0.34974359,-0.113333333,1,0,0,1.0272,text_option_1,,0,8,8,175,1
60df30c4e945892dc94a626c,63f3cfca20052e4ae7554ebf,6453ccd7830171360d046efe,2023-05-04_17h25.26.043,ga_syllabified_check,2022.2.5,Win32,75.05253678,,,,,,,,,,,,,,./stim/p06_syllable_1_lakatiaisto_hit.wav,p06,lakatiaisto,hit,la-ka-pia-is-to,la-ka-tiais-to,la-ka-ti-ais-to,la-ka-tia-is-to,0.065641026,-0.109230769,1,0,0,4.2149,text_option_3,,0,9,9,120,1
60df30c4e945892dc94a626c,63f3cfca20052e4ae7554ebf,6453ccd7830171360d046efe,2023-05-04_17h25.26.043,ga_syllabified_check,2022.2.5,Win32,75.05253678,,,,,,,,,,,,,,./stim/p05_syllable_1_lakafuaisto_hit.wav,p05,lakafuaisto,hit,la-ka-fais-to,la-ka-fuais-to,la-ka-fu-ais-to,la-ka-fua-is-to,0.06974359,-0.305128205,1,0,0,7.9297,text_option_other,Bien,0,10,10,79,1
60df30c4e945892dc94a626c,63f3cfca20052e4ae7554ebf,6453ccd7830171360d046efe,2023-05-04_17h25.26.043,ga_syllabified_check,2022.2.5,Win32,75.05253678,,,,,,,,,,,,,,./stim/p04_syllable_1_lakakiaisto_hit.wav,p04,lakakiaisto,hit,la-ka-kiais-to,la-ka-kiais-to,la-ka-ki-ais-to,la-ka-kia-is-to,-0.323076923,-0.106153846,1,0,0,1.5336,text_option_1,,0,11,11,48,1
60df30c4e945892dc94a626c,63f3cfca20052e4ae7554ebf,6453ccd7830171360d046efe,2023-05-04_17h25.26.043,ga_syllabified_check,2022.2.5,Win32,75.05253678,,,,,,,,,,,,,,./stim/p06_syllable_1_faluduako_hit.wav,p06,faluduako,hit,fa-lu-dua-ko,fa-lu-dua-ko,fa-lu-du-a-ko, ,-0.343589744,-0.109230769,1,0,0,4.1215,text_option_1,,0,12,12,104,1
60df30c4e945892dc94a626c,63f3cfca20052e4ae7554ebf,6453ccd7830171360d046efe,2023-05-04_17h25.26.043,ga_syllabified_check,2022.2.5,Win32,75.05253678,,,,,,,,,,,,,,./stim/p07_syllable_1_rausto_hit.wav,p07,rausto,hit,raus-to,raus-to,ra-us-to, ,-0.357948718,-0.11025641,1,0,0,1.6807,text_option_1,,0,13,13,167,1
60df30c4e945892dc94a626c,63f3cfca20052e4ae7554ebf,6453ccd7830171360d046efe,2023-05-04_17h25.26.043,ga_syllabified_check,2022.2.5,Win32,75.05253678,,,,,,,,,,,,,,./stim/p08_syllable_1_lakabuaisto_hit.wav,p08,lakabuaisto,hit,la-ka-bu-ais-to,la-ka-buais-to,la-ka-bu-ais-to,la-ka-bua-is-to,0.451282051,-0.112307692,1,0,0,5.9265,text_option_2,,0,14,14,177,1
60df30c4e945892dc94a626c,63f3cfca20052e4ae7554ebf,6453ccd7830171360d046efe,2023-05-04_17h25.26.043,ga_syllabified_check,2022.2.5,Win32,75.05253678,,,,,,,,,,,,,,./stim/p05_syllable_1_lliape_hit.wav,p05,lliape,hit,liai-pe,llia-pe,lli-a-pe, ,-0.406153846,-0.108205128,1,0,0,1.2714,text_option_1,,0,15,15,88,1
60df30c4e945892dc94a626c,63f3cfca20052e4ae7554ebf,6453ccd7830171360d046efe,2023-05-04_17h25.26.043,ga_syllabified_check,2022.2.5,Win32,75.05253678,,,,,,,,,,,,,,./stim/p05_syllable_1_manhiala_hit.wav,p05,mañiala,hit,ma-nhia-la,ma-ñia-la,ma-ñi-a-la, ,-0.017435897,-0.297948718,1,0,0,3.7981,text_option_other,bien,0,16,16,89,1
60df30c4e945892dc94a626c,63f3cfca20052e4ae7554ebf,6453ccd7830171360d046efe,2023-05-04_17h25.26.043,ga_syllabified_check,2022.2.5,Win32,75.05253678,,,,,,,,,,,,,,./stim/p07_syllable_1_pachialo_hit.wav,p07,pachialo,hit,pa-cha-lo,pa-chia-lo,pa-chi-a-lo, ,-0.369230769,-0.106153846,1,0,0,2.6174,text_option_1,,0,17,17,160,1
60df30c4e945892dc94a626c,63f3cfca20052e4ae7554ebf,6453ccd7830171360d046efe,2023-05-04_17h25.26.043,ga_syllabified_check,2022.2.5,Win32,75.05253678,,,,,,,,,,,,,,./stim/p07_syllable_1_lakapiaisto_hit.wav,p07,lakapiaisto,hit,la-ka-pia-sto,la-ka-piais-to,la-ka-pi-ais-to,la-ka-pia-is-to,0.043076923,-0.309230769,1,0,0,4.1746,text_option_other,lakapiasto,0,18,18,152,1
60df30c4e945892dc94a626c,63f3cfca20052e4ae7554ebf,6453ccd7830171360d046efe,2023-05-04_17h25.26.043,ga_syllabified_check,2022.2.5,Win32,75.05253678,,,,,,,,,,,,,,./stim/p06_syllable_1_chiaba_hit.wav,p06,chiaba,hit,chi-a-ba,chia-ba,chi-a-ba, ,-0.368205128,-0.098974359,1,0,0,3.1522,text_option_1,,0,19,19,102,1
60df30c4e945892dc94a626c,63f3cfca20052e4ae7554ebf,6453ccd7830171360d046efe,2023-05-04_17h25.26.043,ga_syllabified_check,2022.2.5,Win32,75.05253678,,,,,,,,,,,,,,./stim/p03_syllable_1_faluduako_hit.wav,p03,faluduako,hit,fa-lu-dua-ko,fa-lu-dua-ko,fa-lu-du-a-ko, ,-0.382564103,-0.109230769,1,0,0,2.0275,text_option_1,,0,20,20,2,1
60df30c4e945892dc94a626c,63f3cfca20052e4ae7554ebf,6453ccd7830171360d046efe,2023-05-04_17h25.26.043,ga_syllabified_check,2022.2.5,Win32,75.05253678,,,,,,,,,,,,,,./stim/p04_syllable_1_lakagiaisto_hit.wav,p04,lakagiaisto,hit,la-ka-giais-to,la-ka-giais-to,la-ka-gi-ais-to,la-ka-gia-is-to,-0.376410256,-0.104102564,1,0,0,1.6542,text_option_1,,0,21,21,46,1
60df30c4e945892dc94a626c,63f3cfca20052e4ae7554ebf,6453ccd7830171360d046efe,2023-05-04_17h25.26.043,ga_syllabified_check,2022.2.5,Win32,75.05253678,,,,,,,,,,,,,,./stim/p04_syllable_1_paluguato_hit.wav,p04,paluguato,hit,pa-lu-gua,pa-lu-gua-to,pa-lu-gu-a-to, ,0.066666667,-0.291794872,1,0,0,2.1606,text_option_other,palugua,0,22,22,61,1
60df30c4e945892dc94a626c,63f3cfca20052e4ae7554ebf,6453ccd7830171360d046efe,2023-05-04_17h25.26.043,ga_syllabified_check,2022.2.5,Win32,75.05253678,,,,,,,,,,,,,,./stim/p08_syllable_1_faluduako_hit.wav,p08,faluduako,hit,fa-lu-duai-ko,fa-lu-dua-ko,fa-lu-du-a-ko, ,0.007179487,-0.317435897,1,0,0,2.7878,text_option_other,faluduaiko,0,23,23,172,1
60df30c4e945892dc94a626c,63f3cfca20052e4ae7554ebf,6453ccd7830171360d046efe,2023-05-04_17h25.26.043,ga_syllabified_check,2022.2.5,Win32,75.05253678,,,,,,,,,,,,,,./stim/p03_syllable_1_lakakuaisto_hit.wav,p03,lakakuaisto,hit,la-ka-kuais-to,la-ka-kuais-to,la-ka-ku-ais-to,la-ka-kua-is-to,-0.333333333,-0.111282051,1,0,0,1.9697,text_option_1,,0,24,24,15,1
60df30c4e945892dc94a626c,63f3cfca20052e4ae7554ebf,6453ccd7830171360d046efe,2023-05-04_17h25.26.043,ga_syllabified_check,2022.2.5,Win32,75.05253678,,,,,,,,,,,,,,./stim/p04_syllable_1_lakakuaisto_hit.wav,p04,lakakuaisto,hit,la-ka-kuais-to,la-ka-kuais-to,la-ka-ku-ais-to,la-ka-kua-is-to,-0.38974359,-0.114358974,1,0,0,3.3478,text_option_1,,0,25,25,49,1
60df30c4e945892dc94a626c,63f3cfca20052e4ae7554ebf,6453ccd7830171360d046efe,2023-05-04_17h25.26.043,ga_syllabified_check,2022.2.5,Win32,75.05253678,,,,,,,,,,,,,,./stim/p04_syllable_1_lakaduaisto_hit.wav,p04,lakaduaisto,hit,la-ka-duais-to,la-ka-duais-to,la-ka-du-ais-to,la-ka-dua-is-to,-0.028717949,-0.307179487,1,0,0,4.2888,text_option_other,lakaduaisto,0,26,26,43,1
60df30c4e945892dc94a626c,63f3cfca20052e4ae7554ebf,6453ccd7830171360d046efe,2023-05-04_17h25.26.043,ga_syllabified_check,2022.2.5,Win32,75.05253678,,,,,,,,,,,,,,./stim/p06_syllable_1_falutraigo_hit.wav,p06,falutraigo,hit,fa-lu-tra-i-go,fa-lu-trai-go,fa-lu-tra-i-go, ,0.386666667,-0.101025641,1,0,0,4.495,text_option_2,,0,27,27,106,1
60df30c4e945892dc94a626c,63f3cfca20052e4ae7554ebf,6453ccd7830171360d046efe,2023-05-04_17h25.26.043,ga_syllabified_check,2022.2.5,Win32,75.05253678,,,,,,,,,,,,,,./stim/p06_syllable_1_lakaguaisto_hit.wav,p06,lakaguaisto,hit,la-ka-gu-a-is,la-ka-guais-to,la-ka-gu-ais-to,la-ka-gua-is-to,0.424615385,-0.114358974,1,0,0,5.989,text_option_2,,0,28,28,115,1
60df30c4e945892dc94a626c,63f3cfca20052e4ae7554ebf,6453ccd7830171360d046efe,2023-05-04_17h25.26.043,ga_syllabified_check,2022.2.5,Win32,75.05253678,,,,,,,,,,,,,,./stim/p08_syllable_1_lakafiaisto_hit.wav,p08,lakafiaisto,hit,la-ka-fi-as-to,la-ka-fiais-to,la-ka-fi-ais-to,la-ka-fia-is-to,0.002051282,-0.317435897,1,0,0,4.3749,text_option_other,lakafiasto,0,29,29,180,1
60df30c4e945892dc94a626c,63f3cfca20052e4ae7554ebf,6453ccd7830171360d046efe,2023-05-04_17h25.26.043,ga_syllabified_check,2022.2.5,Win32,75.05253678,,,,,,,,,,,,,,./stim/p05_syllable_1_lakaguaisto_hit.wav,p05,lakaguaisto,hit,la-ka-gais,la-ka-guais-to,la-ka-gu-ais-to,la-ka-gua-is-to,-0.011282051,-0.293846154,1,0,0,0.9779,text_option_other,lakakaisto,0,30,30,81,1
60df30c4e945892dc94a626c,63f3cfca20052e4ae7554ebf,6453ccd7830171360d046efe,2023-05-04_17h25.26.043,ga_syllabified_check,2022.2.5,Win32,75.05253678,,,,,,,,,,,,,,./stim/p03_syllable_1_tuliafo_hit.wav,p03,tuliafo,hit,tu-lia-fo,tu-lia-fo,tu-li-a-fo, ,-0.408205128,-0.104102564,1,0,0,3.957,text_option_1,,0,31,31,33,1
60df30c4e945892dc94a626c,63f3cfca20052e4ae7554ebf,6453ccd7830171360d046efe,2023-05-04_17h25.26.043,ga_syllabified_check,2022.2.5,Win32,75.05253678,,,,,,,,,,,,,,./stim/p08_syllable_1_lakadiaisto_hit.wav,p08,lakadiaisto,hit,la-ka-di-jas-to,la-ka-diais-to,la-ka-di-ais-to,la-ka-dia-is-to,-0.002051282,-0.31025641,1,0,0,4.1482,text_option_other,lakadiasto,0,32,32,178,1
60df30c4e945892dc94a626c,63f3cfca20052e4ae7554ebf,6453ccd7830171360d046efe,2023-05-04_17h25.26.043,ga_syllabified_check,2022.2.5,Win32,75.05253678,,,,,,,,,,,,,,./stim/p05_syllable_1_lakakiaisto_hit.wav,p05,lakakiaisto,hit,la-ka-ki-ais-to,la-ka-kiais-to,la-ka-ki-ais-to,la-ka-kia-is-to,-0.328205128,-0.1,1,0,0,3.2506,text_option_1,,0,33,33,82,1
60df30c4e945892dc94a626c,63f3cfca20052e4ae7554ebf,6453ccd7830171360d046efe,2023-05-04_17h25.26.043,ga_syllabified_check,2022.2.5,Win32,75.05253678,,,,,,,,,,,,,,./stim/p05_syllable_1_flauro_hit.wav,p05,flauro,hit,fa-lu-ro,flau-ro,fla-u-ro, ,0.030769231,-0.303076923,1,0,0,1.0404,text_option_other,faluro,0,34,34,73,1
60df30c4e945892dc94a626c,63f3cfca20052e4ae7554ebf,6453ccd7830171360d046efe,2023-05-04_17h25.26.043,ga_syllabified_check,2022.2.5,Win32,75.05253678,,,,,,,,,,,,,,./stim/p08_syllable_1_mebochiana_hit.wav,p08,mebochiana,hit,me-bo-chi-a-na,me-bo-chia-na,me-bo-chi-a-na, ,0.458461538,-0.103076923,1,0,0,2.3474,text_option_2,,0,35,35,192,1
60df30c4e945892dc94a626c,63f3cfca20052e4ae7554ebf,6453ccd7830171360d046efe,2023-05-04_17h25.26.043,ga_syllabified_check,2022.2.5,Win32,75.05253678,,,,,,,,,,,,,,./stim/p03_syllable_1_payielo_hit.wav,p03,payielo,hit,pa-yie-lo,pa-yie-lo,pa-yi-e-lo, ,-0.055384615,-0.301025641,1,0,0,6.4064,text_option_other,"payielo, sin -",0,36,36,30,1
60df30c4e945892dc94a626c,63f3cfca20052e4ae7554ebf,6453ccd7830171360d046efe,2023-05-04_17h25.26.043,ga_syllabified_check,2022.2.5,Win32,75.05253678,,,,,,,,,,,,,,./stim/p07_syllable_1_flauro_hit.wav,p07,flauro,hit,flau-ro,flau-ro,fla-u-ro, ,-0.382564103,-0.105128205,1,0,0,1.1394,text_option_1,,0,37,37,141,1
60df30c4e945892dc94a626c,63f3cfca20052e4ae7554ebf,6453ccd7830171360d046efe,2023-05-04_17h25.26.043,ga_syllabified_check,2022.2.5,Win32,75.05253678,,,,,,,,,,,,,,./stim/p06_syllable_1_lakakiaisto_hit.wav,p06,lakakiaisto,hit,la-ka-kia-is-to,la-ka-kiais-to,la-ka-ki-ais-to,la-ka-kia-is-to,0.418461538,-0.104102564,1,0,0,6.5358,text_option_2,,0,38,38,116,1
60df30c4e945892dc94a626c,63f3cfca20052e4ae7554ebf,6453ccd7830171360d046efe,2023-05-04_17h25.26.043,ga_syllabified_check,2022.2.5,Win32,75.05253678,,,,,,,,,,,,,,./stim/p08_syllable_1_costonhialo_hit.wav,p08,costoñialo,hit,cos-to-nhia-lo,cos-to-ñia-lo,cos-to-ñi-a-lo, ,-0.323076923,-0.101025641,1,0,0,1.9964,text_option_1,,0,39,39,171,1
60df30c4e945892dc94a626c,63f3cfca20052e4ae7554ebf,6453ccd7830171360d046efe,2023-05-04_17h25.26.043,ga_syllabified_check,2022.2.5,Win32,75.05253678,,,,,,,,,,,,,,./stim/p04_syllable_1_chiaba_hit.wav,p04,chiaba,hit,chia-ba,chia-ba,chi-a-ba, ,-0.438974359,-0.115384615,1,0,0,0.5334,text_option_1,,0,40,40,34,1
60df30c4e945892dc94a626c,63f3cfca20052e4ae7554ebf,6453ccd7830171360d046efe,2023-05-04_17h25.26.043,ga_syllabified_check,2022.2.5,Win32,75.05253678,,,,,,,,,,,,,,./stim/p08_syllable_1_payielo_hit.wav,p08,payielo,hit,pa-yie-lo,pa-yie-lo,pa-yi-e-lo, ,-0.363076923,-0.115384615,1,0,0,1.5577,text_option_1,,0,41,41,200,1
60df30c4e945892dc94a626c,63f3cfca20052e4ae7554ebf,6453ccd7830171360d046efe,2023-05-04_17h25.26.043,ga_syllabified_check,2022.2.5,Win32,75.05253678,,,,,,,,,,,,,,./stim/p05_syllable_1_palufauto_hit.wav,p05,palufauto,hit,pa-lu-fau-to,pa-lu-fau-to,pa-lu-fa-u-to, ,-0.347692308,-0.11025641,1,0,0,1.4319,text_option_1,,0,42,42,94,1
60df30c4e945892dc94a626c,63f3cfca20052e4ae7554ebf,6453ccd7830171360d046efe,2023-05-04_17h25.26.043,ga_syllabified_check,2022.2.5,Win32,75.05253678,,,,,,,,,,,,,,./stim/p03_syllable_1_lakatiaisto_hit.wav,p03,lakatiaisto,hit,la-ka-tiais-to,la-ka-tiais-to,la-ka-ti-ais-to,la-ka-tia-is-to,-0.344615385,-0.101025641,1,0,0,1.7741,text_option_1,,0,43,43,18,1
60df30c4e945892dc94a626c,63f3cfca20052e4ae7554ebf,6453ccd7830171360d046efe,2023-05-04_17h25.26.043,ga_syllabified_check,2022.2.5,Win32,75.05253678,,,,,,,,,,,,,,./stim/p08_syllable_1_ruyiola_hit.wav,p08,ruyiola,hit,ru-yio-la,ru-yio-la,ru-yi-o-la, ,-0.344615385,-0.101025641,1,0,0,1.0405,text_option_1,,0,44,44,202,1
60df30c4e945892dc94a626c,63f3cfca20052e4ae7554ebf,6453ccd7830171360d046efe,2023-05-04_17h25.26.043,ga_syllabified_check,2022.2.5,Win32,75.05253678,,,,,,,,,,,,,,./stim/p07_syllable_1_lakatuaisto_hit.wav,p07,lakatuaisto,hit,la-ka-tuais-to,la-ka-tuais-to,la-ka-tu-ais-to,la-ka-tua-is-to,-0.356923077,-0.109230769,1,0,0,2.8634,text_option_1,,0,45,45,155,1
60df30c4e945892dc94a626c,63f3cfca20052e4ae7554ebf,6453ccd7830171360d046efe,2023-05-04_17h25.26.043,ga_syllabified_check,2022.2.5,Win32,75.05253678,,,,,,,,,,,,,,./stim/p05_syllable_1_ruyiola_hit.wav,p05,ruyiola,hit,ru-yio-la,ru-yio-la,ru-yi-o-la, ,-0.404102564,-0.105128205,1,0,0,0.8669,text_option_1,,0,46,46,100,1
60df30c4e945892dc94a626c,63f3cfca20052e4ae7554ebf,6453ccd7830171360d046efe,2023-05-04_17h25.26.043,ga_syllabified_check,2022.2.5,Win32,75.05253678,,,,,,,,,,,,,,./stim/p03_syllable_1_palutrauco_hit.wav,p03,palutrauco,hit,pa-lu-trau-co,pa-lu-trau-co,pa-lu-tra-u-co, ,-0.362051282,-0.109230769,1,0,0,2.9609,text_option_1,,0,47,47,29,1
60df30c4e945892dc94a626c,63f3cfca20052e4ae7554ebf,6453ccd7830171360d046efe,2023-05-04_17h25.26.043,ga_syllabified_check,2022.2.5,Win32,75.05253678,,,,,,,,,,,,,,./stim/p05_syllable_1_lakabiaisto_hit.wav,p05,lakabiaisto,hit,la-ka-bi-ais-to,la-ka-biais-to,la-ka-bi-ais-to,la-ka-bia-is-to,-0.365128205,-0.114358974,1,0,0,2.4275,text_option_1,,0,48,48,74,1
60df30c4e945892dc94a626c,63f3cfca20052e4ae7554ebf,6453ccd7830171360d046efe,2023-05-04_17h25.26.043,ga_syllabified_check,2022.2.5,Win32,75.05253678,,,,,,,,,,,,,,./stim/p03_syllable_1_lakakiaisto_hit.wav,p03,lakakiaisto,hit,la-ka-kiais-to,la-ka-kiais-to,la-ka-ki-ais-to,la-ka-kia-is-to,-0.357948718,-0.114358974,1,0,0,2.8278,text_option_1,,0,49,49,14,1
60df30c4e945892dc94a626c,63f3cfca20052e4ae7554ebf,6453ccd7830171360d046efe,2023-05-04_17h25.26.043,ga_syllabified_check,2022.2.5,Win32,75.05253678,,,,,,,,,,,,,,./stim/p08_syllable_1_palutrauco_hit.wav,p08,palutrauco,hit,pa-lu-trau-ko,pa-lu-trau-co,pa-lu-tra-u-co, ,-0.339487179,-0.112307692,1,0,0,2.9385,text_option_1,,0,50,50,199,1
60df30c4e945892dc94a626c,63f3cfca20052e4ae7554ebf,6453ccd7830171360d046efe,2023-05-04_17h25.26.043,ga_syllabified_check,2022.2.5,Win32,75.05253678,,,,,,,,,,,,,,./stim/p07_syllable_1_palutrauco_hit.wav,p07,palutrauco,hit,pa-lu-trau-co,pa-lu-trau-co,pa-lu-tra-u-co, ,-0.339487179,-0.112307692,1,0,0,0.9339,text_option_1,,0,51,51,165,1
60df30c4e945892dc94a626c,63f3cfca20052e4ae7554ebf,6453ccd7830171360d046efe,2023-05-04_17h25.26.043,ga_syllabified_check,2022.2.5,Win32,75.05253678,,,,,,,,,,,,,,./stim/p04_syllable_1_palufauro_hit.wav,p04,palufauro,hit,pa-lu-fau-ro,pa-lu-fau-ro,pa-lu-fa-u-ro, ,-0.363076923,-0.104102564,1,0,0,5.4688,text_option_1,,0,52,52,59,1
60df30c4e945892dc94a626c,63f3cfca20052e4ae7554ebf,6453ccd7830171360d046efe,2023-05-04_17h25.26.043,ga_syllabified_check,2022.2.5,Win32,75.05253678,,,,,,,,,,,,,,./stim/p06_syllable_1_lakafuaisto_hit.wav,p06,lakafuaisto,hit,la-ka-fu-a-is,la-ka-fuais-to,la-ka-fu-ais-to,la-ka-fua-is-to,0.030769231,-0.11025641,1,0,0,6.2416,text_option_3,,0,53,53,113,1
60df30c4e945892dc94a626c,63f3cfca20052e4ae7554ebf,6453ccd7830171360d046efe,2023-05-04_17h25.26.043,ga_syllabified_check,2022.2.5,Win32,75.05253678,,,,,,,,,,,,,,./stim/p05_syllable_1_lakatuaisto_hit.wav,p05,lakatuaisto,hit,la-ka-tais-to,la-ka-tuais-to,la-ka-tu-ais-to,la-ka-tua-is-to,0.011282051,-0.3,1,0,0,1.2011,text_option_other,lakataisto,0,54,54,87,1
60df30c4e945892dc94a626c,63f3cfca20052e4ae7554ebf,6453ccd7830171360d046efe,2023-05-04_17h25.26.043,ga_syllabified_check,2022.2.5,Win32,75.05253678,,,,,,,,,,,,,,./stim/p03_syllable_1_palumaisto_hit.wav,p03,palumaisto,hit,pa-lu-mais-to,pa-lu-mais-to,pa-lu-ma-is-to, ,-0.367179487,-0.107179487,1,0,0,1.374,text_option_1,,0,55,55,28,1
60df30c4e945892dc94a626c,63f3cfca20052e4ae7554ebf,6453ccd7830171360d046efe,2023-05-04_17h25.26.043,ga_syllabified_check,2022.2.5,Win32,75.05253678,,,,,,,,,,,,,,./stim/p06_syllable_1_paluguato_hit.wav,p06,paluguato,hit,pa-lu-gua-to,pa-lu-gua-to,pa-lu-gu-a-to, ,-0.342564103,-0.106153846,1,0,0,2.4275,text_option_1,,0,56,56,129,1
60df30c4e945892dc94a626c,63f3cfca20052e4ae7554ebf,6453ccd7830171360d046efe,2023-05-04_17h25.26.043,ga_syllabified_check,2022.2.5,Win32,75.05253678,,,,,,,,,,,,,,./stim/p07_syllable_1_lakadiaisto_hit.wav,p07,lakadiaisto,hit,la-ka-dia-is-to,la-ka-diais-to,la-ka-di-ais-to,la-ka-dia-is-to,0.05025641,-0.102051282,1,0,0,2.9277,text_option_3,,0,57,57,144,1
60df30c4e945892dc94a626c,63f3cfca20052e4ae7554ebf,6453ccd7830171360d046efe,2023-05-04_17h25.26.043,ga_syllabified_check,2022.2.5,Win32,75.05253678,,,,,,,,,,,,,,./stim/p07_syllable_1_palumaisto_hit.wav,p07,palumaisto,hit,pa-lu-mais-to,pa-lu-mais-to,pa-lu-ma-is-to, ,-0.305641026,-0.097948718,1,0,0,2.7075,text_option_1,,0,58,58,164,1
60df30c4e945892dc94a626c,63f3cfca20052e4ae7554ebf,6453ccd7830171360d046efe,2023-05-04_17h25.26.043,ga_syllabified_check,2022.2.5,Win32,75.05253678,,,,,,,,,,,,,,./stim/p06_syllable_1_tuliafo_hit.wav,p06,tuliafo,hit,tu-li-a-fo,tu-lia-fo,tu-li-a-fo, ,0.412307692,-0.103076923,1,0,0,1.7605,text_option_2,,0,59,59,135,1
60df30c4e945892dc94a626c,63f3cfca20052e4ae7554ebf,6453ccd7830171360d046efe,2023-05-04_17h25.26.043,ga_syllabified_check,2022.2.5,Win32,75.05253678,,,,,,,,,,,,,,./stim/p08_syllable_1_rausto_hit.wav,p08,rausto,hit,raus-to,raus-to,ra-us-to, ,-0.382564103,-0.105128205,1,0,0,0.9739,text_option_1,,0,60,60,201,1
60df30c4e945892dc94a626c,63f3cfca20052e4ae7554ebf,6453ccd7830171360d046efe,2023-05-04_17h25.26.043,ga_syllabified_check,2022.2.5,Win32,75.05253678,,,,,,,,,,,,,,./stim/p06_syllable_1_mebochiana_hit.wav,p06,mebochiana,hit,me-bo-shi-a-na,me-bo-chia-na,me-bo-chi-a-na, ,0.412307692,-0.109230769,1,0,0,3.1477,text_option_2,,0,61,61,124,1
60df30c4e945892dc94a626c,63f3cfca20052e4ae7554ebf,6453ccd7830171360d046efe,2023-05-04_17h25.26.043,ga_syllabified_check,2022.2.5,Win32,75.05253678,,,,,,,,,,,,,,./stim/p08_syllable_1_falutraigo_hit.wav,p08,falutraigo,hit,fa-lu-trai-go,fa-lu-trai-go,fa-lu-tra-i-go, ,-0.341538462,-0.112307692,1,0,0,2.2841,text_option_1,,0,62,62,174,1
60df30c4e945892dc94a626c,63f3cfca20052e4ae7554ebf,6453ccd7830171360d046efe,2023-05-04_17h25.26.043,ga_syllabified_check,2022.2.5,Win32,75.05253678,,,,,,,,,,,,,,./stim/p03_syllable_1_nhiape_hit.wav,p03,ñiape,hit,nhia-pe,ñia-pe,ñi-a-pe, ,-0.382564103,-0.108205128,1,0,0,0.8937,text_option_1,,0,63,63,23,1
60df30c4e945892dc94a626c,63f3cfca20052e4ae7554ebf,6453ccd7830171360d046efe,2023-05-04_17h25.26.043,ga_syllabified_check,2022.2.5,Win32,75.05253678,,,,,,,,,,,,,,./stim/p04_syllable_1_flauro_hit.wav,p04,flauro,hit,flau-ro,flau-ro,fla-u-ro, ,-0.377435897,-0.11025641,1,0,0,0.5336,text_option_1,,0,64,64,39,1
60df30c4e945892dc94a626c,63f3cfca20052e4ae7554ebf,6453ccd7830171360d046efe,2023-05-04_17h25.26.043,ga_syllabified_check,2022.2.5,Win32,75.05253678,,,,,,,,,,,,,,./stim/p04_syllable_1_mebochiana_hit.wav,p04,mebochiana,hit,me-bo-chia-na,me-bo-chia-na,me-bo-chi-a-na, ,-0.374358974,-0.105128205,1,0,0,1.6176,text_option_1,,0,65,65,56,1
60df30c4e945892dc94a626c,63f3cfca20052e4ae7554ebf,6453ccd7830171360d046efe,2023-05-04_17h25.26.043,ga_syllabified_check,2022.2.5,Win32,75.05253678,,,,,,,,,,,,,,./stim/p06_syllable_1_ruyiola_hit.wav,p06,ruyiola,hit,ru-yi-o-la,ru-yio-la,ru-yi-o-la, ,0.406153846,-0.103076923,1,0,0,1.7648,text_option_2,,0,66,66,134,1
60df30c4e945892dc94a626c,63f3cfca20052e4ae7554ebf,6453ccd7830171360d046efe,2023-05-04_17h25.26.043,ga_syllabified_check,2022.2.5,Win32,75.05253678,,,,,,,,,,,,,,./stim/p03_syllable_1_lakabiaisto_hit.wav,p03,lakabiaisto,hit,la-ka-biais-to,la-ka-biais-to,la-ka-bi-ais-to,la-ka-bia-is-to,-0.325128205,-0.1,1,0,0,1.5766,text_option_1,,0,67,67,6,1
60df30c4e945892dc94a626c,63f3cfca20052e4ae7554ebf,6453ccd7830171360d046efe,2023-05-04_17h25.26.043,ga_syllabified_check,2022.2.5,Win32,75.05253678,,,,,,,,,,,,,,./stim/p08_syllable_1_palufauro_hit.wav,p08,palufauro,hit,pa-lu-fau-ro,pa-lu-fau-ro,pa-lu-fa-u-ro, ,-0.33025641,-0.104102564,1,0,0,3.2411,text_option_1,,0,68,68,195,1
60df30c4e945892dc94a626c,63f3cfca20052e4ae7554ebf,6453ccd7830171360d046efe,2023-05-04_17h25.26.043,ga_syllabified_check,2022.2.5,Win32,75.05253678,,,,,,,,,,,,,,./stim/p07_syllable_1_faluduako_hit.wav,p07,faluduako,hit,fa-lu-dua-ko,fa-lu-dua-ko,fa-lu-du-a-ko, ,-0.327179487,-0.107179487,1,0,0,2.1474,text_option_1,,0,69,69,138,1
60df30c4e945892dc94a626c,63f3cfca20052e4ae7554ebf,6453ccd7830171360d046efe,2023-05-04_17h25.26.043,ga_syllabified_check,2022.2.5,Win32,75.05253678,,,,,,,,,,,,,,./stim/p04_syllable_1_lakaguaisto_hit.wav,p04,lakaguaisto,hit,la-ka-guais-to,la-ka-guais-to,la-ka-gu-ais-to,la-ka-gua-is-to,-0.344615385,-0.111282051,1,0,0,2.9564,text_option_1,,0,70,70,47,1
60df30c4e945892dc94a626c,63f3cfca20052e4ae7554ebf,6453ccd7830171360d046efe,2023-05-04_17h25.26.043,ga_syllabified_check,2022.2.5,Win32,75.05253678,,,,,,,,,,,,,,./stim/p06_syllable_1_lakadiaisto_hit.wav,p06,lakadiaisto,hit,la-ka-dia-is-to,la-ka-diais-to,la-ka-di-ais-to,la-ka-dia-is-to,0.057435897,-0.112307692,1,0,0,3.028,text_option_3,,0,71,71,110,1
60df30c4e945892dc94a626c,63f3cfca20052e4ae7554ebf,6453ccd7830171360d046efe,2023-05-04_17h25.26.043,ga_syllabified_check,2022.2.5,Win32,75.05253678,,,,,,,,,,,,,,./stim/p05_syllable_1_lakapiaisto_hit.wav,p05,lakapiaisto,hit,la-ka-pais-to,la-ka-piais-to,la-ka-pi-ais-to,la-ka-pia-is-to,0.082051282,-0.315384615,1,0,0,1.4539,text_option_other,lakapaisto,0,72,72,84,1
60df30c4e945892dc94a626c,63f3cfca20052e4ae7554ebf,6453ccd7830171360d046efe,2023-05-04_17h25.26.043,ga_syllabified_check,2022.2.5,Win32,75.05253678,,,,,,,,,,,,,,./stim/p04_syllable_1_lakafiaisto_hit.wav,p04,lakafiaisto,hit,la-ka-fiais-to,la-ka-fiais-to,la-ka-fi-ais-to,la-ka-fia-is-to,-0.344615385,-0.101025641,1,0,0,1.5739,text_option_1,,0,73,73,44,1
60df30c4e945892dc94a626c,63f3cfca20052e4ae7554ebf,6453ccd7830171360d046efe,2023-05-04_17h25.26.043,ga_syllabified_check,2022.2.5,Win32,75.05253678,,,,,,,,,,,,,,./stim/p04_syllable_1_pachialo_hit.wav,p04,pachialo,hit,pa-chia-lo,pa-chia-lo,pa-chi-a-lo, ,-0.388717949,-0.106153846,1,0,0,0.9069,text_option_1,,0,74,74,58,1
60df30c4e945892dc94a626c,63f3cfca20052e4ae7554ebf,6453ccd7830171360d046efe,2023-05-04_17h25.26.043,ga_syllabified_check,2022.2.5,Win32,75.05253678,,,,,,,,,,,,,,./stim/p05_syllable_1_payielo_hit.wav,p05,payielo,hit,pai-yu-we-lo,pa-yie-lo,pa-yi-e-lo, ,-0.027692308,-0.292820513,1,0,0,1.3769,text_option_other,payuelo,0,75,75,98,1
60df30c4e945892dc94a626c,63f3cfca20052e4ae7554ebf,6453ccd7830171360d046efe,2023-05-04_17h25.26.043,ga_syllabified_check,2022.2.5,Win32,75.05253678,,,,,,,,,,,,,,./stim/p08_syllable_1_palufauto_hit.wav,p08,palufauto,hit,pa-lu-fau-to,pa-lu-fau-to,pa-lu-fa-u-to, ,-0.386666667,-0.106153846,1,0,0,3.1152,text_option_1,,0,76,76,196,1
60df30c4e945892dc94a626c,63f3cfca20052e4ae7554ebf,6453ccd7830171360d046efe,2023-05-04_17h25.26.043,ga_syllabified_check,2022.2.5,Win32,75.05253678,,,,,,,,,,,,,,./stim/p05_syllable_1_falutraigo_hit.wav,p05,falutraigo,hit,fa-lu-trai-go,fa-lu-trai-go,fa-lu-tra-i-go, ,0.028717949,-0.309230769,1,0,0,0.9738,text_option_other,palutraico,0,77,77,72,1
60df30c4e945892dc94a626c,63f3cfca20052e4ae7554ebf,6453ccd7830171360d046efe,2023-05-04_17h25.26.043,ga_syllabified_check,2022.2.5,Win32,75.05253678,,,,,,,,,,,,,,./stim/p08_syllable_1_palumaisto_hit.wav,p08,palumaisto,hit,pa-lu-mais-to,pa-lu-mais-to,pa-lu-ma-is-to, ,-0.329230769,-0.1,1,0,0,2.0291,text_option_1,,0,78,78,198,1
60df30c4e945892dc94a626c,63f3cfca20052e4ae7554ebf,6453ccd7830171360d046efe,2023-05-04_17h25.26.043,ga_syllabified_check,2022.2.5,Win32,75.05253678,,,,,,,,,,,,,,./stim/p07_syllable_1_falutraigo_hit.wav,p07,falutraigo,hit,fa-lu-trai-go,fa-lu-trai-go,fa-lu-tra-i-go, ,-0.348717949,-0.103076923,1,0,0,2.4084,text_option_1,,0,79,79,140,1
60df30c4e945892dc94a626c,63f3cfca20052e4ae7554ebf,6453ccd7830171360d046efe,2023-05-04_17h25.26.043,ga_syllabified_check,2022.2.5,Win32,75.05253678,,,,,,,,,,,,,,./stim/p06_syllable_1_palumaisto_hit.wav,p06,palumaisto,hit,pa-lu-ma-is-to,pa-lu-mais-to,pa-lu-ma-is-to, ,0.434871795,-0.108205128,1,0,0,3.0641,text_option_2,,0,80,80,130,1
60df30c4e945892dc94a626c,63f3cfca20052e4ae7554ebf,6453ccd7830171360d046efe,2023-05-04_17h25.26.043,ga_syllabified_check,2022.2.5,Win32,75.05253678,,,,,,,,,,,,,,./stim/p04_syllable_1_falutraigo_hit.wav,p04,falutraigo,hit,fa-lu-trai-go,fa-lu-trai-go,fa-lu-tra-i-go, ,-0.384615385,-0.108205128,1,0,0,2.1873,text_option_1,,0,81,81,38,1
60df30c4e945892dc94a626c,63f3cfca20052e4ae7554ebf,6453ccd7830171360d046efe,2023-05-04_17h25.26.043,ga_syllabified_check,2022.2.5,Win32,75.05253678,,,,,,,,,,,,,,./stim/p04_syllable_1_nhiape_hit.wav,p04,ñiape,hit,nhia-pe,ñia-pe,ñi-a-pe, ,-0.394871795,-0.098974359,1,0,0,0.4536,text_option_1,,0,82,82,57,1
60df30c4e945892dc94a626c,63f3cfca20052e4ae7554ebf,6453ccd7830171360d046efe,2023-05-04_17h25.26.043,ga_syllabified_check,2022.2.5,Win32,75.05253678,,,,,,,,,,,,,,./stim/p08_syllable_1_lakakuaisto_hit.wav,p08,lakakuaisto,hit,la-ka-ku-ais-to,la-ka-kuais-to,la-ka-ku-ais-to,la-ka-kua-is-to,0.067692308,-0.08974359,1,0,0,3.2546,text_option_3,,0,83,83,185,1
60df30c4e945892dc94a626c,63f3cfca20052e4ae7554ebf,6453ccd7830171360d046efe,2023-05-04_17h25.26.043,ga_syllabified_check,2022.2.5,Win32,75.05253678,,,,,,,,,,,,,,./stim/p03_syllable_1_mebochiana_hit.wav,p03,mebochiana,hit,me-bo-chia-na,me-bo-chia-na,me-bo-chi-a-na, ,-0.357948718,-0.112307692,1,0,0,1.2005,text_option_1,,0,84,84,22,1
60df30c4e945892dc94a626c,63f3cfca20052e4ae7554ebf,6453ccd7830171360d046efe,2023-05-04_17h25.26.043,ga_syllabified_check,2022.2.5,Win32,75.05253678,,,,,,,,,,,,,,./stim/p04_syllable_1_manhiala_hit.wav,p04,mañiala,hit,ma-nhia-la,ma-ñia-la,ma-ñi-a-la, ,-0.385641026,-0.103076923,1,0,0,0.9962,text_option_1,,0,85,85,55,1
60df30c4e945892dc94a626c,63f3cfca20052e4ae7554ebf,6453ccd7830171360d046efe,2023-05-04_17h25.26.043,ga_syllabified_check,2022.2.5,Win32,75.05253678,,,,,,,,,,,,,,./stim/p07_syllable_1_lakaduaisto_hit.wav,p07,lakaduaisto,hit,la-ka-duais-to,la-ka-duais-to,la-ka-du-ais-to,la-ka-dua-is-to,-0.338461538,-0.095897436,1,0,0,2.2475,text_option_1,,0,86,86,145,1
60df30c4e945892dc94a626c,63f3cfca20052e4ae7554ebf,6453ccd7830171360d046efe,2023-05-04_17h25.26.043,ga_syllabified_check,2022.2.5,Win32,75.05253678,,,,,,,,,,,,,,./stim/p08_syllable_1_pachialo_hit.wav,p08,pachialo,hit,pa-chi-ja-lo,pa-chia-lo,pa-chi-a-lo, ,0.445128205,-0.113333333,1,0,0,1.3605,text_option_2,,0,87,87,194,1
60df30c4e945892dc94a626c,63f3cfca20052e4ae7554ebf,6453ccd7830171360d046efe,2023-05-04_17h25.26.043,ga_syllabified_check,2022.2.5,Win32,75.05253678,,,,,,,,,,,,,,./stim/p03_syllable_1_lakafiaisto_hit.wav,p03,lakafiaisto,hit,la-ka-fiais-to,la-ka-fiais-to,la-ka-fi-ais-to,la-ka-fia-is-to,-0.342564103,-0.107179487,1,0,0,1.7608,text_option_1,,0,88,88,10,1
60df30c4e945892dc94a626c,63f3cfca20052e4ae7554ebf,6453ccd7830171360d046efe,2023-05-04_17h25.26.043,ga_syllabified_check,2022.2.5,Win32,75.05253678,,,,,,,,,,,,,,./stim/p05_syllable_1_lakafiaisto_hit.wav,p05,lakafiaisto,hit,la-ka-fi-ais-to,la-ka-fiais-to,la-ka-fi-ais-to,la-ka-fia-is-to,0.056410256,-0.108205128,1,0,0,2.0605,text_option_3,,0,89,89,78,1
60df30c4e945892dc94a626c,63f3cfca20052e4ae7554ebf,6453ccd7830171360d046efe,2023-05-04_17h25.26.043,ga_syllabified_check,2022.2.5,Win32,75.05253678,,,,,,,,,,,,,,./stim/p04_syllable_1_lakafuaisto_hit.wav,p04,lakafuaisto,hit,la-ka-fuais-to,la-ka-fuais-to,la-ka-fu-ais-to,la-ka-fua-is-to,-0.334358974,-0.095897436,1,0,0,2.4188,text_option_1,,0,90,90,45,1
60df30c4e945892dc94a626c,63f3cfca20052e4ae7554ebf,6453ccd7830171360d046efe,2023-05-04_17h25.26.043,ga_syllabified_check,2022.2.5,Win32,75.05253678,,,,,,,,,,,,,,./stim/p03_syllable_1_manhiala_hit.wav,p03,mañiala,hit,ma-nhia-la,ma-ñia-la,ma-ñi-a-la, ,-0.352820513,-0.097948718,1,0,0,1.8539,text_option_1,,0,91,91,21,1
60df30c4e945892dc94a626c,63f3cfca20052e4ae7554ebf,6453ccd7830171360d046efe,2023-05-04_17h25.26.043,ga_syllabified_check,2022.2.5,Win32,75.05253678,,,,,,,,,,,,,,./stim/p08_syllable_1_lakagiaisto_hit.wav,p08,lakagiaisto,hit,la-ka-gi-jas-to,la-ka-giais-to,la-ka-gi-ais-to,la-ka-gia-is-to,-0.354871795,-0.095897436,1,0,0,4.7351,text_option_1,,0,92,92,182,1
60df30c4e945892dc94a626c,63f3cfca20052e4ae7554ebf,6453ccd7830171360d046efe,2023-05-04_17h25.26.043,ga_syllabified_check,2022.2.5,Win32,75.05253678,,,,,,,,,,,,,,./stim/p07_syllable_1_ruyiola_hit.wav,p07,ruyiola,hit,ru-yio-la,ru-yio-la,ru-yi-o-la, ,-0.340512821,-0.107179487,1,0,0,1.2807,text_option_1,,0,93,93,168,1
60df30c4e945892dc94a626c,63f3cfca20052e4ae7554ebf,6453ccd7830171360d046efe,2023-05-04_17h25.26.043,ga_syllabified_check,2022.2.5,Win32,75.05253678,,,,,,,,,,,,,,./stim/p05_syllable_1_costonhialo_hit.wav,p05,costoñialo,hit,cos-to-nhia-lo,cos-to-ñia-lo,cos-to-ñi-a-lo, ,-0.317948718,-0.116410256,1,0,0,1.6404,text_option_1,,0,94,94,69,1
60df30c4e945892dc94a626c,63f3cfca20052e4ae7554ebf,6453ccd7830171360d046efe,2023-05-04_17h25.26.043,ga_syllabified_check,2022.2.5,Win32,75.05253678,,,,,,,,,,,,,,./stim/p05_syllable_1_lakakuaisto_hit.wav,p05,lakakuaisto,hit,la-ka-kais-to,la-ka-kuais-to,la-ka-ku-ais-to,la-ka-kua-is-to,0.008205128,-0.290769231,1,0,0,1.9534,text_option_other,lakakaisto,0,95,95,83,1
60df30c4e945892dc94a626c,63f3cfca20052e4ae7554ebf,6453ccd7830171360d046efe,2023-05-04_17h25.26.043,ga_syllabified_check,2022.2.5,Win32,75.05253678,,,,,,,,,,,,,,./stim/p06_syllable_1_lakakuaisto_hit.wav,p06,lakakuaisto,hit,la-ka-ku-a-is,la-ka-kuais-to,la-ka-ku-ais-to,la-ka-kua-is-to,0.048205128,-0.113333333,1,0,0,3.5346,text_option_3,,0,96,96,117,1
60df30c4e945892dc94a626c,63f3cfca20052e4ae7554ebf,6453ccd7830171360d046efe,2023-05-04_17h25.26.043,ga_syllabified_check,2022.2.5,Win32,75.05253678,,,,,,,,,,,,,,./stim/p04_syllable_1_lakabiaisto_hit.wav,p04,lakabiaisto,hit,la-ka-biais-to,la-ka-biais-to,la-ka-bi-ais-to,la-ka-bia-is-to,0.002051282,-0.307179487,1,0,0,6.1572,text_option_other,la-ka-biaisto,0,97,97,40,1
60df30c4e945892dc94a626c,63f3cfca20052e4ae7554ebf,6453ccd7830171360d046efe,2023-05-04_17h25.26.043,ga_syllabified_check,2022.2.5,Win32,75.05253678,,,,,,,,,,,,,,./stim/p08_syllable_1_chiaba_hit.wav,p08,chiaba,hit,chi-a-ba,chia-ba,chi-a-ba, ,0.462564103,-0.116410256,1,0,0,0.8669,text_option_2,,0,98,98,170,1
60df30c4e945892dc94a626c,63f3cfca20052e4ae7554ebf,6453ccd7830171360d046efe,2023-05-04_17h25.26.043,ga_syllabified_check,2022.2.5,Win32,75.05253678,,,,,,,,,,,,,,./stim/p06_syllable_1_lliape_hit.wav,p06,lliape,hit,lli-lla-pe,llia-pe,lli-a-pe, ,0.378461538,-0.103076923,1,0,0,1.0521,text_option_2,,0,99,99,122,1
60df30c4e945892dc94a626c,63f3cfca20052e4ae7554ebf,6453ccd7830171360d046efe,2023-05-04_17h25.26.043,ga_syllabified_check,2022.2.5,Win32,75.05253678,,,,,,,,,,,,,,./stim/p06_syllable_1_palutrauco_hit.wav,p06,palutrauco,hit,pa-lu-tra-u-co,pa-lu-trau-co,pa-lu-tra-u-co, ,0.384615385,-0.113333333,1,0,0,2.4024,text_option_2,,0,100,100,131,1
60df30c4e945892dc94a626c,63f3cfca20052e4ae7554ebf,6453ccd7830171360d046efe,2023-05-04_17h25.26.043,ga_syllabified_check,2022.2.5,Win32,75.05253678,,,,,,,,,,,,,,./stim/p03_syllable_1_lakaguaisto_hit.wav,p03,lakaguaisto,hit,la-ka-guais-to,la-ka-guais-to,la-ka-gu-ais-to,la-ka-gua-is-to,-0.372307692,-0.097948718,1,0,0,1.3872,text_option_1,,0,101,101,13,1
60df30c4e945892dc94a626c,63f3cfca20052e4ae7554ebf,6453ccd7830171360d046efe,2023-05-04_17h25.26.043,ga_syllabified_check,2022.2.5,Win32,75.05253678,,,,,,,,,,,,,,./stim/p06_syllable_1_pachialo_hit.wav,p06,pachialo,hit,pa-shi-a-lo,pa-chia-lo,pa-chi-a-lo, ,0.346666667,-0.104102564,1,0,0,1.8298,text_option_2,,0,102,102,126,1
60df30c4e945892dc94a626c,63f3cfca20052e4ae7554ebf,6453ccd7830171360d046efe,2023-05-04_17h25.26.043,ga_syllabified_check,2022.2.5,Win32,75.05253678,,,,,,,,,,,,,,./stim/p04_syllable_1_palufauto_hit.wav,p04,palufauto,hit,pa-lu-fau-to,pa-lu-fau-to,pa-lu-fa-u-to, ,-0.408205128,-0.109230769,1,0,0,2.6143,text_option_1,,0,103,103,60,1
60df30c4e945892dc94a626c,63f3cfca20052e4ae7554ebf,6453ccd7830171360d046efe,2023-05-04_17h25.26.043,ga_syllabified_check,2022.2.5,Win32,75.05253678,,,,,,,,,,,,,,./stim/p06_syllable_1_payielo_hit.wav,p06,payielo,hit,pa-yi-e-lo,pa-yie-lo,pa-yi-e-lo, ,0.381538462,-0.105128205,1,0,0,1.1873,text_option_2,,0,104,104,132,1
60df30c4e945892dc94a626c,63f3cfca20052e4ae7554ebf,6453ccd7830171360d046efe,2023-05-04_17h25.26.043,ga_syllabified_check,2022.2.5,Win32,75.05253678,,,,,,,,,,,,,,./stim/p03_syllable_1_falutraigo_hit.wav,p03,falutraigo,hit,fa-lu-trai-go,fa-lu-trai-go,fa-lu-tra-i-go, ,-0.348717949,-0.090769231,1,0,0,1.5283,text_option_1,,0,105,105,4,1
60df30c4e945892dc94a626c,63f3cfca20052e4ae7554ebf,6453ccd7830171360d046efe,2023-05-04_17h25.26.043,ga_syllabified_check,2022.2.5,Win32,75.05253678,,,,,,,,,,,,,,./stim/p04_syllable_1_lakatiaisto_hit.wav,p04,lakatiaisto,hit,la-ka-kiais-to,la-ka-tiais-to,la-ka-ti-ais-to,la-ka-tia-is-to,-0.416410256,-0.104102564,1,0,0,1.214,text_option_1,,0,106,106,52,1
60df30c4e945892dc94a626c,63f3cfca20052e4ae7554ebf,6453ccd7830171360d046efe,2023-05-04_17h25.26.043,ga_syllabified_check,2022.2.5,Win32,75.05253678,,,,,,,,,,,,,,./stim/p03_syllable_1_lakapiaisto_hit.wav,p03,lakapiaisto,hit,la-ka-piais-to,la-ka-piais-to,la-ka-pi-ais-to,la-ka-pia-is-to,-0.351794872,-0.1,1,0,0,1.3072,text_option_1,,0,107,107,16,1
60df30c4e945892dc94a626c,63f3cfca20052e4ae7554ebf,6453ccd7830171360d046efe,2023-05-04_17h25.26.043,ga_syllabified_check,2022.2.5,Win32,75.05253678,,,,,,,,,,,,,,./stim/p08_syllable_1_manhiala_hit.wav,p08,mañiala,hit,ma-nhia-la,ma-ñia-la,ma-ñi-a-la, ,-0.384615385,-0.1,1,0,0,1.754,text_option_1,,0,108,108,191,1
60df30c4e945892dc94a626c,63f3cfca20052e4ae7554ebf,6453ccd7830171360d046efe,2023-05-04_17h25.26.043,ga_syllabified_check,2022.2.5,Win32,75.05253678,,,,,,,,,,,,,,./stim/p06_syllable_1_manhiala_hit.wav,p06,mañiala,hit,ma-nhi-a-la,ma-ñia-la,ma-ñi-a-la, ,0.420512821,-0.11025641,1,0,0,1.3473,text_option_2,,0,109,109,123,1
60df30c4e945892dc94a626c,63f3cfca20052e4ae7554ebf,6453ccd7830171360d046efe,2023-05-04_17h25.26.043,ga_syllabified_check,2022.2.5,Win32,75.05253678,,,,,,,,,,,,,,./stim/p07_syllable_1_lakatiaisto_hit.wav,p07,lakatiaisto,hit,la-ka-tiai-sto,la-ka-tiais-to,la-ka-ti-ais-to,la-ka-tia-is-to,0.019487179,-0.101025641,1,0,0,3.6413,text_option_3,,0,110,110,154,1
60df30c4e945892dc94a626c,63f3cfca20052e4ae7554ebf,6453ccd7830171360d046efe,2023-05-04_17h25.26.043,ga_syllabified_check,2022.2.5,Win32,75.05253678,,,,,,,,,,,,,,./stim/p07_syllable_1_paluguato_hit.wav,p07,paluguato,hit,pa-lu-gua-to,pa-lu-gua-to,pa-lu-gu-a-to, ,-0.345641026,-0.104102564,1,0,0,1.5871,text_option_1,,0,111,111,163,1
60df30c4e945892dc94a626c,63f3cfca20052e4ae7554ebf,6453ccd7830171360d046efe,2023-05-04_17h25.26.043,ga_syllabified_check,2022.2.5,Win32,75.05253678,,,,,,,,,,,,,,./stim/p04_syllable_1_costonhialo_hit.wav,p04,costoñialo,hit,cos-to-nhia-lo,cos-to-ñia-lo,cos-to-ñi-a-lo, ,-0.357948718,-0.120512821,1,0,0,1.3609,text_option_1,,0,112,112,35,1
60df30c4e945892dc94a626c,63f3cfca20052e4ae7554ebf,6453ccd7830171360d046efe,2023-05-04_17h25.26.043,ga_syllabified_check,2022.2.5,Win32,75.05253678,,,,,,,,,,,,,,./stim/p08_syllable_1_nhiape_hit.wav,p08,ñiape,hit,ni-a-pe,ñia-pe,ñi-a-pe, ,0.395897436,-0.11025641,1,0,0,1.4807,text_option_2,,0,113,113,193,1
60df30c4e945892dc94a626c,63f3cfca20052e4ae7554ebf,6453ccd7830171360d046efe,2023-05-04_17h25.26.043,ga_syllabified_check,2022.2.5,Win32,75.05253678,,,,,,,,,,,,,,./stim/p08_syllable_1_lakafuaisto_hit.wav,p08,lakafuaisto,hit,la-ka-fju-ais-to,la-ka-fuais-to,la-ka-fu-ais-to,la-ka-fua-is-to,-0.37025641,-0.1,1,0,0,3.3966,text_option_1,,0,114,114,181,1
60df30c4e945892dc94a626c,63f3cfca20052e4ae7554ebf,6453ccd7830171360d046efe,2023-05-04_17h25.26.043,ga_syllabified_check,2022.2.5,Win32,75.05253678,,,,,,,,,,,,,,./stim/p05_syllable_1_nhiape_hit.wav,p05,ñiape,hit,nhia-pe,ñia-pe,ñi-a-pe, ,-0.431794872,-0.107179487,1,0,0,0.7737,text_option_1,,0,115,115,91,1
60df30c4e945892dc94a626c,63f3cfca20052e4ae7554ebf,6453ccd7830171360d046efe,2023-05-04_17h25.26.043,ga_syllabified_check,2022.2.5,Win32,75.05253678,,,,,,,,,,,,,,./stim/p07_syllable_1_chiaba_hit.wav,p07,chiaba,hit,chia-ba,chia-ba,chi-a-ba, ,-0.431794872,-0.107179487,1,0,0,0.5869,text_option_1,,0,116,116,136,1
60df30c4e945892dc94a626c,63f3cfca20052e4ae7554ebf,6453ccd7830171360d046efe,2023-05-04_17h25.26.043,ga_syllabified_check,2022.2.5,Win32,75.05253678,,,,,,,,,,,,,,./stim/p03_syllable_1_pachialo_hit.wav,p03,pachialo,hit,pa-chia-lo,pa-chia-lo,pa-chi-a-lo, ,-0.411282051,-0.114358974,1,0,0,1.1204,text_option_1,,0,117,117,24,1
60df30c4e945892dc94a626c,63f3cfca20052e4ae7554ebf,6453ccd7830171360d046efe,2023-05-04_17h25.26.043,ga_syllabified_check,2022.2.5,Win32,75.05253678,,,,,,,,,,,,,,./stim/p08_syllable_1_tuliafo_hit.wav,p08,tuliafo,hit,tu-li-a-fo,tu-lia-fo,tu-li-a-fo, ,0.390769231,-0.104102564,1,0,0,1.3872,text_option_2,,0,118,118,203,1
60df30c4e945892dc94a626c,63f3cfca20052e4ae7554ebf,6453ccd7830171360d046efe,2023-05-04_17h25.26.043,ga_syllabified_check,2022.2.5,Win32,75.05253678,,,,,,,,,,,,,,./stim/p03_syllable_1_palufauto_hit.wav,p03,palufauto,hit,pa-lu-fau,pa-lu-fau-to,pa-lu-fa-u-to, ,-0.373333333,-0.105128205,1,0,0,1.3605,text_option_1,,0,119,119,26,1
60df30c4e945892dc94a626c,63f3cfca20052e4ae7554ebf,6453ccd7830171360d046efe,2023-05-04_17h25.26.043,ga_syllabified_check,2022.2.5,Win32,75.05253678,,,,,,,,,,,,,,./stim/p05_syllable_1_palutrauco_hit.wav,p05,palutrauco,hit,pa-lu-trai-co,pa-lu-trau-co,pa-lu-tra-u-co, ,0.063589744,-0.305128205,1,0,0,1.9377,text_option_other,palutraico,0,120,120,97,1
60df30c4e945892dc94a626c,63f3cfca20052e4ae7554ebf,6453ccd7830171360d046efe,2023-05-04_17h25.26.043,ga_syllabified_check,2022.2.5,Win32,75.05253678,,,,,,,,,,,,,,./stim/p06_syllable_1_flauro_hit.wav,p06,flauro,hit,fla-u-ro,flau-ro,fla-u-ro, ,0.417435897,-0.102051282,1,0,0,1.2512,text_option_2,,0,121,121,107,1
60df30c4e945892dc94a626c,63f3cfca20052e4ae7554ebf,6453ccd7830171360d046efe,2023-05-04_17h25.26.043,ga_syllabified_check,2022.2.5,Win32,75.05253678,,,,,,,,,,,,,,./stim/p08_syllable_1_falufaisto_hit.wav,p08,falufaisto,hit,fa-lu-fais-to,fa-lu-fais-to,fa-lu-fa-is-to, ,-0.373333333,-0.1,1,0,0,2.6058,text_option_1,,0,122,122,173,1
60df30c4e945892dc94a626c,63f3cfca20052e4ae7554ebf,6453ccd7830171360d046efe,2023-05-04_17h25.26.043,ga_syllabified_check,2022.2.5,Win32,75.05253678,,,,,,,,,,,,,,./stim/p04_syllable_1_palumaisto_hit.wav,p04,palumaisto,hit,pa-lu-mais-to,pa-lu-mais-to,pa-lu-ma-is-to, ,-0.364102564,-0.108205128,1,0,0,1.2671,text_option_1,,0,123,123,62,1
60df30c4e945892dc94a626c,63f3cfca20052e4ae7554ebf,6453ccd7830171360d046efe,2023-05-04_17h25.26.043,ga_syllabified_check,2022.2.5,Win32,75.05253678,,,,,,,,,,,,,,./stim/p08_syllable_1_lliape_hit.wav,p08,lliape,hit,li-a-pe,llia-pe,lli-a-pe, ,0.426666667,-0.097948718,1,0,0,2.6011,text_option_2,,0,124,124,190,1
60df30c4e945892dc94a626c,63f3cfca20052e4ae7554ebf,6453ccd7830171360d046efe,2023-05-04_17h25.26.043,ga_syllabified_check,2022.2.5,Win32,75.05253678,,,,,,,,,,,,,,./stim/p03_syllable_1_falufaisto_hit.wav,p03,falufaisto,hit,fa-lu-fais-to,fa-lu-fais-to,fa-lu-fa-is-to, ,-0.346666667,-0.096923077,1,0,0,1.3312,text_option_1,,0,125,125,3,1
60df30c4e945892dc94a626c,63f3cfca20052e4ae7554ebf,6453ccd7830171360d046efe,2023-05-04_17h25.26.043,ga_syllabified_check,2022.2.5,Win32,75.05253678,,,,,,,,,,,,,,./stim/p05_syllable_1_pachialo_hit.wav,p05,pachialo,hit,pan-chia-lo,pa-chia-lo,pa-chi-a-lo, ,-0.379487179,-0.091794872,1,0,0,1.4937,text_option_1,,0,126,126,92,1
60df30c4e945892dc94a626c,63f3cfca20052e4ae7554ebf,6453ccd7830171360d046efe,2023-05-04_17h25.26.043,ga_syllabified_check,2022.2.5,Win32,75.05253678,,,,,,,,,,,,,,./stim/p05_syllable_1_palumaisto_hit.wav,p05,palumaisto,hit,pa-lu-mais-to,pa-lu-mais-to,pa-lu-ma-is-to, ,-0.362051282,-0.113333333,1,0,0,7.52,text_option_1,,0,127,127,96,1
60df30c4e945892dc94a626c,63f3cfca20052e4ae7554ebf,6453ccd7830171360d046efe,2023-05-04_17h25.26.043,ga_syllabified_check,2022.2.5,Win32,75.05253678,,,,,,,,,,,,,,./stim/p08_syllable_1_lakabiaisto_hit.wav,p08,lakabiaisto,hit,la-ka-bi-as-to,la-ka-biais-to,la-ka-bi-ais-to,la-ka-bia-is-to,0.432820513,-0.105128205,1,0,0,3.0381,text_option_2,,0,128,128,176,1
60df30c4e945892dc94a626c,63f3cfca20052e4ae7554ebf,6453ccd7830171360d046efe,2023-05-04_17h25.26.043,ga_syllabified_check,2022.2.5,Win32,75.05253678,,,,,,,,,,,,,,./stim/p06_syllable_1_palufauro_hit.wav,p06,palufauro,hit,pa-lu-fau-ro,pa-lu-fau-ro,pa-lu-fa-u-ro, ,0.446153846,-0.113333333,1,0,0,3.9882,text_option_2,,0,129,129,127,1
60df30c4e945892dc94a626c,63f3cfca20052e4ae7554ebf,6453ccd7830171360d046efe,2023-05-04_17h25.26.043,ga_syllabified_check,2022.2.5,Win32,75.05253678,,,,,,,,,,,,,,./stim/p05_syllable_1_lakaduaisto_hit.wav,p05,lakaduaisto,hit,la-ka-dais-to,la-ka-duais-to,la-ka-du-ais-to,la-ka-dua-is-to,0.077948718,-0.321538462,1,0,0,1.273,text_option_other,lakadaisto,0,130,130,77,1
60df30c4e945892dc94a626c,63f3cfca20052e4ae7554ebf,6453ccd7830171360d046efe,2023-05-04_17h25.26.043,ga_syllabified_check,2022.2.5,Win32,75.05253678,,,,,,,,,,,,,,./stim/p05_syllable_1_lakabuaisto_hit.wav,p05,lakabuaisto,hit,la-ka-buais-to,la-ka-buais-to,la-ka-bu-ais-to,la-ka-bua-is-to,0.033846154,-0.314358974,1,0,0,1.3873,text_option_other,lakabaisto,0,131,131,75,1
60df30c4e945892dc94a626c,63f3cfca20052e4ae7554ebf,6453ccd7830171360d046efe,2023-05-04_17h25.26.043,ga_syllabified_check,2022.2.5,Win32,75.05253678,,,,,,,,,,,,,,./stim/p06_syllable_1_lakatuaisto_hit.wav,p06,lakatuaisto,hit,la-ka-tu-a-is,la-ka-tuais-to,la-ka-tu-ais-to,la-ka-tua-is-to,0.023589744,-0.11025641,1,0,0,7.4737,text_option_3,,0,132,132,121,1
60df30c4e945892dc94a626c,63f3cfca20052e4ae7554ebf,6453ccd7830171360d046efe,2023-05-04_17h25.26.043,ga_syllabified_check,2022.2.5,Win32,75.05253678,,,,,,,,,,,,,,./stim/p07_syllable_1_lliape_hit.wav,p07,lliape,hit,lliai-pe,llia-pe,lli-a-pe, ,-0.026666667,-0.298974359,1,0,0,1.7633,text_option_other,lliaipe,0,133,133,156,1
60df30c4e945892dc94a626c,63f3cfca20052e4ae7554ebf,6453ccd7830171360d046efe,2023-05-04_17h25.26.043,ga_syllabified_check,2022.2.5,Win32,75.05253678,,,,,,,,,,,,,,./stim/p06_syllable_1_lakaduaisto_hit.wav,p06,lakaduaisto,hit,la-ka-du-a-is,la-ka-duais-to,la-ka-du-ais-to,la-ka-dua-is-to,-0.056410256,-0.291794872,1,0,0,4.0683,text_option_other,la-ka-du-a-is-to,0,134,134,111,1
60df30c4e945892dc94a626c,63f3cfca20052e4ae7554ebf,6453ccd7830171360d046efe,2023-05-04_17h25.26.043,ga_syllabified_check,2022.2.5,Win32,75.05253678,,,,,,,,,,,,,,./stim/p07_syllable_1_palufauto_hit.wav,p07,palufauto,hit,pa-lu-fau-to,pa-lu-fau-to,pa-lu-fa-u-to, ,-0.363076923,-0.108205128,1,0,0,1.5963,text_option_1,,0,135,135,162,1
60df30c4e945892dc94a626c,63f3cfca20052e4ae7554ebf,6453ccd7830171360d046efe,2023-05-04_17h25.26.043,ga_syllabified_check,2022.2.5,Win32,75.05253678,,,,,,,,,,,,,,./stim/p07_syllable_1_lakafuaisto_hit.wav,p07,lakafuaisto,hit,la-ka-fuais-to,la-ka-fuais-to,la-ka-fu-ais-to,la-ka-fua-is-to,-0.339487179,-0.113333333,1,0,0,1.9865,text_option_1,,0,136,136,147,1
60df30c4e945892dc94a626c,63f3cfca20052e4ae7554ebf,6453ccd7830171360d046efe,2023-05-04_17h25.26.043,ga_syllabified_check,2022.2.5,Win32,75.05253678,,,,,,,,,,,,,,./stim/p04_syllable_1_payielo_hit.wav,p04,payielo,hit,pa-yie-lo,pa-yie-lo,pa-yi-e-lo, ,-0.414358974,-0.105128205,1,0,0,0.7913,text_option_1,,0,137,137,64,1
60df30c4e945892dc94a626c,63f3cfca20052e4ae7554ebf,6453ccd7830171360d046efe,2023-05-04_17h25.26.043,ga_syllabified_check,2022.2.5,Win32,75.05253678,,,,,,,,,,,,,,./stim/p04_syllable_1_lakapiaisto_hit.wav,p04,lakapiaisto,hit,la-ka-piais-to,la-ka-piais-to,la-ka-pi-ais-to,la-ka-pia-is-to,0.031794872,-0.298974359,1,0,0,1.3472,text_option_other,lakrapiaisto,0,138,138,50,1
60df30c4e945892dc94a626c,63f3cfca20052e4ae7554ebf,6453ccd7830171360d046efe,2023-05-04_17h25.26.043,ga_syllabified_check,2022.2.5,Win32,75.05253678,,,,,,,,,,,,,,./stim/p04_syllable_1_falufaisto_hit.wav,p04,falufaisto,hit,fa-lu-fais-to,fa-lu-fais-to,fa-lu-fa-is-to, ,-0.391794872,-0.113333333,1,0,0,6.6733,text_option_1,,0,139,139,37,1
60df30c4e945892dc94a626c,63f3cfca20052e4ae7554ebf,6453ccd7830171360d046efe,2023-05-04_17h25.26.043,ga_syllabified_check,2022.2.5,Win32,75.05253678,,,,,,,,,,,,,,./stim/p05_syllable_1_lakadiaisto_hit.wav,p05,lakadiaisto,hit,la-ka-di-ais-to,la-ka-diais-to,la-ka-di-ais-to,la-ka-dia-is-to,-0.398974359,-0.107179487,1,0,0,2.4679,text_option_1,,0,140,140,76,1
60df30c4e945892dc94a626c,63f3cfca20052e4ae7554ebf,6453ccd7830171360d046efe,2023-05-04_17h25.26.043,ga_syllabified_check,2022.2.5,Win32,75.05253678,,,,,,,,,,,,,,./stim/p03_syllable_1_lakagiaisto_hit.wav,p03,lakagiaisto,hit,la-ka-giais-to,la-ka-giais-to,la-ka-gi-ais-to,la-ka-gia-is-to,-0.358974359,-0.098974359,1,0,0,4.7141,text_option_1,,0,141,141,12,1
60df30c4e945892dc94a626c,63f3cfca20052e4ae7554ebf,6453ccd7830171360d046efe,2023-05-04_17h25.26.043,ga_syllabified_check,2022.2.5,Win32,75.05253678,,,,,,,,,,,,,,./stim/p04_syllable_1_lakapuaisto_hit.wav,p04,lakapuaisto,hit,la-ka-puais-to,la-ka-puais-to,la-ka-pu-ais-to,la-ka-pua-is-to,-0.366153846,-0.109230769,1,0,0,1.1028,text_option_1,,0,142,142,51,1
60df30c4e945892dc94a626c,63f3cfca20052e4ae7554ebf,6453ccd7830171360d046efe,2023-05-04_17h25.26.043,ga_syllabified_check,2022.2.5,Win32,75.05253678,,,,,,,,,,,,,,./stim/p04_syllable_1_lakatuaisto_hit.wav,p04,lakatuaisto,hit,la-ka-kuais-to,la-ka-tuais-to,la-ka-tu-ais-to,la-ka-tua-is-to,-0.366153846,-0.109230769,1,0,0,1.6212,text_option_1,,0,143,143,53,1
60df30c4e945892dc94a626c,63f3cfca20052e4ae7554ebf,6453ccd7830171360d046efe,2023-05-04_17h25.26.043,ga_syllabified_check,2022.2.5,Win32,75.05253678,,,,,,,,,,,,,,./stim/p03_syllable_1_lakatuaisto_hit.wav,p03,lakatuaisto,hit,la-ka-tuais-to,la-ka-tuais-to,la-ka-tu-ais-to,la-ka-tua-is-to,-0.366153846,-0.109230769,1,0,0,1.3474,text_option_1,,0,144,144,19,1
60df30c4e945892dc94a626c,63f3cfca20052e4ae7554ebf,6453ccd7830171360d046efe,2023-05-04_17h25.26.043,ga_syllabified_check,2022.2.5,Win32,75.05253678,,,,,,,,,,,,,,./stim/p05_syllable_1_falufaisto_hit.wav,p05,falufaisto,hit,fa-lu-fais-to,fa-lu-fais-to,fa-lu-fa-is-to, ,-0.366153846,-0.109230769,1,0,0,0.9207,text_option_1,,0,145,145,71,1
60df30c4e945892dc94a626c,63f3cfca20052e4ae7554ebf,6453ccd7830171360d046efe,2023-05-04_17h25.26.043,ga_syllabified_check,2022.2.5,Win32,75.05253678,,,,,,,,,,,,,,./stim/p05_syllable_1_palufauro_hit.wav,p05,palufauro,hit,pa-lu-fau-ro,pa-lu-fau-ro,pa-lu-fa-u-ro, ,-0.366153846,-0.109230769,1,0,0,0.827,text_option_1,,0,146,146,93,1
60df30c4e945892dc94a626c,63f3cfca20052e4ae7554ebf,6453ccd7830171360d046efe,2023-05-04_17h25.26.043,ga_syllabified_check,2022.2.5,Win32,75.05253678,,,,,,,,,,,,,,./stim/p08_syllable_1_lakaguaisto_hit.wav,p08,lakaguaisto,hit,la-ka-gu-ais-to,la-ka-guais-to,la-ka-gu-ais-to,la-ka-gua-is-to,0.413333333,-0.108205128,1,0,0,2.1843,text_option_2,,0,147,147,183,1
60df30c4e945892dc94a626c,63f3cfca20052e4ae7554ebf,6453ccd7830171360d046efe,2023-05-04_17h25.26.043,ga_syllabified_check,2022.2.5,Win32,75.05253678,,,,,,,,,,,,,,./stim/p04_syllable_1_lakabuaisto_hit.wav,p04,lakabuaisto,hit,la-ka-buais-to,la-ka-buais-to,la-ka-bu-ais-to,la-ka-bua-is-to,-0.301538462,-0.114358974,1,0,0,4.1531,text_option_1,,0,148,148,41,1
60df30c4e945892dc94a626c,63f3cfca20052e4ae7554ebf,6453ccd7830171360d046efe,2023-05-04_17h25.26.043,ga_syllabified_check,2022.2.5,Win32,75.05253678,,,,,,,,,,,,,,./stim/p03_syllable_1_lakadiaisto_hit.wav,p03,lakadiaisto,hit,la-ka-diais-to,la-ka-diais-to,la-ka-di-ais-to,la-ka-dia-is-to,-0.329230769,-0.108205128,1,0,0,1.9607,text_option_1,,0,149,149,8,1
60df30c4e945892dc94a626c,63f3cfca20052e4ae7554ebf,6453ccd7830171360d046efe,2023-05-04_17h25.26.043,ga_syllabified_check,2022.2.5,Win32,75.05253678,,,,,,,,,,,,,,./stim/p06_syllable_1_rausto_hit.wav,p06,rausto,hit,ra-us-to,raus-to,ra-us-to, ,0.435897436,-0.11025641,1,0,0,1.6406,text_option_2,,0,150,150,133,1
60df30c4e945892dc94a626c,63f3cfca20052e4ae7554ebf,6453ccd7830171360d046efe,2023-05-04_17h25.26.043,ga_syllabified_check,2022.2.5,Win32,75.05253678,,,,,,,,,,,,,,./stim/p06_syllable_1_lakagiaisto_hit.wav,p06,lakagiaisto,hit,la-ka-gia-is-to,la-ka-giais-to,la-ka-gi-ais-to,la-ka-gia-is-to,0.057435897,-0.115384615,1,0,0,4.1215,text_option_3,,0,151,151,114,1
60df30c4e945892dc94a626c,63f3cfca20052e4ae7554ebf,6453ccd7830171360d046efe,2023-05-04_17h25.26.043,ga_syllabified_check,2022.2.5,Win32,75.05253678,,,,,,,,,,,,,,./stim/p04_syllable_1_faluduako_hit.wav,p04,faluduako,hit,fa-lu-dua-ko,fa-lu-dua-ko,fa-lu-du-a-ko, ,-0.34974359,-0.106153846,1,0,0,0.8937,text_option_1,,0,152,152,36,1
60df30c4e945892dc94a626c,63f3cfca20052e4ae7554ebf,6453ccd7830171360d046efe,2023-05-04_17h25.26.043,ga_syllabified_check,2022.2.5,Win32,75.05253678,,,,,,,,,,,,,,./stim/p06_syllable_1_palufauto_hit.wav,p06,palufauto,hit,pa-lu-fau-to,pa-lu-fau-to,pa-lu-fa-u-to, ,-0.326153846,-0.111282051,1,0,0,3.0635,text_option_1,,0,153,153,128,1
60df30c4e945892dc94a626c,63f3cfca20052e4ae7554ebf,6453ccd7830171360d046efe,2023-05-04_17h25.26.043,ga_syllabified_check,2022.2.5,Win32,75.05253678,,,,,,,,,,,,,,./stim/p07_syllable_1_tuliafo_hit.wav,p07,tuliafo,hit,tu-lia-fo,tu-lia-fo,tu-li-a-fo, ,-0.357948718,-0.106153846,1,0,0,0.8906,text_option_1,,0,154,154,169,1
60df30c4e945892dc94a626c,63f3cfca20052e4ae7554ebf,6453ccd7830171360d046efe,2023-05-04_17h25.26.043,ga_syllabified_check,2022.2.5,Win32,75.05253678,,,,,,,,,,,,,,./stim/p03_syllable_1_palufauro_hit.wav,p03,palufauro,hit,pa-lu-fau-ro,pa-lu-fau-ro,pa-lu-fa-u-ro, ,-0.331282051,-0.107179487,1,0,0,1.2271,text_option_1,,0,155,155,25,1
60df30c4e945892dc94a626c,63f3cfca20052e4ae7554ebf,6453ccd7830171360d046efe,2023-05-04_17h25.26.043,ga_syllabified_check,2022.2.5,Win32,75.05253678,,,,,,,,,,,,,,./stim/p04_syllable_1_lakadiaisto_hit.wav,p04,lakadiaisto,hit,la-ka-dias-to,la-ka-diais-to,la-ka-di-ais-to,la-ka-dia-is-to,-0.314871795,-0.111282051,1,0,0,1.0235,text_option_1,,0,156,156,42,1
60df30c4e945892dc94a626c,63f3cfca20052e4ae7554ebf,6453ccd7830171360d046efe,2023-05-04_17h25.26.043,ga_syllabified_check,2022.2.5,Win32,75.05253678,,,,,,,,,,,,,,./stim/p07_syllable_1_lakapuaisto_hit.wav,p07,lakapuaisto,hit,la-ka-puais-to,la-ka-puais-to,la-ka-pu-ais-to,la-ka-pua-is-to,-0.322051282,-0.112307692,1,0,0,2.7555,text_option_1,,0,157,157,153,1
60df30c4e945892dc94a626c,63f3cfca20052e4ae7554ebf,6453ccd7830171360d046efe,2023-05-04_17h25.26.043,ga_syllabified_check,2022.2.5,Win32,75.05253678,,,,,,,,,,,,,,./stim/p07_syllable_1_lakabiaisto_hit.wav,p07,lakabiaisto,hit,la-ka-bais-to,la-ka-biais-to,la-ka-bi-ais-to,la-ka-bia-is-to,0.01025641,-0.315384615,1,0,0,2.201,text_option_other,la-ka-bais-to,0,158,158,142,1
60df30c4e945892dc94a626c,63f3cfca20052e4ae7554ebf,6453ccd7830171360d046efe,2023-05-04_17h25.26.043,ga_syllabified_check,2022.2.5,Win32,75.05253678,,,,,,,,,,,,,,./stim/p03_syllable_1_lakaduaisto_hit.wav,p03,lakaduaisto,hit,la-ka-duais-to,la-ka-duais-to,la-ka-du-ais-to,la-ka-dua-is-to,-0.324102564,-0.116410256,1,0,0,3.0235,text_option_1,,0,159,159,9,1
60df30c4e945892dc94a626c,63f3cfca20052e4ae7554ebf,6453ccd7830171360d046efe,2023-05-04_17h25.26.043,ga_syllabified_check,2022.2.5,Win32,75.05253678,,,,,,,,,,,,,,./stim/p05_syllable_1_lakapuaisto_hit.wav,p05,lakapuaisto,hit,la-ka-pais-to,la-ka-puais-to,la-ka-pu-ais-to,la-ka-pua-is-to,0.052307692,-0.313333333,1,0,0,2.3074,text_option_other,la-ka-pais-to,0,160,160,85,1
60df30c4e945892dc94a626c,63f3cfca20052e4ae7554ebf,6453ccd7830171360d046efe,2023-05-04_17h25.26.043,ga_syllabified_check,2022.2.5,Win32,75.05253678,,,,,,,,,,,,,,./stim/p07_syllable_1_payielo_hit.wav,p07,payielo,hit,pa-yie-lo,pa-yie-lo,pa-yi-e-lo, ,-0.342564103,-0.096923077,1,0,0,1.1312,text_option_1,,0,161,161,166,1
60df30c4e945892dc94a626c,63f3cfca20052e4ae7554ebf,6453ccd7830171360d046efe,2023-05-04_17h25.26.043,ga_syllabified_check,2022.2.5,Win32,75.05253678,,,,,,,,,,,,,,./stim/p07_syllable_1_mebochiana_hit.wav,p07,mebochiana,hit,me-bo-chia-na,me-bo-chia-na,me-bo-chi-a-na, ,-0.310769231,-0.11025641,1,0,0,2.1293,text_option_1,,0,162,162,158,1
60df30c4e945892dc94a626c,63f3cfca20052e4ae7554ebf,6453ccd7830171360d046efe,2023-05-04_17h25.26.043,ga_syllabified_check,2022.2.5,Win32,75.05253678,,,,,,,,,,,,,,./stim/p04_syllable_1_ruyiola_hit.wav,p04,ruyiola,hit,ru-yio-la,ru-yio-la,ru-yi-o-la, ,-0.346666667,-0.112307692,1,0,0,0.8223,text_option_1,,0,163,163,66,1
60df30c4e945892dc94a626c,63f3cfca20052e4ae7554ebf,6453ccd7830171360d046efe,2023-05-04_17h25.26.043,ga_syllabified_check,2022.2.5,Win32,75.05253678,,,,,,,,,,,,,,./stim/p06_syllable_1_lakabiaisto_hit.wav,p06,lakabiaisto,hit,la-ka-bia-is-to,la-ka-biais-to,la-ka-bi-ais-to,la-ka-bia-is-to,0.030769231,-0.086666667,1,0,0,3.9588,text_option_3,,0,164,164,108,1
60df30c4e945892dc94a626c,63f3cfca20052e4ae7554ebf,6453ccd7830171360d046efe,2023-05-04_17h25.26.043,ga_syllabified_check,2022.2.5,Win32,75.05253678,,,,,,,,,,,,,,./stim/p08_syllable_1_paluguato_hit.wav,p08,paluguato,hit,pa-lu-gua-to,pa-lu-gua-to,pa-lu-gu-a-to, ,-0.315897436,-0.108205128,1,0,0,1.6939,text_option_1,,0,165,165,197,1
60df30c4e945892dc94a626c,63f3cfca20052e4ae7554ebf,6453ccd7830171360d046efe,2023-05-04_17h25.26.043,ga_syllabified_check,2022.2.5,Win32,75.05253678,,,,,,,,,,,,,,./stim/p06_syllable_1_lakapiaisto_hit.wav,p06,lakapiaisto,hit,la-ka-pia-is-to,la-ka-piais-to,la-ka-pi-ais-to,la-ka-pia-is-to,0.068717949,-0.11025641,1,0,0,5.0015,text_option_3,,0,166,166,118,1
60df30c4e945892dc94a626c,63f3cfca20052e4ae7554ebf,6453ccd7830171360d046efe,2023-05-04_17h25.26.043,ga_syllabified_check,2022.2.5,Win32,75.05253678,,,,,,,,,,,,,,./stim/p06_syllable_1_nhiape_hit.wav,p06,ñiape,hit,nhi-a-pe,ñia-pe,ñi-a-pe, ,0.41025641,-0.112307692,1,0,0,1.8379,text_option_2,,0,167,167,125,1
60df30c4e945892dc94a626c,63f3cfca20052e4ae7554ebf,6453ccd7830171360d046efe,2023-05-04_17h25.26.043,ga_syllabified_check,2022.2.5,Win32,75.05253678,,,,,,,,,,,,,,./stim/p03_syllable_1_chiaba_hit.wav,p03,chiaba,hit,chia-ba,chia-ba,chi-a-ba, ,0.357948718,-0.117435897,1,0,0,5.5353,text_option_2,,0,168,168,0,1
60df30c4e945892dc94a626c,63f3cfca20052e4ae7554ebf,6453ccd7830171360d046efe,2023-05-04_17h25.26.043,ga_syllabified_check,2022.2.5,Win32,75.05253678,,,,,,,,,,,,,,./stim/p05_syllable_1_mebochiana_hit.wav,p05,mebochiana,hit,me-cho-chai-na,me-bo-chia-na,me-bo-chi-a-na, ,0.020512821,-0.309230769,1,0,0,1.0316,text_option_other,me-cho-cha-na,0,169,169,90,1
60df30c4e945892dc94a626c,63f3cfca20052e4ae7554ebf,6453ccd7830171360d046efe,2023-05-04_17h25.26.043,ga_syllabified_check,2022.2.5,Win32,75.05253678,,,,,,,,,,,,,,./stim/p07_syllable_1_manhiala_hit.wav,p07,mañiala,hit,ma-nhia-la,ma-ñia-la,ma-ñi-a-la, ,-0.351794872,-0.111282051,1,0,0,1.3377,text_option_1,,0,170,170,157,1
60df30c4e945892dc94a626c,63f3cfca20052e4ae7554ebf,6453ccd7830171360d046efe,2023-05-04_17h25.26.043,ga_syllabified_check,2022.2.5,Win32,75.05253678,,,,,,,,,,,,,,./stim/p03_syllable_1_paluguato_hit.wav,p03,paluguato,hit,pa-lu-gua,pa-lu-gua-to,pa-lu-gu-a-to, ,-0.383589744,-0.101025641,1,0,0,1.9741,text_option_1,,0,171,171,27,1
60df30c4e945892dc94a626c,63f3cfca20052e4ae7554ebf,6453ccd7830171360d046efe,2023-05-04_17h25.26.043,ga_syllabified_check,2022.2.5,Win32,75.05253678,,,,,,,,,,,,,,./stim/p05_syllable_1_chiaba_hit.wav,p05,chiaba,hit,chia-ba,chia-ba,chi-a-ba, ,0.081025641,-0.309230769,1,0,0,0.4935,text_option_other,chaiba,0,172,172,68,1
60df30c4e945892dc94a626c,63f3cfca20052e4ae7554ebf,6453ccd7830171360d046efe,2023-05-04_17h25.26.043,ga_syllabified_check,2022.2.5,Win32,75.05253678,,,,,,,,,,,,,,./stim/p07_syllable_1_lakakuaisto_hit.wav,p07,lakakuaisto,hit,la-ka-kuais-to,la-ka-kuais-to,la-ka-ku-ais-to,la-ka-kua-is-to,-0.347692308,-0.11025641,1,0,0,2.2277,text_option_1,,0,173,173,151,1
60df30c4e945892dc94a626c,63f3cfca20052e4ae7554ebf,6453ccd7830171360d046efe,2023-05-04_17h25.26.043,ga_syllabified_check,2022.2.5,Win32,75.05253678,,,,,,,,,,,,,,./stim/p03_syllable_1_ruyiola_hit.wav,p03,ruyiola,hit,ru-yio-la,ru-yio-la,ru-yi-o-la, ,-0.343589744,-0.106153846,1,0,0,0.6496,text_option_1,,0,174,174,32,1
60df30c4e945892dc94a626c,63f3cfca20052e4ae7554ebf,6453ccd7830171360d046efe,2023-05-04_17h25.26.043,ga_syllabified_check,2022.2.5,Win32,75.05253678,,,,,,,,,,,,,,./stim/p07_syllable_1_lakabuaisto_hit.wav,p07,lakabuaisto,hit,la-ka-buais-to,la-ka-buais-to,la-ka-bu-ais-to,la-ka-bua-is-to,-0.350769231,-0.107179487,1,0,0,2.3225,text_option_1,,0,175,175,143,1
60df30c4e945892dc94a626c,63f3cfca20052e4ae7554ebf,6453ccd7830171360d046efe,2023-05-04_17h25.26.043,ga_syllabified_check,2022.2.5,Win32,75.05253678,,,,,,,,,,,,,,./stim/p08_syllable_1_lakatuaisto_hit.wav,p08,lakatuaisto,hit,la-ka-tu-i-jis,la-ka-tuais-to,la-ka-tu-ais-to,la-ka-tua-is-to,-0.025641026,-0.294871795,1,0,0,4.1352,text_option_other,lakatuisto,0,176,176,189,1
60df30c4e945892dc94a626c,63f3cfca20052e4ae7554ebf,6453ccd7830171360d046efe,2023-05-04_17h25.26.043,ga_syllabified_check,2022.2.5,Win32,75.05253678,,,,,,,,,,,,,,./stim/p04_syllable_1_tuliafo_hit.wav,p04,tuliafo,hit,tu-lia-fo,tu-lia-fo,tu-li-a-fo, ,-0.406153846,-0.090769231,1,0,0,0.5635,text_option_1,,0,177,177,67,1
60df30c4e945892dc94a626c,63f3cfca20052e4ae7554ebf,6453ccd7830171360d046efe,2023-05-04_17h25.26.043,ga_syllabified_check,2022.2.5,Win32,75.05253678,,,,,,,,,,,,,,./stim/p05_syllable_1_tuliafo_hit.wav,p05,tuliafo,hit,tu-lai-fo,tu-lia-fo,tu-li-a-fo, ,0.068717949,-0.316410256,1,0,0,0.9604,text_option_other,tulaifo,0,178,178,101,1
60df30c4e945892dc94a626c,63f3cfca20052e4ae7554ebf,6453ccd7830171360d046efe,2023-05-04_17h25.26.043,ga_syllabified_check,2022.2.5,Win32,75.05253678,,,,,,,,,,,,,,./stim/p05_syllable_1_faluduako_hit.wav,p05,faluduako,hit,fa-lu-ba-ko,fa-lu-dua-ko,fa-lu-du-a-ko, ,0.038974359,-0.287692308,1,0,0,1.0416,text_option_other,faludaiko,0,179,179,70,1
60df30c4e945892dc94a626c,63f3cfca20052e4ae7554ebf,6453ccd7830171360d046efe,2023-05-04_17h25.26.043,ga_syllabified_check,2022.2.5,Win32,75.05253678,,,,,,,,,,,,,,./stim/p08_syllable_1_lakapiaisto_hit.wav,p08,lakapiaisto,hit,la-ka-pi-as-to,la-ka-piais-to,la-ka-pi-ais-to,la-ka-pia-is-to,0.449230769,-0.106153846,1,0,0,5.4687,text_option_2,,0,180,180,186,1
60df30c4e945892dc94a626c,63f3cfca20052e4ae7554ebf,6453ccd7830171360d046efe,2023-05-04_17h25.26.043,ga_syllabified_check,2022.2.5,Win32,75.05253678,,,,,,,,,,,,,,./stim/p03_syllable_1_lliape_hit.wav,p03,lliape,hit,llia,llia-pe,lli-a-pe, ,-0.396923077,-0.097948718,1,0,0,0.6894,text_option_1,,0,181,181,20,1
60df30c4e945892dc94a626c,63f3cfca20052e4ae7554ebf,6453ccd7830171360d046efe,2023-05-04_17h25.26.043,ga_syllabified_check,2022.2.5,Win32,75.05253678,,,,,,,,,,,,,,./stim/p08_syllable_1_lakakiaisto_hit.wav,p08,lakakiaisto,hit,la-ka-ki-jas-to,la-ka-kiais-to,la-ka-ki-ais-to,la-ka-kia-is-to,-0.336410256,-0.103076923,1,0,0,5.2346,text_option_1,,0,182,182,184,1
60df30c4e945892dc94a626c,63f3cfca20052e4ae7554ebf,6453ccd7830171360d046efe,2023-05-04_17h25.26.043,ga_syllabified_check,2022.2.5,Win32,75.05253678,,,,,,,,,,,,,,./stim/p05_syllable_1_rausto_hit.wav,p05,rausto,hit,raus-to,raus-to,ra-us-to, ,-0.373333333,-0.103076923,1,0,0,0.4619,text_option_1,,0,183,183,99,1
60df30c4e945892dc94a626c,63f3cfca20052e4ae7554ebf,6453ccd7830171360d046efe,2023-05-04_17h25.26.043,ga_syllabified_check,2022.2.5,Win32,75.05253678,,,,,,,,,,,,,,./stim/p03_syllable_1_rausto_hit.wav,p03,rausto,hit,raus-to,raus-to,ra-us-to, ,-0.373333333,-0.108205128,1,0,0,0.8802,text_option_1,,0,184,184,31,1
60df30c4e945892dc94a626c,63f3cfca20052e4ae7554ebf,6453ccd7830171360d046efe,2023-05-04_17h25.26.043,ga_syllabified_check,2022.2.5,Win32,75.05253678,,,,,,,,,,,,,,./stim/p07_syllable_1_costonhialo_hit.wav,p07,costoñialo,hit,cos-to-nhia-lo,cos-to-ñia-lo,cos-to-ñi-a-lo, ,-0.346666667,-0.105128205,1,0,0,1.9433,text_option_1,,0,185,185,137,1
60df30c4e945892dc94a626c,63f3cfca20052e4ae7554ebf,6453ccd7830171360d046efe,2023-05-04_17h25.26.043,ga_syllabified_check,2022.2.5,Win32,75.05253678,,,,,,,,,,,,,,./stim/p06_syllable_1_lakabuaisto_hit.wav,p06,lakabuaisto,hit,la-ka-bu-a-is,la-ka-buais-to,la-ka-bu-ais-to,la-ka-bua-is-to,0.075897436,-0.294871795,1,0,0,5.4954,text_option_other,la-ka-bu-ais-to,0,186,186,109,1
60df30c4e945892dc94a626c,63f3cfca20052e4ae7554ebf,6453ccd7830171360d046efe,2023-05-04_17h25.26.043,ga_syllabified_check,2022.2.5,Win32,75.05253678,,,,,,,,,,,,,,./stim/p05_syllable_1_lakatiaisto_hit.wav,p05,lakatiaisto,hit,la-ka-ti-ais-to,la-ka-tiais-to,la-ka-ti-ais-to,la-ka-tia-is-to,-0.341538462,-0.106153846,1,0,0,2.0433,text_option_1,,0,187,187,86,1
60df30c4e945892dc94a626c,63f3cfca20052e4ae7554ebf,6453ccd7830171360d046efe,2023-05-04_17h25.26.043,ga_syllabified_check,2022.2.5,Win32,75.05253678,,,,,,,,,,,,,,./stim/p06_syllable_1_lakafiaisto_hit.wav,p06,lakafiaisto,hit,la-ka-fia-is-to,la-ka-fiais-to,la-ka-fi-ais-to,la-ka-fia-is-to,0.043076923,-0.11025641,1,0,0,3.0745,text_option_3,,0,188,188,112,1
60df30c4e945892dc94a626c,63f3cfca20052e4ae7554ebf,6453ccd7830171360d046efe,2023-05-04_17h25.26.043,ga_syllabified_check,2022.2.5,Win32,75.05253678,,,,,,,,,,,,,,./stim/p06_syllable_1_costonhialo_hit.wav,p06,costoñialo,hit,cos-to-nhia-lo,cos-to-ñia-lo,cos-to-ñi-a-lo, ,-0.377435897,-0.104102564,1,0,0,2.5929,text_option_1,,0,189,189,103,1
60df30c4e945892dc94a626c,63f3cfca20052e4ae7554ebf,6453ccd7830171360d046efe,2023-05-04_17h25.26.043,ga_syllabified_check,2022.2.5,Win32,75.05253678,,,,,,,,,,,,,,./stim/p04_syllable_1_rausto_hit.wav,p04,rausto,hit,raus-to,raus-to,ra-us-to, ,-0.366153846,-0.11025641,1,0,0,0.3125,text_option_1,,0,190,190,65,1
60df30c4e945892dc94a626c,63f3cfca20052e4ae7554ebf,6453ccd7830171360d046efe,2023-05-04_17h25.26.043,ga_syllabified_check,2022.2.5,Win32,75.05253678,,,,,,,,,,,,,,./stim/p07_syllable_1_falufaisto_hit.wav,p07,falufaisto,hit,fa-lu-fais-to,fa-lu-fais-to,fa-lu-fa-is-to, ,-0.32,-0.105128205,1,0,0,2.089,text_option_1,,0,191,191,139,1
60df30c4e945892dc94a626c,63f3cfca20052e4ae7554ebf,6453ccd7830171360d046efe,2023-05-04_17h25.26.043,ga_syllabified_check,2022.2.5,Win32,75.05253678,,,,,,,,,,,,,,./stim/p07_syllable_1_nhiape_hit.wav,p07,ñiape,hit,nhia-pe,ñia-pe,ñi-a-pe, ,-0.37025641,-0.098974359,1,0,0,0.4032,text_option_1,,0,192,192,159,1
60df30c4e945892dc94a626c,63f3cfca20052e4ae7554ebf,6453ccd7830171360d046efe,2023-05-04_17h25.26.043,ga_syllabified_check,2022.2.5,Win32,75.05253678,,,,,,,,,,,,,,./stim/p06_syllable_1_lakapuaisto_hit.wav,p06,lakapuaisto,hit,la-ka-pu-a-is,la-ka-puais-to,la-ka-pu-ais-to,la-ka-pua-is-to,0.003076923,-0.313333333,1,0,0,4.9274,text_option_other,la-ka-pu-a-is-to,0,193,193,119,1
60df30c4e945892dc94a626c,63f3cfca20052e4ae7554ebf,6453ccd7830171360d046efe,2023-05-04_17h25.26.043,ga_syllabified_check,2022.2.5,Win32,75.05253678,,,,,,,,,,,,,,./stim/p07_syllable_1_lakafiaisto_hit.wav,p07,lakafiaisto,hit,la-ka-fiais-to,la-ka-fiais-to,la-ka-fi-ais-to,la-ka-fia-is-to,-0.388717949,-0.107179487,1,0,0,2.5314,text_option_1,,0,194,194,146,1
60df30c4e945892dc94a626c,63f3cfca20052e4ae7554ebf,6453ccd7830171360d046efe,2023-05-04_17h25.26.043,ga_syllabified_check,2022.2.5,Win32,75.05253678,,,,,,,,,,,,,,./stim/p07_syllable_1_lakagiaisto_hit.wav,p07,lakagiaisto,hit,la-ka-gais-to,la-ka-giais-to,la-ka-gi-ais-to,la-ka-gia-is-to,0.004102564,-0.308205128,1,0,0,1.4068,text_option_other,lakagaisto,0,195,195,148,1
60df30c4e945892dc94a626c,63f3cfca20052e4ae7554ebf,6453ccd7830171360d046efe,2023-05-04_17h25.26.043,ga_syllabified_check,2022.2.5,Win32,75.05253678,,,,,,,,,,,,,,./stim/p04_syllable_1_palutrauco_hit.wav,p04,palutrauco,hit,pa-lu-trau-co,pa-lu-trau-co,pa-lu-tra-u-co, ,-0.404102564,-0.104102564,1,0,0,2.0361,text_option_1,,0,196,196,63,1
60df30c4e945892dc94a626c,63f3cfca20052e4ae7554ebf,6453ccd7830171360d046efe,2023-05-04_17h25.26.043,ga_syllabified_check,2022.2.5,Win32,75.05253678,,,,,,,,,,,,,,./stim/p03_syllable_1_lakapuaisto_hit.wav,p03,lakapuaisto,hit,la-ka-puais-to,la-ka-puais-to,la-ka-pu-ais-to,la-ka-pua-is-to,-0.372307692,-0.104102564,1,0,0,1.4541,text_option_1,,0,197,197,17,1
60df30c4e945892dc94a626c,63f3cfca20052e4ae7554ebf,6453ccd7830171360d046efe,2023-05-04_17h25.26.043,ga_syllabified_check,2022.2.5,Win32,75.05253678,,,,,,,,,,,,,,./stim/p03_syllable_1_flauro_hit.wav,p03,flauro,hit,flau-ro,flau-ro,fla-u-ro, ,-0.427692308,-0.107179487,1,0,0,0.8735,text_option_1,,0,198,198,5,1
60df30c4e945892dc94a626c,63f3cfca20052e4ae7554ebf,6453ccd7830171360d046efe,2023-05-04_17h25.26.043,ga_syllabified_check,2022.2.5,Win32,75.05253678,,,,,,,,,,,,,,./stim/p06_syllable_1_falufaisto_hit.wav,p06,falufaisto,hit,fa-lu-fa-is-to,fa-lu-fais-to,fa-lu-fa-is-to, ,0.45025641,-0.105128205,1,0,0,2.4008,text_option_2,,0,199,199,105,1
60df30c4e945892dc94a626c,63f3cfca20052e4ae7554ebf,6453ccd7830171360d046efe,2023-05-04_17h25.26.043,ga_syllabified_check,2022.2.5,Win32,75.05253678,,,,,,,,,,,,,,./stim/p05_syllable_1_paluguato_hit.wav,p05,paluguato,hit,pa-lu-gau-to,pa-lu-gua-to,pa-lu-gu-a-to, ,0.112820513,-0.305128205,1,0,0,2.2474,text_option_other,palukauto,0,200,200,95,1
60df30c4e945892dc94a626c,63f3cfca20052e4ae7554ebf,6453ccd7830171360d046efe,2023-05-04_17h25.26.043,ga_syllabified_check,2022.2.5,Win32,75.05253678,,,,,,,,,,,,,,./stim/p03_syllable_1_lakafuaisto_hit.wav,p03,lakafuaisto,hit,la-ka-fuais-to,la-ka-fuais-to,la-ka-fu-ais-to,la-ka-fua-is-to,-0.4,-0.106153846,1,0,0,1.3823,text_option_1,,0,201,201,11,1
60df30c4e945892dc94a626c,63f3cfca20052e4ae7554ebf,6453ccd7830171360d046efe,2023-05-04_17h25.26.043,ga_syllabified_check,2022.2.5,Win32,75.05253678,,,,,,,,,,,,,,./stim/p08_syllable_1_lakaduaisto_hit.wav,p08,lakaduaisto,hit,la-ka-du-ais-to,la-ka-duais-to,la-ka-du-ais-to,la-ka-dua-is-to,0.046153846,-0.104102564,1,0,0,2.6944,text_option_3,,0,202,202,179,1
60df30c4e945892dc94a626c,63f3cfca20052e4ae7554ebf,6453ccd7830171360d046efe,2023-05-04_17h25.26.043,ga_syllabified_check,2022.2.5,Win32,75.05253678,,,,,,,,,,,,,,./stim/p07_syllable_1_lakakiaisto_hit.wav,p07,lakakiaisto,hit,la-ka-kais-to,la-ka-kiais-to,la-ka-ki-ais-to,la-ka-kia-is-to,0.037948718,-0.3,1,0,0,2.3741,text_option_other,lakakaisto,0,203,203,150,1
60df30c4e945892dc94a626c,63f3cfca20052e4ae7554ebf,6453ccd7830171360d046efe,2023-05-04_17h25.26.043,ga_syllabified_check,2022.2.5,Win32,75.05253678,,,,,,,,,,,,,,,,,,,,,,,,,,,,,,,,,,
