participant,study,session,date,expName,psychopyVersion,OS,frameRate,mouse_practice.x,mouse_practice.y,mouse_practice.leftButton,mouse_practice.midButton,mouse_practice.rightButton,mouse_practice.time,mouse_practice.clicked_name,textbox_followup_practice.text,trials_practice.thisRepN,trials_practice.thisTrialN,trials_practice.thisN,trials_practice.thisIndex,trials_practice.ran,file_path,id,item,status,response,op1,op2,op3,mouse.x,mouse.y,mouse.leftButton,mouse.midButton,mouse.rightButton,mouse.time,mouse.clicked_name,textbox_followup.text,trials.thisRepN,trials.thisTrialN,trials.thisN,trials.thisIndex,trials.ran
60e635a7f60d7042bcd17169,63f3cfca20052e4ae7554ebf,6453c7906209feb0630c645f,2023-05-04_17h07.29.166,ga_syllabified_check,2022.2.5,Win32,60.42661188,,,,,,,,,,,,,,,,,,,,,,,,,,,,,,,,,,
60e635a7f60d7042bcd17169,63f3cfca20052e4ae7554ebf,6453c7906209feb0630c645f,2023-05-04_17h07.29.166,ga_syllabified_check,2022.2.5,Win32,60.42661188,0.402777778,-0.102777778,1,0,0,3.6002,text_option_2_practice,,0,0,0,0,1,./stim/p03_syllable_1_liamo_hit.wav,p03,liamo,hit,lia-mo,lia-mo,li-a-mo, ,,,,,,,,,,,,,
60e635a7f60d7042bcd17169,63f3cfca20052e4ae7554ebf,6453c7906209feb0630c645f,2023-05-04_17h07.29.166,ga_syllabified_check,2022.2.5,Win32,60.42661188,-0.393518519,-0.109259259,1,0,0,3.019,text_option_1_practice,,0,1,1,1,1,./stim/p05_syllable_1_matio_hit.wav,p05,matio,hit,ma-tio,ma-tio,ma-ti-o, ,,,,,,,,,,,,,
60e635a7f60d7042bcd17169,63f3cfca20052e4ae7554ebf,6453c7906209feb0630c645f,2023-05-04_17h07.29.166,ga_syllabified_check,2022.2.5,Win32,60.42661188,0.403703704,-0.103703704,1,0,0,2.974,text_option_2_practice,,0,2,2,2,1,./stim/p08_syllable_1_liamo_hit.wav,p08,liamo,hit,ja-mo,lia-mo,li-a-mo, ,,,,,,,,,,,,,
60e635a7f60d7042bcd17169,63f3cfca20052e4ae7554ebf,6453c7906209feb0630c645f,2023-05-04_17h07.29.166,ga_syllabified_check,2022.2.5,Win32,60.42661188,,,,,,,,,,,,,,,,,,,,,,,,,,,,,,,,,,
60e635a7f60d7042bcd17169,63f3cfca20052e4ae7554ebf,6453c7906209feb0630c645f,2023-05-04_17h07.29.166,ga_syllabified_check,2022.2.5,Win32,60.42661188,,,,,,,,,,,,,,./stim/p03_syllable_1_paluguato_hit.wav,p03,paluguato,hit,pa-lu-gua,pa-lu-gua-to,pa-lu-gu-a-to, ,-0.325,-0.106481481,1,0,0,1.233,text_option_1,,0,0,0,27,1
60e635a7f60d7042bcd17169,63f3cfca20052e4ae7554ebf,6453c7906209feb0630c645f,2023-05-04_17h07.29.166,ga_syllabified_check,2022.2.5,Win32,60.42661188,,,,,,,,,,,,,,./stim/p06_syllable_1_lakaguaisto_hit.wav,p06,lakaguaisto,hit,la-ka-gu-a-is,la-ka-guais-to,la-ka-gu-ais-to,la-ka-gua-is-to,0.490740741,-0.12037037,1,0,0,5.4153,text_option_2,,0,1,1,115,1
60e635a7f60d7042bcd17169,63f3cfca20052e4ae7554ebf,6453c7906209feb0630c645f,2023-05-04_17h07.29.166,ga_syllabified_check,2022.2.5,Win32,60.42661188,,,,,,,,,,,,,,./stim/p08_syllable_1_lakafiaisto_hit.wav,p08,lakafiaisto,hit,la-ka-fi-as-to,la-ka-fiais-to,la-ka-fi-ais-to,la-ka-fia-is-to,0.058333333,-0.294444444,1,0,0,4.5001,text_option_other,la-ka-fi-as-ti,0,2,2,180,1
60e635a7f60d7042bcd17169,63f3cfca20052e4ae7554ebf,6453c7906209feb0630c645f,2023-05-04_17h07.29.166,ga_syllabified_check,2022.2.5,Win32,60.42661188,,,,,,,,,,,,,,./stim/p07_syllable_1_palufauro_hit.wav,p07,palufauro,hit,pa-lu-fau-ro,pa-lu-fau-ro,pa-lu-fa-u-ro, ,-0.344444444,-0.100925926,1,0,0,2.9489,text_option_1,,0,3,3,161,1
60e635a7f60d7042bcd17169,63f3cfca20052e4ae7554ebf,6453c7906209feb0630c645f,2023-05-04_17h07.29.166,ga_syllabified_check,2022.2.5,Win32,60.42661188,,,,,,,,,,,,,,./stim/p06_syllable_1_ruyiola_hit.wav,p06,ruyiola,hit,ru-yi-o-la,ru-yio-la,ru-yi-o-la, ,-0.331910352,-0.106189968,1,0,0,17.3837,text_option_1,,0,4,4,134,1
60e635a7f60d7042bcd17169,63f3cfca20052e4ae7554ebf,6453c7906209feb0630c645f,2023-05-04_17h07.29.166,ga_syllabified_check,2022.2.5,Win32,60.42661188,,,,,,,,,,,,,,./stim/p06_syllable_1_faluduako_hit.wav,p06,faluduako,hit,fa-lu-dua-ko,fa-lu-dua-ko,fa-lu-du-a-ko, ,-0.463180363,-0.106189968,1,0,0,3.1006,text_option_1,,0,5,5,104,1
60e635a7f60d7042bcd17169,63f3cfca20052e4ae7554ebf,6453c7906209feb0630c645f,2023-05-04_17h07.29.166,ga_syllabified_check,2022.2.5,Win32,60.42661188,,,,,,,,,,,,,,./stim/p05_syllable_1_lakakuaisto_hit.wav,p05,lakakuaisto,hit,la-ka-kais-to,la-ka-kuais-to,la-ka-ku-ais-to,la-ka-kua-is-to,0.039487727,-0.10832444,1,0,0,57.9085,text_option_3,,0,6,6,83,1
60e635a7f60d7042bcd17169,63f3cfca20052e4ae7554ebf,6453c7906209feb0630c645f,2023-05-04_17h07.29.166,ga_syllabified_check,2022.2.5,Win32,60.42661188,,,,,,,,,,,,,,./stim/p08_syllable_1_lakapiaisto_hit.wav,p08,lakapiaisto,hit,la-ka-pi-as-to,la-ka-piais-to,la-ka-pi-ais-to,la-ka-pia-is-to,0.024546425,-0.302561366,1,0,0,6.2172,text_option_other,la-ka-pi-as-to,0,7,7,186,1
60e635a7f60d7042bcd17169,63f3cfca20052e4ae7554ebf,6453c7906209feb0630c645f,2023-05-04_17h07.29.166,ga_syllabified_check,2022.2.5,Win32,60.42661188,,,,,,,,,,,,,,./stim/p08_syllable_1_manhiala_hit.wav,p08,mañiala,hit,ma-nhia-la,ma-ñia-la,ma-ñi-a-la, ,-0.374074074,-0.094444444,1,0,0,1.8002,text_option_1,,0,8,8,191,1
60e635a7f60d7042bcd17169,63f3cfca20052e4ae7554ebf,6453c7906209feb0630c645f,2023-05-04_17h07.29.166,ga_syllabified_check,2022.2.5,Win32,60.42661188,,,,,,,,,,,,,,./stim/p07_syllable_1_faluduako_hit.wav,p07,faluduako,hit,fa-lu-dua-ko,fa-lu-dua-ko,fa-lu-du-a-ko, ,-0.328703704,-0.106481481,1,0,0,2.0001,text_option_1,,0,9,9,138,1
60e635a7f60d7042bcd17169,63f3cfca20052e4ae7554ebf,6453c7906209feb0630c645f,2023-05-04_17h07.29.166,ga_syllabified_check,2022.2.5,Win32,60.42661188,,,,,,,,,,,,,,./stim/p05_syllable_1_lakaguaisto_hit.wav,p05,lakaguaisto,hit,la-ka-gais,la-ka-guais-to,la-ka-gu-ais-to,la-ka-gua-is-to,-0.099074074,-0.287037037,1,0,0,3.9176,text_option_other,la-ka-gais-to,0,10,10,81,1
60e635a7f60d7042bcd17169,63f3cfca20052e4ae7554ebf,6453c7906209feb0630c645f,2023-05-04_17h07.29.166,ga_syllabified_check,2022.2.5,Win32,60.42661188,,,,,,,,,,,,,,./stim/p07_syllable_1_lakabiaisto_hit.wav,p07,lakabiaisto,hit,la-ka-bais-to,la-ka-biais-to,la-ka-bi-ais-to,la-ka-bia-is-to,-0.038888889,-0.287037037,1,0,0,6.351,text_option_other,la-ka-bais-to,0,11,11,142,1
60e635a7f60d7042bcd17169,63f3cfca20052e4ae7554ebf,6453c7906209feb0630c645f,2023-05-04_17h07.29.166,ga_syllabified_check,2022.2.5,Win32,60.42661188,,,,,,,,,,,,,,./stim/p04_syllable_1_lakabiaisto_hit.wav,p04,lakabiaisto,hit,la-ka-biais-to,la-ka-biais-to,la-ka-bi-ais-to,la-ka-bia-is-to,-0.328703704,-0.107407407,1,0,0,2.9004,text_option_1,,0,12,12,40,1
60e635a7f60d7042bcd17169,63f3cfca20052e4ae7554ebf,6453c7906209feb0630c645f,2023-05-04_17h07.29.166,ga_syllabified_check,2022.2.5,Win32,60.42661188,,,,,,,,,,,,,,./stim/p07_syllable_1_falufaisto_hit.wav,p07,falufaisto,hit,fa-lu-fais-to,fa-lu-fais-to,fa-lu-fa-is-to, ,-0.391666667,-0.106481481,1,0,0,1.9006,text_option_1,,0,13,13,139,1
60e635a7f60d7042bcd17169,63f3cfca20052e4ae7554ebf,6453c7906209feb0630c645f,2023-05-04_17h07.29.166,ga_syllabified_check,2022.2.5,Win32,60.42661188,,,,,,,,,,,,,,./stim/p05_syllable_1_faluduako_hit.wav,p05,faluduako,hit,fa-lu-ba-ko,fa-lu-dua-ko,fa-lu-du-a-ko, ,-0.373148148,-0.102777778,1,0,0,1.6161,text_option_1,,0,14,14,70,1
60e635a7f60d7042bcd17169,63f3cfca20052e4ae7554ebf,6453c7906209feb0630c645f,2023-05-04_17h07.29.166,ga_syllabified_check,2022.2.5,Win32,60.42661188,,,,,,,,,,,,,,./stim/p04_syllable_1_paluguato_hit.wav,p04,paluguato,hit,pa-lu-gua,pa-lu-gua-to,pa-lu-gu-a-to, ,-0.359259259,-0.100925926,1,0,0,0.9009,text_option_1,,0,15,15,61,1
60e635a7f60d7042bcd17169,63f3cfca20052e4ae7554ebf,6453c7906209feb0630c645f,2023-05-04_17h07.29.166,ga_syllabified_check,2022.2.5,Win32,60.42661188,,,,,,,,,,,,,,./stim/p04_syllable_1_lakakuaisto_hit.wav,p04,lakakuaisto,hit,la-ka-kuais-to,la-ka-kuais-to,la-ka-ku-ais-to,la-ka-kua-is-to,-0.397222222,-0.107407407,1,0,0,0.9172,text_option_1,,0,16,16,49,1
60e635a7f60d7042bcd17169,63f3cfca20052e4ae7554ebf,6453c7906209feb0630c645f,2023-05-04_17h07.29.166,ga_syllabified_check,2022.2.5,Win32,60.42661188,,,,,,,,,,,,,,./stim/p03_syllable_1_lakabiaisto_hit.wav,p03,lakabiaisto,hit,la-ka-biais-to,la-ka-biais-to,la-ka-bi-ais-to,la-ka-bia-is-to,-0.375925926,-0.108333333,1,0,0,1.2168,text_option_1,,0,17,17,6,1
60e635a7f60d7042bcd17169,63f3cfca20052e4ae7554ebf,6453c7906209feb0630c645f,2023-05-04_17h07.29.166,ga_syllabified_check,2022.2.5,Win32,60.42661188,,,,,,,,,,,,,,./stim/p07_syllable_1_paluguato_hit.wav,p07,paluguato,hit,pa-lu-gua-to,pa-lu-gua-to,pa-lu-gu-a-to, ,-0.369444444,-0.106481481,1,0,0,1.1511,text_option_1,,0,18,18,163,1
60e635a7f60d7042bcd17169,63f3cfca20052e4ae7554ebf,6453c7906209feb0630c645f,2023-05-04_17h07.29.166,ga_syllabified_check,2022.2.5,Win32,60.42661188,,,,,,,,,,,,,,./stim/p05_syllable_1_mebochiana_hit.wav,p05,mebochiana,hit,me-cho-chai-na,me-bo-chia-na,me-bo-chi-a-na, ,0.011111111,-0.294444444,1,0,0,9.917,text_option_other,mechochiana,0,19,19,90,1
60e635a7f60d7042bcd17169,63f3cfca20052e4ae7554ebf,6453c7906209feb0630c645f,2023-05-04_17h07.29.166,ga_syllabified_check,2022.2.5,Win32,60.42661188,,,,,,,,,,,,,,./stim/p03_syllable_1_rausto_hit.wav,p03,rausto,hit,raus-to,raus-to,ra-us-to, ,-0.389814815,-0.122222222,1,0,0,0.7492,text_option_1,,0,20,20,31,1
60e635a7f60d7042bcd17169,63f3cfca20052e4ae7554ebf,6453c7906209feb0630c645f,2023-05-04_17h07.29.166,ga_syllabified_check,2022.2.5,Win32,60.42661188,,,,,,,,,,,,,,./stim/p06_syllable_1_lliape_hit.wav,p06,lliape,hit,lli-lla-pe,llia-pe,lli-a-pe, ,0.375925926,-0.097222222,1,0,0,1.4368,text_option_2,,0,21,21,122,1
60e635a7f60d7042bcd17169,63f3cfca20052e4ae7554ebf,6453c7906209feb0630c645f,2023-05-04_17h07.29.166,ga_syllabified_check,2022.2.5,Win32,60.42661188,,,,,,,,,,,,,,./stim/p06_syllable_1_costonhialo_hit.wav,p06,costoñialo,hit,cos-to-nhia-lo,cos-to-ñia-lo,cos-to-ñi-a-lo, ,-0.346296296,-0.110185185,1,0,0,2.2005,text_option_1,,0,22,22,103,1
60e635a7f60d7042bcd17169,63f3cfca20052e4ae7554ebf,6453c7906209feb0630c645f,2023-05-04_17h07.29.166,ga_syllabified_check,2022.2.5,Win32,60.42661188,,,,,,,,,,,,,,./stim/p06_syllable_1_palutrauco_hit.wav,p06,palutrauco,hit,pa-lu-tra-u-co,pa-lu-trau-co,pa-lu-tra-u-co, ,0.401851852,-0.105555556,1,0,0,1.6687,text_option_2,,0,23,23,131,1
60e635a7f60d7042bcd17169,63f3cfca20052e4ae7554ebf,6453c7906209feb0630c645f,2023-05-04_17h07.29.166,ga_syllabified_check,2022.2.5,Win32,60.42661188,,,,,,,,,,,,,,./stim/p03_syllable_1_lakafuaisto_hit.wav,p03,lakafuaisto,hit,la-ka-fuais-to,la-ka-fuais-to,la-ka-fu-ais-to,la-ka-fua-is-to,-0.362037037,-0.110185185,1,0,0,1.1669,text_option_1,,0,24,24,11,1
60e635a7f60d7042bcd17169,63f3cfca20052e4ae7554ebf,6453c7906209feb0630c645f,2023-05-04_17h07.29.166,ga_syllabified_check,2022.2.5,Win32,60.42661188,,,,,,,,,,,,,,./stim/p06_syllable_1_lakaduaisto_hit.wav,p06,lakaduaisto,hit,la-ka-du-a-is,la-ka-duais-to,la-ka-du-ais-to,la-ka-dua-is-to,0.4,-0.108333333,1,0,0,3.1504,text_option_2,,0,25,25,111,1
60e635a7f60d7042bcd17169,63f3cfca20052e4ae7554ebf,6453c7906209feb0630c645f,2023-05-04_17h07.29.166,ga_syllabified_check,2022.2.5,Win32,60.42661188,,,,,,,,,,,,,,./stim/p05_syllable_1_chiaba_hit.wav,p05,chiaba,hit,chia-ba,chia-ba,chi-a-ba, ,0.008333333,-0.285185185,1,0,0,3.851,text_option_other,chaiba,0,26,26,68,1
60e635a7f60d7042bcd17169,63f3cfca20052e4ae7554ebf,6453c7906209feb0630c645f,2023-05-04_17h07.29.166,ga_syllabified_check,2022.2.5,Win32,60.42661188,,,,,,,,,,,,,,./stim/p03_syllable_1_pachialo_hit.wav,p03,pachialo,hit,pa-chia-lo,pa-chia-lo,pa-chi-a-lo, ,-0.351851852,-0.103703704,1,0,0,1.4838,text_option_1,,0,27,27,24,1
60e635a7f60d7042bcd17169,63f3cfca20052e4ae7554ebf,6453c7906209feb0630c645f,2023-05-04_17h07.29.166,ga_syllabified_check,2022.2.5,Win32,60.42661188,,,,,,,,,,,,,,./stim/p08_syllable_1_palumaisto_hit.wav,p08,palumaisto,hit,pa-lu-mais-to,pa-lu-mais-to,pa-lu-ma-is-to, ,-0.32962963,-0.111111111,1,0,0,2.6482,text_option_1,,0,28,28,198,1
60e635a7f60d7042bcd17169,63f3cfca20052e4ae7554ebf,6453c7906209feb0630c645f,2023-05-04_17h07.29.166,ga_syllabified_check,2022.2.5,Win32,60.42661188,,,,,,,,,,,,,,./stim/p04_syllable_1_lakakiaisto_hit.wav,p04,lakakiaisto,hit,la-ka-kiais-to,la-ka-kiais-to,la-ka-ki-ais-to,la-ka-kia-is-to,-0.361111111,-0.101851852,1,0,0,1.2004,text_option_1,,0,29,29,48,1
60e635a7f60d7042bcd17169,63f3cfca20052e4ae7554ebf,6453c7906209feb0630c645f,2023-05-04_17h07.29.166,ga_syllabified_check,2022.2.5,Win32,60.42661188,,,,,,,,,,,,,,./stim/p05_syllable_1_manhiala_hit.wav,p05,mañiala,hit,ma-nhia-la,ma-ñia-la,ma-ñi-a-la, ,-0.412962963,-0.102777778,1,0,0,0.9,text_option_1,,0,30,30,89,1
60e635a7f60d7042bcd17169,63f3cfca20052e4ae7554ebf,6453c7906209feb0630c645f,2023-05-04_17h07.29.166,ga_syllabified_check,2022.2.5,Win32,60.42661188,,,,,,,,,,,,,,./stim/p03_syllable_1_tuliafo_hit.wav,p03,tuliafo,hit,tu-lia-fo,tu-lia-fo,tu-li-a-fo, ,-0.436111111,-0.100925926,1,0,0,1.2002,text_option_1,,0,31,31,33,1
60e635a7f60d7042bcd17169,63f3cfca20052e4ae7554ebf,6453c7906209feb0630c645f,2023-05-04_17h07.29.166,ga_syllabified_check,2022.2.5,Win32,60.42661188,,,,,,,,,,,,,,./stim/p07_syllable_1_payielo_hit.wav,p07,payielo,hit,pa-yie-lo,pa-yie-lo,pa-yi-e-lo, ,-0.378703704,-0.105555556,1,0,0,0.7177,text_option_1,,0,32,32,166,1
60e635a7f60d7042bcd17169,63f3cfca20052e4ae7554ebf,6453c7906209feb0630c645f,2023-05-04_17h07.29.166,ga_syllabified_check,2022.2.5,Win32,60.42661188,,,,,,,,,,,,,,./stim/p07_syllable_1_costonhialo_hit.wav,p07,costoñialo,hit,cos-to-nhia-lo,cos-to-ñia-lo,cos-to-ñi-a-lo, ,-0.338888889,-0.09537037,1,0,0,1.067,text_option_1,,0,33,33,137,1
60e635a7f60d7042bcd17169,63f3cfca20052e4ae7554ebf,6453c7906209feb0630c645f,2023-05-04_17h07.29.166,ga_syllabified_check,2022.2.5,Win32,60.42661188,,,,,,,,,,,,,,./stim/p06_syllable_1_lakafiaisto_hit.wav,p06,lakafiaisto,hit,la-ka-fia-is-to,la-ka-fiais-to,la-ka-fi-ais-to,la-ka-fia-is-to,0.037037037,-0.096296296,1,0,0,3.1321,text_option_3,,0,34,34,112,1
60e635a7f60d7042bcd17169,63f3cfca20052e4ae7554ebf,6453c7906209feb0630c645f,2023-05-04_17h07.29.166,ga_syllabified_check,2022.2.5,Win32,60.42661188,,,,,,,,,,,,,,./stim/p06_syllable_1_tuliafo_hit.wav,p06,tuliafo,hit,tu-li-a-fo,tu-lia-fo,tu-li-a-fo, ,-0.387962963,-0.112037037,1,0,0,1.717,text_option_1,,0,35,35,135,1
60e635a7f60d7042bcd17169,63f3cfca20052e4ae7554ebf,6453c7906209feb0630c645f,2023-05-04_17h07.29.166,ga_syllabified_check,2022.2.5,Win32,60.42661188,,,,,,,,,,,,,,./stim/p03_syllable_1_palufauto_hit.wav,p03,palufauto,hit,pa-lu-fau,pa-lu-fau-to,pa-lu-fa-u-to, ,-0.350925926,-0.111111111,1,0,0,3.0337,text_option_1,,0,36,36,26,1
60e635a7f60d7042bcd17169,63f3cfca20052e4ae7554ebf,6453c7906209feb0630c645f,2023-05-04_17h07.29.166,ga_syllabified_check,2022.2.5,Win32,60.42661188,,,,,,,,,,,,,,./stim/p08_syllable_1_pachialo_hit.wav,p08,pachialo,hit,pa-chi-ja-lo,pa-chia-lo,pa-chi-a-lo, ,0.402777778,-0.109259259,1,0,0,1.1672,text_option_2,,0,37,37,194,1
60e635a7f60d7042bcd17169,63f3cfca20052e4ae7554ebf,6453c7906209feb0630c645f,2023-05-04_17h07.29.166,ga_syllabified_check,2022.2.5,Win32,60.42661188,,,,,,,,,,,,,,./stim/p07_syllable_1_flauro_hit.wav,p07,flauro,hit,flau-ro,flau-ro,fla-u-ro, ,-0.381481481,-0.112962963,1,0,0,0.6683,text_option_1,,0,38,38,141,1
60e635a7f60d7042bcd17169,63f3cfca20052e4ae7554ebf,6453c7906209feb0630c645f,2023-05-04_17h07.29.166,ga_syllabified_check,2022.2.5,Win32,60.42661188,,,,,,,,,,,,,,./stim/p03_syllable_1_lakafiaisto_hit.wav,p03,lakafiaisto,hit,la-ka-fiais-to,la-ka-fiais-to,la-ka-fi-ais-to,la-ka-fia-is-to,-0.443518519,-0.101851852,1,0,0,1.1342,text_option_1,,0,39,39,10,1
60e635a7f60d7042bcd17169,63f3cfca20052e4ae7554ebf,6453c7906209feb0630c645f,2023-05-04_17h07.29.166,ga_syllabified_check,2022.2.5,Win32,60.42661188,,,,,,,,,,,,,,./stim/p06_syllable_1_lakakiaisto_hit.wav,p06,lakakiaisto,hit,la-ka-kia-is-to,la-ka-kiais-to,la-ka-ki-ais-to,la-ka-kia-is-to,0.007407407,-0.103703704,1,0,0,3.7834,text_option_3,,0,40,40,116,1
60e635a7f60d7042bcd17169,63f3cfca20052e4ae7554ebf,6453c7906209feb0630c645f,2023-05-04_17h07.29.166,ga_syllabified_check,2022.2.5,Win32,60.42661188,,,,,,,,,,,,,,./stim/p08_syllable_1_lakabuaisto_hit.wav,p08,lakabuaisto,hit,la-ka-bu-ais-to,la-ka-buais-to,la-ka-bu-ais-to,la-ka-bua-is-to,-0.340740741,-0.099074074,1,0,0,2.7836,text_option_1,,0,41,41,177,1
60e635a7f60d7042bcd17169,63f3cfca20052e4ae7554ebf,6453c7906209feb0630c645f,2023-05-04_17h07.29.166,ga_syllabified_check,2022.2.5,Win32,60.42661188,,,,,,,,,,,,,,./stim/p03_syllable_1_payielo_hit.wav,p03,payielo,hit,pa-yie-lo,pa-yie-lo,pa-yi-e-lo, ,-0.393518519,-0.099074074,1,0,0,0.283,text_option_1,,0,42,42,30,1
60e635a7f60d7042bcd17169,63f3cfca20052e4ae7554ebf,6453c7906209feb0630c645f,2023-05-04_17h07.29.166,ga_syllabified_check,2022.2.5,Win32,60.42661188,,,,,,,,,,,,,,./stim/p07_syllable_1_manhiala_hit.wav,p07,mañiala,hit,ma-nhia-la,ma-ñia-la,ma-ñi-a-la, ,-0.34537037,-0.111111111,1,0,0,0.6836,text_option_1,,0,43,43,157,1
60e635a7f60d7042bcd17169,63f3cfca20052e4ae7554ebf,6453c7906209feb0630c645f,2023-05-04_17h07.29.166,ga_syllabified_check,2022.2.5,Win32,60.42661188,,,,,,,,,,,,,,./stim/p05_syllable_1_lakafuaisto_hit.wav,p05,lakafuaisto,hit,la-ka-fais-to,la-ka-fuais-to,la-ka-fu-ais-to,la-ka-fua-is-to,-0.362037037,-0.10462963,1,0,0,2.0173,text_option_1,,0,44,44,79,1
60e635a7f60d7042bcd17169,63f3cfca20052e4ae7554ebf,6453c7906209feb0630c645f,2023-05-04_17h07.29.166,ga_syllabified_check,2022.2.5,Win32,60.42661188,,,,,,,,,,,,,,./stim/p03_syllable_1_costonhialo_hit.wav,p03,costoñialo,hit,cos-to-nhia-lo,cos-to-ñia-lo,cos-to-ñi-a-lo, ,-0.343518519,-0.107407407,1,0,0,0.9336,text_option_1,,0,45,45,1,1
60e635a7f60d7042bcd17169,63f3cfca20052e4ae7554ebf,6453c7906209feb0630c645f,2023-05-04_17h07.29.166,ga_syllabified_check,2022.2.5,Win32,60.42661188,,,,,,,,,,,,,,./stim/p08_syllable_1_lakaduaisto_hit.wav,p08,lakaduaisto,hit,la-ka-du-ais-to,la-ka-duais-to,la-ka-du-ais-to,la-ka-dua-is-to,0.038888889,-0.113888889,1,0,0,2.3834,text_option_3,,0,46,46,179,1
60e635a7f60d7042bcd17169,63f3cfca20052e4ae7554ebf,6453c7906209feb0630c645f,2023-05-04_17h07.29.166,ga_syllabified_check,2022.2.5,Win32,60.42661188,,,,,,,,,,,,,,./stim/p07_syllable_1_ruyiola_hit.wav,p07,ruyiola,hit,ru-yio-la,ru-yio-la,ru-yi-o-la, ,-0.348148148,-0.10462963,1,0,0,0.7671,text_option_1,,0,47,47,168,1
60e635a7f60d7042bcd17169,63f3cfca20052e4ae7554ebf,6453c7906209feb0630c645f,2023-05-04_17h07.29.166,ga_syllabified_check,2022.2.5,Win32,60.42661188,,,,,,,,,,,,,,./stim/p06_syllable_1_payielo_hit.wav,p06,payielo,hit,pa-yi-e-lo,pa-yie-lo,pa-yi-e-lo, ,-0.406481481,-0.107407407,1,0,0,0.3487,text_option_1,,0,48,48,132,1
60e635a7f60d7042bcd17169,63f3cfca20052e4ae7554ebf,6453c7906209feb0630c645f,2023-05-04_17h07.29.166,ga_syllabified_check,2022.2.5,Win32,60.42661188,,,,,,,,,,,,,,./stim/p06_syllable_1_pachialo_hit.wav,p06,pachialo,hit,pa-shi-a-lo,pa-chia-lo,pa-chi-a-lo, ,0.439814815,-0.112962963,1,0,0,0.7821,text_option_2,,0,49,49,126,1
60e635a7f60d7042bcd17169,63f3cfca20052e4ae7554ebf,6453c7906209feb0630c645f,2023-05-04_17h07.29.166,ga_syllabified_check,2022.2.5,Win32,60.42661188,,,,,,,,,,,,,,./stim/p05_syllable_1_lakafiaisto_hit.wav,p05,lakafiaisto,hit,la-ka-fi-ais-to,la-ka-fiais-to,la-ka-fi-ais-to,la-ka-fia-is-to,0.037962963,-0.113888889,1,0,0,1.7337,text_option_3,,0,50,50,78,1
60e635a7f60d7042bcd17169,63f3cfca20052e4ae7554ebf,6453c7906209feb0630c645f,2023-05-04_17h07.29.166,ga_syllabified_check,2022.2.5,Win32,60.42661188,,,,,,,,,,,,,,./stim/p06_syllable_1_manhiala_hit.wav,p06,mañiala,hit,ma-nhi-a-la,ma-ñia-la,ma-ñi-a-la, ,0.352777778,-0.118518519,1,0,0,0.7684,text_option_2,,0,51,51,123,1
60e635a7f60d7042bcd17169,63f3cfca20052e4ae7554ebf,6453c7906209feb0630c645f,2023-05-04_17h07.29.166,ga_syllabified_check,2022.2.5,Win32,60.42661188,,,,,,,,,,,,,,./stim/p07_syllable_1_palutrauco_hit.wav,p07,palutrauco,hit,pa-lu-trau-co,pa-lu-trau-co,pa-lu-tra-u-co, ,-0.371296296,-0.113888889,1,0,0,1.15,text_option_1,,0,52,52,165,1
60e635a7f60d7042bcd17169,63f3cfca20052e4ae7554ebf,6453c7906209feb0630c645f,2023-05-04_17h07.29.166,ga_syllabified_check,2022.2.5,Win32,60.42661188,,,,,,,,,,,,,,./stim/p06_syllable_1_nhiape_hit.wav,p06,ñiape,hit,nhi-a-pe,ñia-pe,ñi-a-pe, ,0.398148148,-0.119444444,1,0,0,0.5839,text_option_2,,0,53,53,125,1
60e635a7f60d7042bcd17169,63f3cfca20052e4ae7554ebf,6453c7906209feb0630c645f,2023-05-04_17h07.29.166,ga_syllabified_check,2022.2.5,Win32,60.42661188,,,,,,,,,,,,,,./stim/p08_syllable_1_lakatuaisto_hit.wav,p08,lakatuaisto,hit,la-ka-tu-i-jis,la-ka-tuais-to,la-ka-tu-ais-to,la-ka-tua-is-to,0.041666667,-0.10462963,1,0,0,4.8501,text_option_3,,0,54,54,189,1
60e635a7f60d7042bcd17169,63f3cfca20052e4ae7554ebf,6453c7906209feb0630c645f,2023-05-04_17h07.29.166,ga_syllabified_check,2022.2.5,Win32,60.42661188,,,,,,,,,,,,,,./stim/p03_syllable_1_lakabuaisto_hit.wav,p03,lakabuaisto,hit,la-ka-buais-to,la-ka-buais-to,la-ka-bu-ais-to,la-ka-bua-is-to,-0.305555556,-0.1,1,0,0,0.92,text_option_1,,0,55,55,7,1
60e635a7f60d7042bcd17169,63f3cfca20052e4ae7554ebf,6453c7906209feb0630c645f,2023-05-04_17h07.29.166,ga_syllabified_check,2022.2.5,Win32,60.42661188,,,,,,,,,,,,,,./stim/p04_syllable_1_palufauro_hit.wav,p04,palufauro,hit,pa-lu-fau-ro,pa-lu-fau-ro,pa-lu-fa-u-ro, ,-0.367592593,-0.103703704,1,0,0,0.7167,text_option_1,,0,56,56,59,1
60e635a7f60d7042bcd17169,63f3cfca20052e4ae7554ebf,6453c7906209feb0630c645f,2023-05-04_17h07.29.166,ga_syllabified_check,2022.2.5,Win32,60.42661188,,,,,,,,,,,,,,./stim/p07_syllable_1_lakagiaisto_hit.wav,p07,lakagiaisto,hit,la-ka-gais-to,la-ka-giais-to,la-ka-gi-ais-to,la-ka-gia-is-to,-0.388888889,-0.112037037,1,0,0,0.9168,text_option_1,,0,57,57,148,1
60e635a7f60d7042bcd17169,63f3cfca20052e4ae7554ebf,6453c7906209feb0630c645f,2023-05-04_17h07.29.166,ga_syllabified_check,2022.2.5,Win32,60.42661188,,,,,,,,,,,,,,./stim/p08_syllable_1_lakadiaisto_hit.wav,p08,lakadiaisto,hit,la-ka-di-jas-to,la-ka-diais-to,la-ka-di-ais-to,la-ka-dia-is-to,0.418518519,-0.097222222,1,0,0,3.2502,text_option_2,,0,58,58,178,1
60e635a7f60d7042bcd17169,63f3cfca20052e4ae7554ebf,6453c7906209feb0630c645f,2023-05-04_17h07.29.166,ga_syllabified_check,2022.2.5,Win32,60.42661188,,,,,,,,,,,,,,./stim/p04_syllable_1_faluduako_hit.wav,p04,faluduako,hit,fa-lu-dua-ko,fa-lu-dua-ko,fa-lu-du-a-ko, ,-0.376851852,-0.10462963,1,0,0,0.6,text_option_1,,0,59,59,36,1
60e635a7f60d7042bcd17169,63f3cfca20052e4ae7554ebf,6453c7906209feb0630c645f,2023-05-04_17h07.29.166,ga_syllabified_check,2022.2.5,Win32,60.42661188,,,,,,,,,,,,,,./stim/p04_syllable_1_nhiape_hit.wav,p04,ñiape,hit,nhia-pe,ñia-pe,ñi-a-pe, ,-0.372222222,-0.113888889,1,0,0,0.5492,text_option_1,,0,60,60,57,1
60e635a7f60d7042bcd17169,63f3cfca20052e4ae7554ebf,6453c7906209feb0630c645f,2023-05-04_17h07.29.166,ga_syllabified_check,2022.2.5,Win32,60.42661188,,,,,,,,,,,,,,./stim/p07_syllable_1_rausto_hit.wav,p07,rausto,hit,raus-to,raus-to,ra-us-to, ,-0.375,-0.105555556,1,0,0,0.4325,text_option_1,,0,61,61,167,1
60e635a7f60d7042bcd17169,63f3cfca20052e4ae7554ebf,6453c7906209feb0630c645f,2023-05-04_17h07.29.166,ga_syllabified_check,2022.2.5,Win32,60.42661188,,,,,,,,,,,,,,./stim/p05_syllable_1_flauro_hit.wav,p05,flauro,hit,fa-lu-ro,flau-ro,fla-u-ro, ,0.371296296,-0.108333333,1,0,0,1.1342,text_option_2,,0,62,62,73,1
60e635a7f60d7042bcd17169,63f3cfca20052e4ae7554ebf,6453c7906209feb0630c645f,2023-05-04_17h07.29.166,ga_syllabified_check,2022.2.5,Win32,60.42661188,,,,,,,,,,,,,,./stim/p08_syllable_1_lakaguaisto_hit.wav,p08,lakaguaisto,hit,la-ka-gu-ais-to,la-ka-guais-to,la-ka-gu-ais-to,la-ka-gua-is-to,0.050925926,-0.112962963,1,0,0,1.9006,text_option_3,,0,63,63,183,1
60e635a7f60d7042bcd17169,63f3cfca20052e4ae7554ebf,6453c7906209feb0630c645f,2023-05-04_17h07.29.166,ga_syllabified_check,2022.2.5,Win32,60.42661188,,,,,,,,,,,,,,./stim/p03_syllable_1_lakapuaisto_hit.wav,p03,lakapuaisto,hit,la-ka-puais-to,la-ka-puais-to,la-ka-pu-ais-to,la-ka-pua-is-to,-0.386111111,-0.12037037,1,0,0,1.2,text_option_1,,0,64,64,17,1
60e635a7f60d7042bcd17169,63f3cfca20052e4ae7554ebf,6453c7906209feb0630c645f,2023-05-04_17h07.29.166,ga_syllabified_check,2022.2.5,Win32,60.42661188,,,,,,,,,,,,,,./stim/p08_syllable_1_mebochiana_hit.wav,p08,mebochiana,hit,me-bo-chi-a-na,me-bo-chia-na,me-bo-chi-a-na, ,0.415740741,-0.10462963,1,0,0,2.0512,text_option_2,,0,65,65,192,1
60e635a7f60d7042bcd17169,63f3cfca20052e4ae7554ebf,6453c7906209feb0630c645f,2023-05-04_17h07.29.166,ga_syllabified_check,2022.2.5,Win32,60.42661188,,,,,,,,,,,,,,./stim/p03_syllable_1_flauro_hit.wav,p03,flauro,hit,flau-ro,flau-ro,fla-u-ro, ,-0.383333333,-0.112037037,1,0,0,0.3159,text_option_1,,0,66,66,5,1
60e635a7f60d7042bcd17169,63f3cfca20052e4ae7554ebf,6453c7906209feb0630c645f,2023-05-04_17h07.29.166,ga_syllabified_check,2022.2.5,Win32,60.42661188,,,,,,,,,,,,,,./stim/p08_syllable_1_faluduako_hit.wav,p08,faluduako,hit,fa-lu-duai-ko,fa-lu-dua-ko,fa-lu-du-a-ko, ,-0.409259259,-0.097222222,1,0,0,2.1847,text_option_1,,0,67,67,172,1
60e635a7f60d7042bcd17169,63f3cfca20052e4ae7554ebf,6453c7906209feb0630c645f,2023-05-04_17h07.29.166,ga_syllabified_check,2022.2.5,Win32,60.42661188,,,,,,,,,,,,,,./stim/p06_syllable_1_lakakuaisto_hit.wav,p06,lakakuaisto,hit,la-ka-ku-a-is,la-ka-kuais-to,la-ka-ku-ais-to,la-ka-kua-is-to,0.37037037,-0.102777778,1,0,0,3.5837,text_option_2,,0,68,68,117,1
60e635a7f60d7042bcd17169,63f3cfca20052e4ae7554ebf,6453c7906209feb0630c645f,2023-05-04_17h07.29.166,ga_syllabified_check,2022.2.5,Win32,60.42661188,,,,,,,,,,,,,,./stim/p06_syllable_1_lakafuaisto_hit.wav,p06,lakafuaisto,hit,la-ka-fu-a-is,la-ka-fuais-to,la-ka-fu-ais-to,la-ka-fua-is-to,0.062962963,-0.112037037,1,0,0,6.9674,text_option_3,,0,69,69,113,1
60e635a7f60d7042bcd17169,63f3cfca20052e4ae7554ebf,6453c7906209feb0630c645f,2023-05-04_17h07.29.166,ga_syllabified_check,2022.2.5,Win32,60.42661188,,,,,,,,,,,,,,./stim/p08_syllable_1_falutraigo_hit.wav,p08,falutraigo,hit,fa-lu-trai-go,fa-lu-trai-go,fa-lu-tra-i-go, ,-0.357407407,-0.109259259,1,0,0,1.2992,text_option_1,,0,70,70,174,1
60e635a7f60d7042bcd17169,63f3cfca20052e4ae7554ebf,6453c7906209feb0630c645f,2023-05-04_17h07.29.166,ga_syllabified_check,2022.2.5,Win32,60.42661188,,,,,,,,,,,,,,./stim/p04_syllable_1_lakapiaisto_hit.wav,p04,lakapiaisto,hit,la-ka-piais-to,la-ka-piais-to,la-ka-pi-ais-to,la-ka-pia-is-to,-0.378703704,-0.106481481,1,0,0,1.4012,text_option_1,,0,71,71,50,1
60e635a7f60d7042bcd17169,63f3cfca20052e4ae7554ebf,6453c7906209feb0630c645f,2023-05-04_17h07.29.166,ga_syllabified_check,2022.2.5,Win32,60.42661188,,,,,,,,,,,,,,./stim/p07_syllable_1_lakakiaisto_hit.wav,p07,lakakiaisto,hit,la-ka-kais-to,la-ka-kiais-to,la-ka-ki-ais-to,la-ka-kia-is-to,0.032407407,-0.291666667,1,0,0,6.1676,text_option_other,lakakaisto,0,72,72,150,1
60e635a7f60d7042bcd17169,63f3cfca20052e4ae7554ebf,6453c7906209feb0630c645f,2023-05-04_17h07.29.166,ga_syllabified_check,2022.2.5,Win32,60.42661188,,,,,,,,,,,,,,./stim/p04_syllable_1_lakafiaisto_hit.wav,p04,lakafiaisto,hit,la-ka-fiais-to,la-ka-fiais-to,la-ka-fi-ais-to,la-ka-fia-is-to,-0.362962963,-0.084259259,1,0,0,1.7676,text_option_1,,0,73,73,44,1
60e635a7f60d7042bcd17169,63f3cfca20052e4ae7554ebf,6453c7906209feb0630c645f,2023-05-04_17h07.29.166,ga_syllabified_check,2022.2.5,Win32,60.42661188,,,,,,,,,,,,,,./stim/p06_syllable_1_mebochiana_hit.wav,p06,mebochiana,hit,me-bo-shi-a-na,me-bo-chia-na,me-bo-chi-a-na, ,0.410185185,-0.109259259,1,0,0,2.1146,text_option_2,,0,74,74,124,1
60e635a7f60d7042bcd17169,63f3cfca20052e4ae7554ebf,6453c7906209feb0630c645f,2023-05-04_17h07.29.166,ga_syllabified_check,2022.2.5,Win32,60.42661188,,,,,,,,,,,,,,./stim/p03_syllable_1_nhiape_hit.wav,p03,ñiape,hit,nhia-pe,ñia-pe,ñi-a-pe, ,-0.398148148,-0.094444444,1,0,0,0.3813,text_option_1,,0,75,75,23,1
60e635a7f60d7042bcd17169,63f3cfca20052e4ae7554ebf,6453c7906209feb0630c645f,2023-05-04_17h07.29.166,ga_syllabified_check,2022.2.5,Win32,60.42661188,,,,,,,,,,,,,,./stim/p05_syllable_1_falutraigo_hit.wav,p05,falutraigo,hit,fa-lu-trai-go,fa-lu-trai-go,fa-lu-tra-i-go, ,-0.365740741,-0.111111111,1,0,0,0.6503,text_option_1,,0,76,76,72,1
60e635a7f60d7042bcd17169,63f3cfca20052e4ae7554ebf,6453c7906209feb0630c645f,2023-05-04_17h07.29.166,ga_syllabified_check,2022.2.5,Win32,60.42661188,,,,,,,,,,,,,,./stim/p06_syllable_1_lakatuaisto_hit.wav,p06,lakatuaisto,hit,la-ka-tu-a-is,la-ka-tuais-to,la-ka-tu-ais-to,la-ka-tua-is-to,0.412962963,-0.099074074,1,0,0,1.9002,text_option_2,,0,77,77,121,1
60e635a7f60d7042bcd17169,63f3cfca20052e4ae7554ebf,6453c7906209feb0630c645f,2023-05-04_17h07.29.166,ga_syllabified_check,2022.2.5,Win32,60.42661188,,,,,,,,,,,,,,./stim/p03_syllable_1_falutraigo_hit.wav,p03,falutraigo,hit,fa-lu-trai-go,fa-lu-trai-go,fa-lu-tra-i-go, ,-0.399074074,-0.112962963,1,0,0,1.0003,text_option_1,,0,78,78,4,1
60e635a7f60d7042bcd17169,63f3cfca20052e4ae7554ebf,6453c7906209feb0630c645f,2023-05-04_17h07.29.166,ga_syllabified_check,2022.2.5,Win32,60.42661188,,,,,,,,,,,,,,./stim/p05_syllable_1_rausto_hit.wav,p05,rausto,hit,raus-to,raus-to,ra-us-to, ,-0.384259259,-0.112962963,1,0,0,0.0324,text_option_1,,0,79,79,99,1
60e635a7f60d7042bcd17169,63f3cfca20052e4ae7554ebf,6453c7906209feb0630c645f,2023-05-04_17h07.29.166,ga_syllabified_check,2022.2.5,Win32,60.42661188,,,,,,,,,,,,,,./stim/p03_syllable_1_lakakuaisto_hit.wav,p03,lakakuaisto,hit,la-ka-kuais-to,la-ka-kuais-to,la-ka-ku-ais-to,la-ka-kua-is-to,-0.390740741,-0.097222222,1,0,0,0.8509,text_option_1,,0,80,80,15,1
60e635a7f60d7042bcd17169,63f3cfca20052e4ae7554ebf,6453c7906209feb0630c645f,2023-05-04_17h07.29.166,ga_syllabified_check,2022.2.5,Win32,60.42661188,,,,,,,,,,,,,,./stim/p08_syllable_1_lakatiaisto_hit.wav,p08,lakatiaisto,hit,la-ka-ti-as-to,la-ka-tiais-to,la-ka-ti-ais-to,la-ka-tia-is-to,-0.39537037,-0.097222222,1,0,0,4.4841,text_option_1,,0,81,81,188,1
60e635a7f60d7042bcd17169,63f3cfca20052e4ae7554ebf,6453c7906209feb0630c645f,2023-05-04_17h07.29.166,ga_syllabified_check,2022.2.5,Win32,60.42661188,,,,,,,,,,,,,,./stim/p03_syllable_1_manhiala_hit.wav,p03,mañiala,hit,ma-nhia-la,ma-ñia-la,ma-ñi-a-la, ,-0.422222222,-0.100925926,1,0,0,0.3155,text_option_1,,0,82,82,21,1
60e635a7f60d7042bcd17169,63f3cfca20052e4ae7554ebf,6453c7906209feb0630c645f,2023-05-04_17h07.29.166,ga_syllabified_check,2022.2.5,Win32,60.42661188,,,,,,,,,,,,,,./stim/p07_syllable_1_lakaduaisto_hit.wav,p07,lakaduaisto,hit,la-ka-duais-to,la-ka-duais-to,la-ka-du-ais-to,la-ka-dua-is-to,-0.344444444,-0.111111111,1,0,0,0.917,text_option_1,,0,83,83,145,1
60e635a7f60d7042bcd17169,63f3cfca20052e4ae7554ebf,6453c7906209feb0630c645f,2023-05-04_17h07.29.166,ga_syllabified_check,2022.2.5,Win32,60.42661188,,,,,,,,,,,,,,./stim/p08_syllable_1_paluguato_hit.wav,p08,paluguato,hit,pa-lu-gua-to,pa-lu-gua-to,pa-lu-gu-a-to, ,-0.362037037,-0.111111111,1,0,0,1.4003,text_option_1,,0,84,84,197,1
60e635a7f60d7042bcd17169,63f3cfca20052e4ae7554ebf,6453c7906209feb0630c645f,2023-05-04_17h07.29.166,ga_syllabified_check,2022.2.5,Win32,60.42661188,,,,,,,,,,,,,,./stim/p06_syllable_1_chiaba_hit.wav,p06,chiaba,hit,chi-a-ba,chia-ba,chi-a-ba, ,0.365740741,-0.099074074,1,0,0,0.7345,text_option_2,,0,85,85,102,1
60e635a7f60d7042bcd17169,63f3cfca20052e4ae7554ebf,6453c7906209feb0630c645f,2023-05-04_17h07.29.166,ga_syllabified_check,2022.2.5,Win32,60.42661188,,,,,,,,,,,,,,./stim/p07_syllable_1_lakatuaisto_hit.wav,p07,lakatuaisto,hit,la-ka-tuais-to,la-ka-tuais-to,la-ka-tu-ais-to,la-ka-tua-is-to,-0.359259259,-0.113888889,1,0,0,1.8673,text_option_1,,0,86,86,155,1
60e635a7f60d7042bcd17169,63f3cfca20052e4ae7554ebf,6453c7906209feb0630c645f,2023-05-04_17h07.29.166,ga_syllabified_check,2022.2.5,Win32,60.42661188,,,,,,,,,,,,,,./stim/p04_syllable_1_falufaisto_hit.wav,p04,falufaisto,hit,fa-lu-fais-to,fa-lu-fais-to,fa-lu-fa-is-to, ,-0.319444444,-0.100925926,1,0,0,0.5003,text_option_1,,0,87,87,37,1
60e635a7f60d7042bcd17169,63f3cfca20052e4ae7554ebf,6453c7906209feb0630c645f,2023-05-04_17h07.29.166,ga_syllabified_check,2022.2.5,Win32,60.42661188,,,,,,,,,,,,,,./stim/p08_syllable_1_lakakiaisto_hit.wav,p08,lakakiaisto,hit,la-ka-ki-jas-to,la-ka-kiais-to,la-ka-ki-ais-to,la-ka-kia-is-to,0.037962963,-0.113888889,1,0,0,2.0002,text_option_3,,0,88,88,184,1
60e635a7f60d7042bcd17169,63f3cfca20052e4ae7554ebf,6453c7906209feb0630c645f,2023-05-04_17h07.29.166,ga_syllabified_check,2022.2.5,Win32,60.42661188,,,,,,,,,,,,,,./stim/p05_syllable_1_pachialo_hit.wav,p05,pachialo,hit,pan-chia-lo,pa-chia-lo,pa-chi-a-lo, ,0.341666667,-0.107407407,1,0,0,1.1492,text_option_2,,0,89,89,92,1
60e635a7f60d7042bcd17169,63f3cfca20052e4ae7554ebf,6453c7906209feb0630c645f,2023-05-04_17h07.29.166,ga_syllabified_check,2022.2.5,Win32,60.42661188,,,,,,,,,,,,,,./stim/p08_syllable_1_lakakuaisto_hit.wav,p08,lakakuaisto,hit,la-ka-ku-ais-to,la-ka-kuais-to,la-ka-ku-ais-to,la-ka-kua-is-to,0.04537037,-0.107407407,1,0,0,2.3325,text_option_3,,0,90,90,185,1
60e635a7f60d7042bcd17169,63f3cfca20052e4ae7554ebf,6453c7906209feb0630c645f,2023-05-04_17h07.29.166,ga_syllabified_check,2022.2.5,Win32,60.42661188,,,,,,,,,,,,,,./stim/p03_syllable_1_palumaisto_hit.wav,p03,palumaisto,hit,pa-lu-mais-to,pa-lu-mais-to,pa-lu-ma-is-to, ,-0.357407407,-0.101851852,1,0,0,0.6338,text_option_1,,0,91,91,28,1
60e635a7f60d7042bcd17169,63f3cfca20052e4ae7554ebf,6453c7906209feb0630c645f,2023-05-04_17h07.29.166,ga_syllabified_check,2022.2.5,Win32,60.42661188,,,,,,,,,,,,,,./stim/p05_syllable_1_ruyiola_hit.wav,p05,ruyiola,hit,ru-yio-la,ru-yio-la,ru-yi-o-la, ,-0.378703704,-0.100925926,1,0,0,0.2653,text_option_1,,0,92,92,100,1
60e635a7f60d7042bcd17169,63f3cfca20052e4ae7554ebf,6453c7906209feb0630c645f,2023-05-04_17h07.29.166,ga_syllabified_check,2022.2.5,Win32,60.42661188,,,,,,,,,,,,,,./stim/p04_syllable_1_chiaba_hit.wav,p04,chiaba,hit,chia-ba,chia-ba,chi-a-ba, ,-0.387037037,-0.103703704,1,0,0,0.1501,text_option_1,,0,93,93,34,1
60e635a7f60d7042bcd17169,63f3cfca20052e4ae7554ebf,6453c7906209feb0630c645f,2023-05-04_17h07.29.166,ga_syllabified_check,2022.2.5,Win32,60.42661188,,,,,,,,,,,,,,./stim/p08_syllable_1_ruyiola_hit.wav,p08,ruyiola,hit,ru-yio-la,ru-yio-la,ru-yi-o-la, ,-0.406481481,-0.083333333,1,0,0,0.4337,text_option_1,,0,94,94,202,1
60e635a7f60d7042bcd17169,63f3cfca20052e4ae7554ebf,6453c7906209feb0630c645f,2023-05-04_17h07.29.166,ga_syllabified_check,2022.2.5,Win32,60.42661188,,,,,,,,,,,,,,./stim/p08_syllable_1_rausto_hit.wav,p08,rausto,hit,raus-to,raus-to,ra-us-to, ,-0.356481481,-0.113888889,1,0,0,0.5168,text_option_1,,0,95,95,201,1
60e635a7f60d7042bcd17169,63f3cfca20052e4ae7554ebf,6453c7906209feb0630c645f,2023-05-04_17h07.29.166,ga_syllabified_check,2022.2.5,Win32,60.42661188,,,,,,,,,,,,,,./stim/p04_syllable_1_lakapuaisto_hit.wav,p04,lakapuaisto,hit,la-ka-puais-to,la-ka-puais-to,la-ka-pu-ais-to,la-ka-pua-is-to,-0.317592593,-0.111111111,1,0,0,0.6166,text_option_1,,0,96,96,51,1
60e635a7f60d7042bcd17169,63f3cfca20052e4ae7554ebf,6453c7906209feb0630c645f,2023-05-04_17h07.29.166,ga_syllabified_check,2022.2.5,Win32,60.42661188,,,,,,,,,,,,,,./stim/p05_syllable_1_costonhialo_hit.wav,p05,costoñialo,hit,cos-to-nhia-lo,cos-to-ñia-lo,cos-to-ñi-a-lo, ,-0.361111111,-0.10462963,1,0,0,0.6836,text_option_1,,0,97,97,69,1
60e635a7f60d7042bcd17169,63f3cfca20052e4ae7554ebf,6453c7906209feb0630c645f,2023-05-04_17h07.29.166,ga_syllabified_check,2022.2.5,Win32,60.42661188,,,,,,,,,,,,,,./stim/p04_syllable_1_palutrauco_hit.wav,p04,palutrauco,hit,pa-lu-trau-co,pa-lu-trau-co,pa-lu-tra-u-co, ,-0.321296296,-0.105555556,1,0,0,0.5835,text_option_1,,0,98,98,63,1
60e635a7f60d7042bcd17169,63f3cfca20052e4ae7554ebf,6453c7906209feb0630c645f,2023-05-04_17h07.29.166,ga_syllabified_check,2022.2.5,Win32,60.42661188,,,,,,,,,,,,,,./stim/p05_syllable_1_payielo_hit.wav,p05,payielo,hit,pai-yu-we-lo,pa-yie-lo,pa-yi-e-lo, ,-0.360185185,-0.111111111,1,0,0,0.2502,text_option_1,,0,99,99,98,1
60e635a7f60d7042bcd17169,63f3cfca20052e4ae7554ebf,6453c7906209feb0630c645f,2023-05-04_17h07.29.166,ga_syllabified_check,2022.2.5,Win32,60.42661188,,,,,,,,,,,,,,./stim/p06_syllable_1_lakapuaisto_hit.wav,p06,lakapuaisto,hit,la-ka-pu-a-is,la-ka-puais-to,la-ka-pu-ais-to,la-ka-pua-is-to,0.387962963,-0.108333333,1,0,0,2.633,text_option_2,,0,100,100,119,1
60e635a7f60d7042bcd17169,63f3cfca20052e4ae7554ebf,6453c7906209feb0630c645f,2023-05-04_17h07.29.166,ga_syllabified_check,2022.2.5,Win32,60.42661188,,,,,,,,,,,,,,./stim/p04_syllable_1_lakaguaisto_hit.wav,p04,lakaguaisto,hit,la-ka-guais-to,la-ka-guais-to,la-ka-gu-ais-to,la-ka-gua-is-to,-0.39537037,-0.112037037,1,0,0,0.8335,text_option_1,,0,101,101,47,1
60e635a7f60d7042bcd17169,63f3cfca20052e4ae7554ebf,6453c7906209feb0630c645f,2023-05-04_17h07.29.166,ga_syllabified_check,2022.2.5,Win32,60.42661188,,,,,,,,,,,,,,./stim/p08_syllable_1_tuliafo_hit.wav,p08,tuliafo,hit,tu-li-a-fo,tu-lia-fo,tu-li-a-fo, ,0.400925926,-0.093518519,1,0,0,1.4008,text_option_2,,0,102,102,203,1
60e635a7f60d7042bcd17169,63f3cfca20052e4ae7554ebf,6453c7906209feb0630c645f,2023-05-04_17h07.29.166,ga_syllabified_check,2022.2.5,Win32,60.42661188,,,,,,,,,,,,,,./stim/p05_syllable_1_paluguato_hit.wav,p05,paluguato,hit,pa-lu-gau-to,pa-lu-gua-to,pa-lu-gu-a-to, ,-0.302777778,-0.118518519,1,0,0,1.417,text_option_1,,0,103,103,95,1
60e635a7f60d7042bcd17169,63f3cfca20052e4ae7554ebf,6453c7906209feb0630c645f,2023-05-04_17h07.29.166,ga_syllabified_check,2022.2.5,Win32,60.42661188,,,,,,,,,,,,,,./stim/p04_syllable_1_flauro_hit.wav,p04,flauro,hit,flau-ro,flau-ro,fla-u-ro, ,-0.4,-0.115740741,1,0,0,0.2817,text_option_1,,0,104,104,39,1
60e635a7f60d7042bcd17169,63f3cfca20052e4ae7554ebf,6453c7906209feb0630c645f,2023-05-04_17h07.29.166,ga_syllabified_check,2022.2.5,Win32,60.42661188,,,,,,,,,,,,,,./stim/p08_syllable_1_lakapuaisto_hit.wav,p08,lakapuaisto,hit,la-ka-pu-as-to,la-ka-puais-to,la-ka-pu-ais-to,la-ka-pua-is-to,-0.350925926,-0.105555556,1,0,0,2.9682,text_option_1,,0,105,105,187,1
60e635a7f60d7042bcd17169,63f3cfca20052e4ae7554ebf,6453c7906209feb0630c645f,2023-05-04_17h07.29.166,ga_syllabified_check,2022.2.5,Win32,60.42661188,,,,,,,,,,,,,,./stim/p03_syllable_1_lliape_hit.wav,p03,lliape,hit,llia,llia-pe,lli-a-pe, ,-0.399074074,-0.116666667,1,0,0,0.2644,text_option_1,,0,106,106,20,1
60e635a7f60d7042bcd17169,63f3cfca20052e4ae7554ebf,6453c7906209feb0630c645f,2023-05-04_17h07.29.166,ga_syllabified_check,2022.2.5,Win32,60.42661188,,,,,,,,,,,,,,./stim/p08_syllable_1_chiaba_hit.wav,p08,chiaba,hit,chi-a-ba,chia-ba,chi-a-ba, ,0.442592593,-0.12037037,1,0,0,0.8988,text_option_2,,0,107,107,170,1
60e635a7f60d7042bcd17169,63f3cfca20052e4ae7554ebf,6453c7906209feb0630c645f,2023-05-04_17h07.29.166,ga_syllabified_check,2022.2.5,Win32,60.42661188,,,,,,,,,,,,,,./stim/p06_syllable_1_lakagiaisto_hit.wav,p06,lakagiaisto,hit,la-ka-gia-is-to,la-ka-giais-to,la-ka-gi-ais-to,la-ka-gia-is-to,-0.007407407,-0.110185185,1,0,0,4.0168,text_option_3,,0,108,108,114,1
60e635a7f60d7042bcd17169,63f3cfca20052e4ae7554ebf,6453c7906209feb0630c645f,2023-05-04_17h07.29.166,ga_syllabified_check,2022.2.5,Win32,60.42661188,,,,,,,,,,,,,,./stim/p05_syllable_1_palutrauco_hit.wav,p05,palutrauco,hit,pa-lu-trai-co,pa-lu-trau-co,pa-lu-tra-u-co, ,-0.358333333,-0.103703704,1,0,0,1.0836,text_option_1,,0,109,109,97,1
60e635a7f60d7042bcd17169,63f3cfca20052e4ae7554ebf,6453c7906209feb0630c645f,2023-05-04_17h07.29.166,ga_syllabified_check,2022.2.5,Win32,60.42661188,,,,,,,,,,,,,,./stim/p04_syllable_1_lakabuaisto_hit.wav,p04,lakabuaisto,hit,la-ka-buais-to,la-ka-buais-to,la-ka-bu-ais-to,la-ka-bua-is-to,-0.350925926,-0.111111111,1,0,0,0.9505,text_option_1,,0,110,110,41,1
60e635a7f60d7042bcd17169,63f3cfca20052e4ae7554ebf,6453c7906209feb0630c645f,2023-05-04_17h07.29.166,ga_syllabified_check,2022.2.5,Win32,60.42661188,,,,,,,,,,,,,,./stim/p04_syllable_1_lakatuaisto_hit.wav,p04,lakatuaisto,hit,la-ka-kuais-to,la-ka-tuais-to,la-ka-tu-ais-to,la-ka-tua-is-to,-0.393518519,-0.103703704,1,0,0,0.667,text_option_1,,0,111,111,53,1
60e635a7f60d7042bcd17169,63f3cfca20052e4ae7554ebf,6453c7906209feb0630c645f,2023-05-04_17h07.29.166,ga_syllabified_check,2022.2.5,Win32,60.42661188,,,,,,,,,,,,,,./stim/p08_syllable_1_flauro_hit.wav,p08,flauro,hit,flau-ro,flau-ro,fla-u-ro, ,-0.385185185,-0.098148148,1,0,0,0.1503,text_option_1,,0,112,112,175,1
60e635a7f60d7042bcd17169,63f3cfca20052e4ae7554ebf,6453c7906209feb0630c645f,2023-05-04_17h07.29.166,ga_syllabified_check,2022.2.5,Win32,60.42661188,,,,,,,,,,,,,,./stim/p08_syllable_1_lliape_hit.wav,p08,lliape,hit,li-a-pe,llia-pe,lli-a-pe, ,0.384259259,-0.114814815,1,0,0,0.8327,text_option_2,,0,113,113,190,1
60e635a7f60d7042bcd17169,63f3cfca20052e4ae7554ebf,6453c7906209feb0630c645f,2023-05-04_17h07.29.166,ga_syllabified_check,2022.2.5,Win32,60.42661188,,,,,,,,,,,,,,./stim/p06_syllable_1_rausto_hit.wav,p06,rausto,hit,ra-us-to,raus-to,ra-us-to, ,0.383333333,-0.106481481,1,0,0,0.8001,text_option_2,,0,114,114,133,1
60e635a7f60d7042bcd17169,63f3cfca20052e4ae7554ebf,6453c7906209feb0630c645f,2023-05-04_17h07.29.166,ga_syllabified_check,2022.2.5,Win32,60.42661188,,,,,,,,,,,,,,./stim/p04_syllable_1_palufauto_hit.wav,p04,palufauto,hit,pa-lu-fau-to,pa-lu-fau-to,pa-lu-fa-u-to, ,-0.348148148,-0.108333333,1,0,0,1.0835,text_option_1,,0,115,115,60,1
60e635a7f60d7042bcd17169,63f3cfca20052e4ae7554ebf,6453c7906209feb0630c645f,2023-05-04_17h07.29.166,ga_syllabified_check,2022.2.5,Win32,60.42661188,,,,,,,,,,,,,,./stim/p05_syllable_1_palumaisto_hit.wav,p05,palumaisto,hit,pa-lu-mais-to,pa-lu-mais-to,pa-lu-ma-is-to, ,-0.363888889,-0.107407407,1,0,0,0.5368,text_option_1,,0,116,116,96,1
60e635a7f60d7042bcd17169,63f3cfca20052e4ae7554ebf,6453c7906209feb0630c645f,2023-05-04_17h07.29.166,ga_syllabified_check,2022.2.5,Win32,60.42661188,,,,,,,,,,,,,,./stim/p07_syllable_1_lakafiaisto_hit.wav,p07,lakafiaisto,hit,la-ka-fiais-to,la-ka-fiais-to,la-ka-fi-ais-to,la-ka-fia-is-to,-0.351851852,-0.107407407,1,0,0,0.7687,text_option_1,,0,117,117,146,1
60e635a7f60d7042bcd17169,63f3cfca20052e4ae7554ebf,6453c7906209feb0630c645f,2023-05-04_17h07.29.166,ga_syllabified_check,2022.2.5,Win32,60.42661188,,,,,,,,,,,,,,./stim/p04_syllable_1_palumaisto_hit.wav,p04,palumaisto,hit,pa-lu-mais-to,pa-lu-mais-to,pa-lu-ma-is-to, ,-0.35462963,-0.116666667,1,0,0,0.8504,text_option_1,,0,118,118,62,1
60e635a7f60d7042bcd17169,63f3cfca20052e4ae7554ebf,6453c7906209feb0630c645f,2023-05-04_17h07.29.166,ga_syllabified_check,2022.2.5,Win32,60.42661188,,,,,,,,,,,,,,./stim/p05_syllable_1_lliape_hit.wav,p05,lliape,hit,liai-pe,llia-pe,lli-a-pe, ,-0.362962963,-0.117592593,1,0,0,0.5156,text_option_1,,0,119,119,88,1
60e635a7f60d7042bcd17169,63f3cfca20052e4ae7554ebf,6453c7906209feb0630c645f,2023-05-04_17h07.29.166,ga_syllabified_check,2022.2.5,Win32,60.42661188,,,,,,,,,,,,,,./stim/p07_syllable_1_palumaisto_hit.wav,p07,palumaisto,hit,pa-lu-mais-to,pa-lu-mais-to,pa-lu-ma-is-to, ,-0.316666667,-0.112037037,1,0,0,1.4835,text_option_1,,0,120,120,164,1
60e635a7f60d7042bcd17169,63f3cfca20052e4ae7554ebf,6453c7906209feb0630c645f,2023-05-04_17h07.29.166,ga_syllabified_check,2022.2.5,Win32,60.42661188,,,,,,,,,,,,,,./stim/p03_syllable_1_lakatiaisto_hit.wav,p03,lakatiaisto,hit,la-ka-tiais-to,la-ka-tiais-to,la-ka-ti-ais-to,la-ka-tia-is-to,-0.316666667,-0.111111111,1,0,0,1.0835,text_option_1,,0,121,121,18,1
60e635a7f60d7042bcd17169,63f3cfca20052e4ae7554ebf,6453c7906209feb0630c645f,2023-05-04_17h07.29.166,ga_syllabified_check,2022.2.5,Win32,60.42661188,,,,,,,,,,,,,,./stim/p07_syllable_1_lakabuaisto_hit.wav,p07,lakabuaisto,hit,la-ka-buais-to,la-ka-buais-to,la-ka-bu-ais-to,la-ka-bua-is-to,-0.364814815,-0.10462963,1,0,0,1.0836,text_option_1,,0,122,122,143,1
60e635a7f60d7042bcd17169,63f3cfca20052e4ae7554ebf,6453c7906209feb0630c645f,2023-05-04_17h07.29.166,ga_syllabified_check,2022.2.5,Win32,60.42661188,,,,,,,,,,,,,,./stim/p04_syllable_1_lakatiaisto_hit.wav,p04,lakatiaisto,hit,la-ka-kiais-to,la-ka-tiais-to,la-ka-ti-ais-to,la-ka-tia-is-to,-0.35462963,-0.117592593,1,0,0,0.7831,text_option_1,,0,123,123,52,1
60e635a7f60d7042bcd17169,63f3cfca20052e4ae7554ebf,6453c7906209feb0630c645f,2023-05-04_17h07.29.166,ga_syllabified_check,2022.2.5,Win32,60.42661188,,,,,,,,,,,,,,./stim/p03_syllable_1_lakatuaisto_hit.wav,p03,lakatuaisto,hit,la-ka-tuais-to,la-ka-tuais-to,la-ka-tu-ais-to,la-ka-tua-is-to,-0.362037037,-0.108333333,1,0,0,0.6666,text_option_1,,0,124,124,19,1
60e635a7f60d7042bcd17169,63f3cfca20052e4ae7554ebf,6453c7906209feb0630c645f,2023-05-04_17h07.29.166,ga_syllabified_check,2022.2.5,Win32,60.42661188,,,,,,,,,,,,,,./stim/p07_syllable_1_chiaba_hit.wav,p07,chiaba,hit,chia-ba,chia-ba,chi-a-ba, ,-0.399074074,-0.101851852,1,0,0,0.7818,text_option_1,,0,125,125,136,1
60e635a7f60d7042bcd17169,63f3cfca20052e4ae7554ebf,6453c7906209feb0630c645f,2023-05-04_17h07.29.166,ga_syllabified_check,2022.2.5,Win32,60.42661188,,,,,,,,,,,,,,./stim/p05_syllable_1_palufauro_hit.wav,p05,palufauro,hit,pa-lu-fau-ro,pa-lu-fau-ro,pa-lu-fa-u-ro, ,-0.343518519,-0.098148148,1,0,0,0.867,text_option_1,,0,126,126,93,1
60e635a7f60d7042bcd17169,63f3cfca20052e4ae7554ebf,6453c7906209feb0630c645f,2023-05-04_17h07.29.166,ga_syllabified_check,2022.2.5,Win32,60.42661188,,,,,,,,,,,,,,./stim/p06_syllable_1_falutraigo_hit.wav,p06,falutraigo,hit,fa-lu-tra-i-go,fa-lu-trai-go,fa-lu-tra-i-go, ,0.377777778,-0.109259259,1,0,0,3.1002,text_option_2,,0,127,127,106,1
60e635a7f60d7042bcd17169,63f3cfca20052e4ae7554ebf,6453c7906209feb0630c645f,2023-05-04_17h07.29.166,ga_syllabified_check,2022.2.5,Win32,60.42661188,,,,,,,,,,,,,,./stim/p06_syllable_1_lakabiaisto_hit.wav,p06,lakabiaisto,hit,la-ka-bia-is-to,la-ka-biais-to,la-ka-bi-ais-to,la-ka-bia-is-to,0.025,-0.111111111,1,0,0,2.8008,text_option_3,,0,128,128,108,1
60e635a7f60d7042bcd17169,63f3cfca20052e4ae7554ebf,6453c7906209feb0630c645f,2023-05-04_17h07.29.166,ga_syllabified_check,2022.2.5,Win32,60.42661188,,,,,,,,,,,,,,./stim/p06_syllable_1_lakadiaisto_hit.wav,p06,lakadiaisto,hit,la-ka-dia-is-to,la-ka-diais-to,la-ka-di-ais-to,la-ka-dia-is-to,0.056481481,-0.098148148,1,0,0,1.5664,text_option_3,,0,129,129,110,1
60e635a7f60d7042bcd17169,63f3cfca20052e4ae7554ebf,6453c7906209feb0630c645f,2023-05-04_17h07.29.166,ga_syllabified_check,2022.2.5,Win32,60.42661188,,,,,,,,,,,,,,./stim/p08_syllable_1_nhiape_hit.wav,p08,ñiape,hit,ni-a-pe,ñia-pe,ñi-a-pe, ,-0.365740741,-0.107407407,1,0,0,0.3652,text_option_1,,0,130,130,193,1
60e635a7f60d7042bcd17169,63f3cfca20052e4ae7554ebf,6453c7906209feb0630c645f,2023-05-04_17h07.29.166,ga_syllabified_check,2022.2.5,Win32,60.42661188,,,,,,,,,,,,,,./stim/p05_syllable_1_lakapiaisto_hit.wav,p05,lakapiaisto,hit,la-ka-pais-to,la-ka-piais-to,la-ka-pi-ais-to,la-ka-pia-is-to,-0.371296296,-0.12037037,1,0,0,1.2,text_option_1,,0,131,131,84,1
60e635a7f60d7042bcd17169,63f3cfca20052e4ae7554ebf,6453c7906209feb0630c645f,2023-05-04_17h07.29.166,ga_syllabified_check,2022.2.5,Win32,60.42661188,,,,,,,,,,,,,,./stim/p05_syllable_1_lakadiaisto_hit.wav,p05,lakadiaisto,hit,la-ka-di-ais-to,la-ka-diais-to,la-ka-di-ais-to,la-ka-dia-is-to,-0.352777778,-0.103703704,1,0,0,1.1494,text_option_1,,0,132,132,76,1
60e635a7f60d7042bcd17169,63f3cfca20052e4ae7554ebf,6453c7906209feb0630c645f,2023-05-04_17h07.29.166,ga_syllabified_check,2022.2.5,Win32,60.42661188,,,,,,,,,,,,,,./stim/p06_syllable_1_palufauto_hit.wav,p06,palufauto,hit,pa-lu-fau-to,pa-lu-fau-to,pa-lu-fa-u-to, ,0.371296296,-0.100925926,1,0,0,0.7823,text_option_2,,0,133,133,128,1
60e635a7f60d7042bcd17169,63f3cfca20052e4ae7554ebf,6453c7906209feb0630c645f,2023-05-04_17h07.29.166,ga_syllabified_check,2022.2.5,Win32,60.42661188,,,,,,,,,,,,,,./stim/p06_syllable_1_lakabuaisto_hit.wav,p06,lakabuaisto,hit,la-ka-bu-a-is,la-ka-buais-to,la-ka-bu-ais-to,la-ka-bua-is-to,-0.009259259,-0.112037037,1,0,0,4.3169,text_option_3,,0,134,134,109,1
60e635a7f60d7042bcd17169,63f3cfca20052e4ae7554ebf,6453c7906209feb0630c645f,2023-05-04_17h07.29.166,ga_syllabified_check,2022.2.5,Win32,60.42661188,,,,,,,,,,,,,,./stim/p08_syllable_1_palufauto_hit.wav,p08,palufauto,hit,pa-lu-fau-to,pa-lu-fau-to,pa-lu-fa-u-to, ,-0.40462963,-0.098148148,1,0,0,1.9673,text_option_1,,0,135,135,196,1
60e635a7f60d7042bcd17169,63f3cfca20052e4ae7554ebf,6453c7906209feb0630c645f,2023-05-04_17h07.29.166,ga_syllabified_check,2022.2.5,Win32,60.42661188,,,,,,,,,,,,,,./stim/p07_syllable_1_palufauto_hit.wav,p07,palufauto,hit,pa-lu-fau-to,pa-lu-fau-to,pa-lu-fa-u-to, ,-0.374074074,-0.103703704,1,0,0,1.2828,text_option_1,,0,136,136,162,1
60e635a7f60d7042bcd17169,63f3cfca20052e4ae7554ebf,6453c7906209feb0630c645f,2023-05-04_17h07.29.166,ga_syllabified_check,2022.2.5,Win32,60.42661188,,,,,,,,,,,,,,./stim/p07_syllable_1_pachialo_hit.wav,p07,pachialo,hit,pa-cha-lo,pa-chia-lo,pa-chi-a-lo, ,-0.375925926,-0.105555556,1,0,0,0.5658,text_option_1,,0,137,137,160,1
60e635a7f60d7042bcd17169,63f3cfca20052e4ae7554ebf,6453c7906209feb0630c645f,2023-05-04_17h07.29.166,ga_syllabified_check,2022.2.5,Win32,60.42661188,,,,,,,,,,,,,,./stim/p03_syllable_1_lakaduaisto_hit.wav,p03,lakaduaisto,hit,la-ka-duais-to,la-ka-duais-to,la-ka-du-ais-to,la-ka-dua-is-to,-0.336111111,-0.115740741,1,0,0,0.7006,text_option_1,,0,138,138,9,1
60e635a7f60d7042bcd17169,63f3cfca20052e4ae7554ebf,6453c7906209feb0630c645f,2023-05-04_17h07.29.166,ga_syllabified_check,2022.2.5,Win32,60.42661188,,,,,,,,,,,,,,./stim/p05_syllable_1_lakapuaisto_hit.wav,p05,lakapuaisto,hit,la-ka-pais-to,la-ka-puais-to,la-ka-pu-ais-to,la-ka-pua-is-to,-0.335185185,-0.108333333,1,0,0,1.3839,text_option_1,,0,139,139,85,1
60e635a7f60d7042bcd17169,63f3cfca20052e4ae7554ebf,6453c7906209feb0630c645f,2023-05-04_17h07.29.166,ga_syllabified_check,2022.2.5,Win32,60.42661188,,,,,,,,,,,,,,./stim/p05_syllable_1_lakatuaisto_hit.wav,p05,lakatuaisto,hit,la-ka-tais-to,la-ka-tuais-to,la-ka-tu-ais-to,la-ka-tua-is-to,-0.330555556,-0.109259259,1,0,0,0.85,text_option_1,,0,140,140,87,1
60e635a7f60d7042bcd17169,63f3cfca20052e4ae7554ebf,6453c7906209feb0630c645f,2023-05-04_17h07.29.166,ga_syllabified_check,2022.2.5,Win32,60.42661188,,,,,,,,,,,,,,./stim/p05_syllable_1_lakatiaisto_hit.wav,p05,lakatiaisto,hit,la-ka-ti-ais-to,la-ka-tiais-to,la-ka-ti-ais-to,la-ka-tia-is-to,-0.37037037,-0.112037037,1,0,0,1.0819,text_option_1,,0,141,141,86,1
60e635a7f60d7042bcd17169,63f3cfca20052e4ae7554ebf,6453c7906209feb0630c645f,2023-05-04_17h07.29.166,ga_syllabified_check,2022.2.5,Win32,60.42661188,,,,,,,,,,,,,,./stim/p07_syllable_1_lakapuaisto_hit.wav,p07,lakapuaisto,hit,la-ka-puais-to,la-ka-puais-to,la-ka-pu-ais-to,la-ka-pua-is-to,-0.37962963,-0.100925926,1,0,0,1.8002,text_option_1,,0,142,142,153,1
60e635a7f60d7042bcd17169,63f3cfca20052e4ae7554ebf,6453c7906209feb0630c645f,2023-05-04_17h07.29.166,ga_syllabified_check,2022.2.5,Win32,60.42661188,,,,,,,,,,,,,,./stim/p06_syllable_1_palufauro_hit.wav,p06,palufauro,hit,pa-lu-fau-ro,pa-lu-fau-ro,pa-lu-fa-u-ro, ,0.364814815,-0.09537037,1,0,0,3.4335,text_option_2,,0,143,143,127,1
60e635a7f60d7042bcd17169,63f3cfca20052e4ae7554ebf,6453c7906209feb0630c645f,2023-05-04_17h07.29.166,ga_syllabified_check,2022.2.5,Win32,60.42661188,,,,,,,,,,,,,,./stim/p04_syllable_1_rausto_hit.wav,p04,rausto,hit,raus-to,raus-to,ra-us-to, ,-0.384259259,-0.114814815,1,0,0,0.1823,text_option_1,,0,144,144,65,1
60e635a7f60d7042bcd17169,63f3cfca20052e4ae7554ebf,6453c7906209feb0630c645f,2023-05-04_17h07.29.166,ga_syllabified_check,2022.2.5,Win32,60.42661188,,,,,,,,,,,,,,./stim/p03_syllable_1_ruyiola_hit.wav,p03,ruyiola,hit,ru-yio-la,ru-yio-la,ru-yi-o-la, ,-0.364814815,-0.102777778,1,0,0,0.8643,text_option_1,,0,145,145,32,1
60e635a7f60d7042bcd17169,63f3cfca20052e4ae7554ebf,6453c7906209feb0630c645f,2023-05-04_17h07.29.166,ga_syllabified_check,2022.2.5,Win32,60.42661188,,,,,,,,,,,,,,./stim/p04_syllable_1_mebochiana_hit.wav,p04,mebochiana,hit,me-bo-chia-na,me-bo-chia-na,me-bo-chi-a-na, ,-0.367592593,-0.098148148,1,0,0,1.0171,text_option_1,,0,146,146,56,1
60e635a7f60d7042bcd17169,63f3cfca20052e4ae7554ebf,6453c7906209feb0630c645f,2023-05-04_17h07.29.166,ga_syllabified_check,2022.2.5,Win32,60.42661188,,,,,,,,,,,,,,./stim/p07_syllable_1_mebochiana_hit.wav,p07,mebochiana,hit,me-bo-chia-na,me-bo-chia-na,me-bo-chi-a-na, ,-0.34537037,-0.115740741,1,0,0,2.8323,text_option_1,,0,147,147,158,1
60e635a7f60d7042bcd17169,63f3cfca20052e4ae7554ebf,6453c7906209feb0630c645f,2023-05-04_17h07.29.166,ga_syllabified_check,2022.2.5,Win32,60.42661188,,,,,,,,,,,,,,./stim/p07_syllable_1_tuliafo_hit.wav,p07,tuliafo,hit,tu-lia-fo,tu-lia-fo,tu-li-a-fo, ,-0.37962963,-0.110185185,1,0,0,0.4156,text_option_1,,0,148,148,169,1
60e635a7f60d7042bcd17169,63f3cfca20052e4ae7554ebf,6453c7906209feb0630c645f,2023-05-04_17h07.29.166,ga_syllabified_check,2022.2.5,Win32,60.42661188,,,,,,,,,,,,,,./stim/p06_syllable_1_falufaisto_hit.wav,p06,falufaisto,hit,fa-lu-fa-is-to,fa-lu-fais-to,fa-lu-fa-is-to, ,0.430555556,-0.091666667,1,0,0,1.6005,text_option_2,,0,149,149,105,1
60e635a7f60d7042bcd17169,63f3cfca20052e4ae7554ebf,6453c7906209feb0630c645f,2023-05-04_17h07.29.166,ga_syllabified_check,2022.2.5,Win32,60.42661188,,,,,,,,,,,,,,./stim/p04_syllable_1_lakagiaisto_hit.wav,p04,lakagiaisto,hit,la-ka-giais-to,la-ka-giais-to,la-ka-gi-ais-to,la-ka-gia-is-to,-0.381481481,-0.100925926,1,0,0,5.1845,text_option_1,,0,150,150,46,1
60e635a7f60d7042bcd17169,63f3cfca20052e4ae7554ebf,6453c7906209feb0630c645f,2023-05-04_17h07.29.166,ga_syllabified_check,2022.2.5,Win32,60.42661188,,,,,,,,,,,,,,./stim/p04_syllable_1_lakadiaisto_hit.wav,p04,lakadiaisto,hit,la-ka-dias-to,la-ka-diais-to,la-ka-di-ais-to,la-ka-dia-is-to,-0.35,-0.10462963,1,0,0,0.2497,text_option_1,,0,151,151,42,1
60e635a7f60d7042bcd17169,63f3cfca20052e4ae7554ebf,6453c7906209feb0630c645f,2023-05-04_17h07.29.166,ga_syllabified_check,2022.2.5,Win32,60.42661188,,,,,,,,,,,,,,./stim/p05_syllable_1_lakabiaisto_hit.wav,p05,lakabiaisto,hit,la-ka-bi-ais-to,la-ka-biais-to,la-ka-bi-ais-to,la-ka-bia-is-to,0.071296296,-0.112962963,1,0,0,1.3501,text_option_3,,0,152,152,74,1
60e635a7f60d7042bcd17169,63f3cfca20052e4ae7554ebf,6453c7906209feb0630c645f,2023-05-04_17h07.29.166,ga_syllabified_check,2022.2.5,Win32,60.42661188,,,,,,,,,,,,,,./stim/p06_syllable_1_paluguato_hit.wav,p06,paluguato,hit,pa-lu-gua-to,pa-lu-gua-to,pa-lu-gu-a-to, ,0.37962963,-0.107407407,1,0,0,0.4646,text_option_2,,0,153,153,129,1
60e635a7f60d7042bcd17169,63f3cfca20052e4ae7554ebf,6453c7906209feb0630c645f,2023-05-04_17h07.29.166,ga_syllabified_check,2022.2.5,Win32,60.42661188,,,,,,,,,,,,,,./stim/p07_syllable_1_lakakuaisto_hit.wav,p07,lakakuaisto,hit,la-ka-kuais-to,la-ka-kuais-to,la-ka-ku-ais-to,la-ka-kua-is-to,-0.339814815,-0.109259259,1,0,0,0.8657,text_option_1,,0,154,154,151,1
60e635a7f60d7042bcd17169,63f3cfca20052e4ae7554ebf,6453c7906209feb0630c645f,2023-05-04_17h07.29.166,ga_syllabified_check,2022.2.5,Win32,60.42661188,,,,,,,,,,,,,,./stim/p04_syllable_1_tuliafo_hit.wav,p04,tuliafo,hit,tu-lia-fo,tu-lia-fo,tu-li-a-fo, ,-0.368518519,-0.109259259,1,0,0,0.2654,text_option_1,,0,155,155,67,1
60e635a7f60d7042bcd17169,63f3cfca20052e4ae7554ebf,6453c7906209feb0630c645f,2023-05-04_17h07.29.166,ga_syllabified_check,2022.2.5,Win32,60.42661188,,,,,,,,,,,,,,./stim/p07_syllable_1_lakatiaisto_hit.wav,p07,lakatiaisto,hit,la-ka-tiai-sto,la-ka-tiais-to,la-ka-ti-ais-to,la-ka-tia-is-to,-0.359259259,-0.111111111,1,0,0,0.1652,text_option_1,,0,156,156,154,1
60e635a7f60d7042bcd17169,63f3cfca20052e4ae7554ebf,6453c7906209feb0630c645f,2023-05-04_17h07.29.166,ga_syllabified_check,2022.2.5,Win32,60.42661188,,,,,,,,,,,,,,./stim/p05_syllable_1_lakakiaisto_hit.wav,p05,lakakiaisto,hit,la-ka-ki-ais-to,la-ka-kiais-to,la-ka-ki-ais-to,la-ka-kia-is-to,-0.000925926,-0.109259259,1,0,0,1.4002,text_option_3,,0,157,157,82,1
60e635a7f60d7042bcd17169,63f3cfca20052e4ae7554ebf,6453c7906209feb0630c645f,2023-05-04_17h07.29.166,ga_syllabified_check,2022.2.5,Win32,60.42661188,,,,,,,,,,,,,,./stim/p07_syllable_1_falutraigo_hit.wav,p07,falutraigo,hit,fa-lu-trai-go,fa-lu-trai-go,fa-lu-tra-i-go, ,-0.386111111,-0.109259259,1,0,0,0.8819,text_option_1,,0,158,158,140,1
60e635a7f60d7042bcd17169,63f3cfca20052e4ae7554ebf,6453c7906209feb0630c645f,2023-05-04_17h07.29.166,ga_syllabified_check,2022.2.5,Win32,60.42661188,,,,,,,,,,,,,,./stim/p06_syllable_1_palumaisto_hit.wav,p06,palumaisto,hit,pa-lu-ma-is-to,pa-lu-mais-to,pa-lu-ma-is-to, ,0.382407407,-0.101851852,1,0,0,0.5488,text_option_2,,0,159,159,130,1
60e635a7f60d7042bcd17169,63f3cfca20052e4ae7554ebf,6453c7906209feb0630c645f,2023-05-04_17h07.29.166,ga_syllabified_check,2022.2.5,Win32,60.42661188,,,,,,,,,,,,,,./stim/p03_syllable_1_lakapiaisto_hit.wav,p03,lakapiaisto,hit,la-ka-piais-to,la-ka-piais-to,la-ka-pi-ais-to,la-ka-pia-is-to,-0.333333333,-0.100925926,1,0,0,0.5826,text_option_1,,0,160,160,16,1
60e635a7f60d7042bcd17169,63f3cfca20052e4ae7554ebf,6453c7906209feb0630c645f,2023-05-04_17h07.29.166,ga_syllabified_check,2022.2.5,Win32,60.42661188,,,,,,,,,,,,,,./stim/p04_syllable_1_costonhialo_hit.wav,p04,costoñialo,hit,cos-to-nhia-lo,cos-to-ñia-lo,cos-to-ñi-a-lo, ,-0.325925926,-0.113888889,1,0,0,0.8512,text_option_1,,0,161,161,35,1
60e635a7f60d7042bcd17169,63f3cfca20052e4ae7554ebf,6453c7906209feb0630c645f,2023-05-04_17h07.29.166,ga_syllabified_check,2022.2.5,Win32,60.42661188,,,,,,,,,,,,,,./stim/p04_syllable_1_ruyiola_hit.wav,p04,ruyiola,hit,ru-yio-la,ru-yio-la,ru-yi-o-la, ,-0.391666667,-0.105555556,1,0,0,0.1675,text_option_1,,0,162,162,66,1
60e635a7f60d7042bcd17169,63f3cfca20052e4ae7554ebf,6453c7906209feb0630c645f,2023-05-04_17h07.29.166,ga_syllabified_check,2022.2.5,Win32,60.42661188,,,,,,,,,,,,,,./stim/p04_syllable_1_manhiala_hit.wav,p04,mañiala,hit,ma-nhia-la,ma-ñia-la,ma-ñi-a-la, ,-0.355555556,-0.109259259,1,0,0,0.149,text_option_1,,0,163,163,55,1
60e635a7f60d7042bcd17169,63f3cfca20052e4ae7554ebf,6453c7906209feb0630c645f,2023-05-04_17h07.29.166,ga_syllabified_check,2022.2.5,Win32,60.42661188,,,,,,,,,,,,,,./stim/p08_syllable_1_costonhialo_hit.wav,p08,costoñialo,hit,cos-to-nhia-lo,cos-to-ñia-lo,cos-to-ñi-a-lo, ,-0.317592593,-0.119444444,1,0,0,0.9669,text_option_1,,0,164,164,171,1
60e635a7f60d7042bcd17169,63f3cfca20052e4ae7554ebf,6453c7906209feb0630c645f,2023-05-04_17h07.29.166,ga_syllabified_check,2022.2.5,Win32,60.42661188,,,,,,,,,,,,,,./stim/p07_syllable_1_lliape_hit.wav,p07,lliape,hit,lliai-pe,llia-pe,lli-a-pe, ,-0.360185185,-0.101851852,1,0,0,0.6658,text_option_1,,0,165,165,156,1
60e635a7f60d7042bcd17169,63f3cfca20052e4ae7554ebf,6453c7906209feb0630c645f,2023-05-04_17h07.29.166,ga_syllabified_check,2022.2.5,Win32,60.42661188,,,,,,,,,,,,,,./stim/p08_syllable_1_palutrauco_hit.wav,p08,palutrauco,hit,pa-lu-trau-ko,pa-lu-trau-co,pa-lu-tra-u-co, ,-0.356481481,-0.108333333,1,0,0,2.2336,text_option_1,,0,166,166,199,1
60e635a7f60d7042bcd17169,63f3cfca20052e4ae7554ebf,6453c7906209feb0630c645f,2023-05-04_17h07.29.166,ga_syllabified_check,2022.2.5,Win32,60.42661188,,,,,,,,,,,,,,./stim/p03_syllable_1_palufauro_hit.wav,p03,palufauro,hit,pa-lu-fau-ro,pa-lu-fau-ro,pa-lu-fa-u-ro, ,-0.369444444,-0.107407407,1,0,0,0.417,text_option_1,,0,167,167,25,1
60e635a7f60d7042bcd17169,63f3cfca20052e4ae7554ebf,6453c7906209feb0630c645f,2023-05-04_17h07.29.166,ga_syllabified_check,2022.2.5,Win32,60.42661188,,,,,,,,,,,,,,./stim/p03_syllable_1_palutrauco_hit.wav,p03,palutrauco,hit,pa-lu-trau-co,pa-lu-trau-co,pa-lu-tra-u-co, ,-0.337037037,-0.10462963,1,0,0,0.3489,text_option_1,,0,168,168,29,1
60e635a7f60d7042bcd17169,63f3cfca20052e4ae7554ebf,6453c7906209feb0630c645f,2023-05-04_17h07.29.166,ga_syllabified_check,2022.2.5,Win32,60.42661188,,,,,,,,,,,,,,./stim/p07_syllable_1_nhiape_hit.wav,p07,ñiape,hit,nhia-pe,ñia-pe,ñi-a-pe, ,-0.387962963,-0.098148148,1,0,0,0.0669,text_option_1,,0,169,169,159,1
60e635a7f60d7042bcd17169,63f3cfca20052e4ae7554ebf,6453c7906209feb0630c645f,2023-05-04_17h07.29.166,ga_syllabified_check,2022.2.5,Win32,60.42661188,,,,,,,,,,,,,,./stim/p08_syllable_1_falufaisto_hit.wav,p08,falufaisto,hit,fa-lu-fais-to,fa-lu-fais-to,fa-lu-fa-is-to, ,-0.35,-0.107407407,1,0,0,1.0169,text_option_1,,0,170,170,173,1
60e635a7f60d7042bcd17169,63f3cfca20052e4ae7554ebf,6453c7906209feb0630c645f,2023-05-04_17h07.29.166,ga_syllabified_check,2022.2.5,Win32,60.42661188,,,,,,,,,,,,,,./stim/p08_syllable_1_payielo_hit.wav,p08,payielo,hit,pa-yie-lo,pa-yie-lo,pa-yi-e-lo, ,-0.388888889,-0.108333333,1,0,0,0.368,text_option_1,,0,171,171,200,1
60e635a7f60d7042bcd17169,63f3cfca20052e4ae7554ebf,6453c7906209feb0630c645f,2023-05-04_17h07.29.166,ga_syllabified_check,2022.2.5,Win32,60.42661188,,,,,,,,,,,,,,./stim/p03_syllable_1_lakadiaisto_hit.wav,p03,lakadiaisto,hit,la-ka-diais-to,la-ka-diais-to,la-ka-di-ais-to,la-ka-dia-is-to,-0.336111111,-0.106481481,1,0,0,1.066,text_option_1,,0,172,172,8,1
60e635a7f60d7042bcd17169,63f3cfca20052e4ae7554ebf,6453c7906209feb0630c645f,2023-05-04_17h07.29.166,ga_syllabified_check,2022.2.5,Win32,60.42661188,,,,,,,,,,,,,,./stim/p06_syllable_1_flauro_hit.wav,p06,flauro,hit,fla-u-ro,flau-ro,fla-u-ro, ,0.376851852,-0.111111111,1,0,0,0.799,text_option_2,,0,173,173,107,1
60e635a7f60d7042bcd17169,63f3cfca20052e4ae7554ebf,6453c7906209feb0630c645f,2023-05-04_17h07.29.166,ga_syllabified_check,2022.2.5,Win32,60.42661188,,,,,,,,,,,,,,./stim/p05_syllable_1_falufaisto_hit.wav,p05,falufaisto,hit,fa-lu-fais-to,fa-lu-fais-to,fa-lu-fa-is-to, ,-0.360185185,-0.101851852,1,0,0,0.6992,text_option_1,,0,174,174,71,1
60e635a7f60d7042bcd17169,63f3cfca20052e4ae7554ebf,6453c7906209feb0630c645f,2023-05-04_17h07.29.166,ga_syllabified_check,2022.2.5,Win32,60.42661188,,,,,,,,,,,,,,./stim/p03_syllable_1_falufaisto_hit.wav,p03,falufaisto,hit,fa-lu-fais-to,fa-lu-fais-to,fa-lu-fa-is-to, ,-0.351851852,-0.114814815,1,0,0,0.9492,text_option_1,,0,175,175,3,1
60e635a7f60d7042bcd17169,63f3cfca20052e4ae7554ebf,6453c7906209feb0630c645f,2023-05-04_17h07.29.166,ga_syllabified_check,2022.2.5,Win32,60.42661188,,,,,,,,,,,,,,./stim/p08_syllable_1_lakafuaisto_hit.wav,p08,lakafuaisto,hit,la-ka-fju-ais-to,la-ka-fuais-to,la-ka-fu-ais-to,la-ka-fua-is-to,0.000925926,-0.27962963,1,0,0,4.4479,text_option_other,lakafuiaisto,0,176,176,181,1
60e635a7f60d7042bcd17169,63f3cfca20052e4ae7554ebf,6453c7906209feb0630c645f,2023-05-04_17h07.29.166,ga_syllabified_check,2022.2.5,Win32,60.42661188,,,,,,,,,,,,,,./stim/p03_syllable_1_lakaguaisto_hit.wav,p03,lakaguaisto,hit,la-ka-guais-to,la-ka-guais-to,la-ka-gu-ais-to,la-ka-gua-is-to,0.008333333,-0.09537037,1,0,0,0.9339,text_option_3,,0,177,177,13,1
60e635a7f60d7042bcd17169,63f3cfca20052e4ae7554ebf,6453c7906209feb0630c645f,2023-05-04_17h07.29.166,ga_syllabified_check,2022.2.5,Win32,60.42661188,,,,,,,,,,,,,,./stim/p04_syllable_1_falutraigo_hit.wav,p04,falutraigo,hit,fa-lu-trai-go,fa-lu-trai-go,fa-lu-tra-i-go, ,-0.364814815,-0.113888889,1,0,0,0.3827,text_option_1,,0,178,178,38,1
60e635a7f60d7042bcd17169,63f3cfca20052e4ae7554ebf,6453c7906209feb0630c645f,2023-05-04_17h07.29.166,ga_syllabified_check,2022.2.5,Win32,60.42661188,,,,,,,,,,,,,,./stim/p04_syllable_1_lakaduaisto_hit.wav,p04,lakaduaisto,hit,la-ka-duais-to,la-ka-duais-to,la-ka-du-ais-to,la-ka-dua-is-to,-0.315740741,-0.108333333,1,0,0,0.4177,text_option_1,,0,179,179,43,1
60e635a7f60d7042bcd17169,63f3cfca20052e4ae7554ebf,6453c7906209feb0630c645f,2023-05-04_17h07.29.166,ga_syllabified_check,2022.2.5,Win32,60.42661188,,,,,,,,,,,,,,./stim/p04_syllable_1_lliape_hit.wav,p04,lliape,hit,lia-pe,llia-pe,lli-a-pe, ,-0.387962963,-0.090740741,1,0,0,0.4824,text_option_1,,0,180,180,54,1
60e635a7f60d7042bcd17169,63f3cfca20052e4ae7554ebf,6453c7906209feb0630c645f,2023-05-04_17h07.29.166,ga_syllabified_check,2022.2.5,Win32,60.42661188,,,,,,,,,,,,,,./stim/p07_syllable_1_lakapiaisto_hit.wav,p07,lakapiaisto,hit,la-ka-pia-sto,la-ka-piais-to,la-ka-pi-ais-to,la-ka-pia-is-to,-0.358333333,-0.1,1,0,0,1.4838,text_option_1,,0,181,181,152,1
60e635a7f60d7042bcd17169,63f3cfca20052e4ae7554ebf,6453c7906209feb0630c645f,2023-05-04_17h07.29.166,ga_syllabified_check,2022.2.5,Win32,60.42661188,,,,,,,,,,,,,,./stim/p07_syllable_1_lakadiaisto_hit.wav,p07,lakadiaisto,hit,la-ka-dia-is-to,la-ka-diais-to,la-ka-di-ais-to,la-ka-dia-is-to,0.036111111,-0.108333333,1,0,0,2.4003,text_option_3,,0,182,182,144,1
60e635a7f60d7042bcd17169,63f3cfca20052e4ae7554ebf,6453c7906209feb0630c645f,2023-05-04_17h07.29.166,ga_syllabified_check,2022.2.5,Win32,60.42661188,,,,,,,,,,,,,,./stim/p03_syllable_1_chiaba_hit.wav,p03,chiaba,hit,chia-ba,chia-ba,chi-a-ba, ,-0.416666667,-0.1,1,0,0,0.5018,text_option_1,,0,183,183,0,1
60e635a7f60d7042bcd17169,63f3cfca20052e4ae7554ebf,6453c7906209feb0630c645f,2023-05-04_17h07.29.166,ga_syllabified_check,2022.2.5,Win32,60.42661188,,,,,,,,,,,,,,./stim/p08_syllable_1_lakagiaisto_hit.wav,p08,lakagiaisto,hit,la-ka-gi-jas-to,la-ka-giais-to,la-ka-gi-ais-to,la-ka-gia-is-to,-0.32962963,-0.105555556,1,0,0,5.1491,text_option_1,,0,184,184,182,1
60e635a7f60d7042bcd17169,63f3cfca20052e4ae7554ebf,6453c7906209feb0630c645f,2023-05-04_17h07.29.166,ga_syllabified_check,2022.2.5,Win32,60.42661188,,,,,,,,,,,,,,./stim/p04_syllable_1_payielo_hit.wav,p04,payielo,hit,pa-yie-lo,pa-yie-lo,pa-yi-e-lo, ,-0.364814815,-0.103703704,1,0,0,0.2994,text_option_1,,0,185,185,64,1
60e635a7f60d7042bcd17169,63f3cfca20052e4ae7554ebf,6453c7906209feb0630c645f,2023-05-04_17h07.29.166,ga_syllabified_check,2022.2.5,Win32,60.42661188,,,,,,,,,,,,,,./stim/p06_syllable_1_lakapiaisto_hit.wav,p06,lakapiaisto,hit,la-ka-pia-is-to,la-ka-piais-to,la-ka-pi-ais-to,la-ka-pia-is-to,0.030555556,-0.096296296,1,0,0,3.2661,text_option_3,,0,186,186,118,1
60e635a7f60d7042bcd17169,63f3cfca20052e4ae7554ebf,6453c7906209feb0630c645f,2023-05-04_17h07.29.166,ga_syllabified_check,2022.2.5,Win32,60.42661188,,,,,,,,,,,,,,./stim/p07_syllable_1_lakafuaisto_hit.wav,p07,lakafuaisto,hit,la-ka-fuais-to,la-ka-fuais-to,la-ka-fu-ais-to,la-ka-fua-is-to,-0.402777778,-0.098148148,1,0,0,1.5675,text_option_1,,0,187,187,147,1
60e635a7f60d7042bcd17169,63f3cfca20052e4ae7554ebf,6453c7906209feb0630c645f,2023-05-04_17h07.29.166,ga_syllabified_check,2022.2.5,Win32,60.42661188,,,,,,,,,,,,,,./stim/p08_syllable_1_palufauro_hit.wav,p08,palufauro,hit,pa-lu-fau-ro,pa-lu-fau-ro,pa-lu-fa-u-ro, ,-0.367592593,-0.103703704,1,0,0,1.5833,text_option_1,,0,188,188,195,1
60e635a7f60d7042bcd17169,63f3cfca20052e4ae7554ebf,6453c7906209feb0630c645f,2023-05-04_17h07.29.166,ga_syllabified_check,2022.2.5,Win32,60.42661188,,,,,,,,,,,,,,./stim/p05_syllable_1_lakaduaisto_hit.wav,p05,lakaduaisto,hit,la-ka-dais-to,la-ka-duais-to,la-ka-du-ais-to,la-ka-dua-is-to,-0.356481481,-0.116666667,1,0,0,1.1348,text_option_1,,0,189,189,77,1
60e635a7f60d7042bcd17169,63f3cfca20052e4ae7554ebf,6453c7906209feb0630c645f,2023-05-04_17h07.29.166,ga_syllabified_check,2022.2.5,Win32,60.42661188,,,,,,,,,,,,,,./stim/p05_syllable_1_lakagiaisto_hit.wav,p05,lakagiaisto,hit,la-ka-ki-ais-to,la-ka-giais-to,la-ka-gi-ais-to,la-ka-gia-is-to,-0.341666667,-0.102777778,1,0,0,0.7488,text_option_1,,0,190,190,80,1
60e635a7f60d7042bcd17169,63f3cfca20052e4ae7554ebf,6453c7906209feb0630c645f,2023-05-04_17h07.29.166,ga_syllabified_check,2022.2.5,Win32,60.42661188,,,,,,,,,,,,,,./stim/p04_syllable_1_pachialo_hit.wav,p04,pachialo,hit,pa-chia-lo,pa-chia-lo,pa-chi-a-lo, ,-0.348148148,-0.100925926,1,0,0,0.0677,text_option_1,,0,191,191,58,1
60e635a7f60d7042bcd17169,63f3cfca20052e4ae7554ebf,6453c7906209feb0630c645f,2023-05-04_17h07.29.166,ga_syllabified_check,2022.2.5,Win32,60.42661188,,,,,,,,,,,,,,./stim/p03_syllable_1_mebochiana_hit.wav,p03,mebochiana,hit,me-bo-chia-na,me-bo-chia-na,me-bo-chi-a-na, ,-0.355555556,-0.099074074,1,0,0,0.7842,text_option_1,,0,192,192,22,1
60e635a7f60d7042bcd17169,63f3cfca20052e4ae7554ebf,6453c7906209feb0630c645f,2023-05-04_17h07.29.166,ga_syllabified_check,2022.2.5,Win32,60.42661188,,,,,,,,,,,,,,./stim/p08_syllable_1_lakabiaisto_hit.wav,p08,lakabiaisto,hit,la-ka-bi-as-to,la-ka-biais-to,la-ka-bi-ais-to,la-ka-bia-is-to,0.027777778,-0.103703704,1,0,0,3.3834,text_option_3,,0,193,193,176,1
60e635a7f60d7042bcd17169,63f3cfca20052e4ae7554ebf,6453c7906209feb0630c645f,2023-05-04_17h07.29.166,ga_syllabified_check,2022.2.5,Win32,60.42661188,,,,,,,,,,,,,,./stim/p05_syllable_1_nhiape_hit.wav,p05,ñiape,hit,nhia-pe,ñia-pe,ñi-a-pe, ,-0.371296296,-0.103703704,1,0,0,0.2996,text_option_1,,0,194,194,91,1
60e635a7f60d7042bcd17169,63f3cfca20052e4ae7554ebf,6453c7906209feb0630c645f,2023-05-04_17h07.29.166,ga_syllabified_check,2022.2.5,Win32,60.42661188,,,,,,,,,,,,,,./stim/p03_syllable_1_faluduako_hit.wav,p03,faluduako,hit,fa-lu-dua-ko,fa-lu-dua-ko,fa-lu-du-a-ko, ,-0.369444444,-0.093518519,1,0,0,1.4165,text_option_1,,0,195,195,2,1
60e635a7f60d7042bcd17169,63f3cfca20052e4ae7554ebf,6453c7906209feb0630c645f,2023-05-04_17h07.29.166,ga_syllabified_check,2022.2.5,Win32,60.42661188,,,,,,,,,,,,,,./stim/p04_syllable_1_lakafuaisto_hit.wav,p04,lakafuaisto,hit,la-ka-fuais-to,la-ka-fuais-to,la-ka-fu-ais-to,la-ka-fua-is-to,-0.336111111,-0.112037037,1,0,0,0.3657,text_option_1,,0,196,196,45,1
60e635a7f60d7042bcd17169,63f3cfca20052e4ae7554ebf,6453c7906209feb0630c645f,2023-05-04_17h07.29.166,ga_syllabified_check,2022.2.5,Win32,60.42661188,,,,,,,,,,,,,,./stim/p07_syllable_1_lakaguaisto_hit.wav,p07,lakaguaisto,hit,la-ka-guais-to,la-ka-guais-to,la-ka-gu-ais-to,la-ka-gua-is-to,-0.336111111,-0.116666667,1,0,0,0.7165,text_option_1,,0,197,197,149,1
60e635a7f60d7042bcd17169,63f3cfca20052e4ae7554ebf,6453c7906209feb0630c645f,2023-05-04_17h07.29.166,ga_syllabified_check,2022.2.5,Win32,60.42661188,,,,,,,,,,,,,,./stim/p05_syllable_1_palufauto_hit.wav,p05,palufauto,hit,pa-lu-fau-to,pa-lu-fau-to,pa-lu-fa-u-to, ,-0.336111111,-0.116666667,1,0,0,0.7677,text_option_1,,0,198,198,94,1
60e635a7f60d7042bcd17169,63f3cfca20052e4ae7554ebf,6453c7906209feb0630c645f,2023-05-04_17h07.29.166,ga_syllabified_check,2022.2.5,Win32,60.42661188,,,,,,,,,,,,,,./stim/p03_syllable_1_lakakiaisto_hit.wav,p03,lakakiaisto,hit,la-ka-kiais-to,la-ka-kiais-to,la-ka-ki-ais-to,la-ka-kia-is-to,-0.322222222,-0.10462963,1,0,0,0.8669,text_option_1,,0,199,199,14,1
60e635a7f60d7042bcd17169,63f3cfca20052e4ae7554ebf,6453c7906209feb0630c645f,2023-05-04_17h07.29.166,ga_syllabified_check,2022.2.5,Win32,60.42661188,,,,,,,,,,,,,,./stim/p05_syllable_1_lakabuaisto_hit.wav,p05,lakabuaisto,hit,la-ka-buais-to,la-ka-buais-to,la-ka-bu-ais-to,la-ka-bua-is-to,-0.322222222,-0.10462963,1,0,0,0.6004,text_option_1,,0,200,200,75,1
60e635a7f60d7042bcd17169,63f3cfca20052e4ae7554ebf,6453c7906209feb0630c645f,2023-05-04_17h07.29.166,ga_syllabified_check,2022.2.5,Win32,60.42661188,,,,,,,,,,,,,,./stim/p06_syllable_1_lakatiaisto_hit.wav,p06,lakatiaisto,hit,la-ka-pia-is-to,la-ka-tiais-to,la-ka-ti-ais-to,la-ka-tia-is-to,0.076851852,-0.105555556,1,0,0,2.6163,text_option_3,,0,201,201,120,1
60e635a7f60d7042bcd17169,63f3cfca20052e4ae7554ebf,6453c7906209feb0630c645f,2023-05-04_17h07.29.166,ga_syllabified_check,2022.2.5,Win32,60.42661188,,,,,,,,,,,,,,./stim/p05_syllable_1_tuliafo_hit.wav,p05,tuliafo,hit,tu-lai-fo,tu-lia-fo,tu-li-a-fo, ,-0.375,-0.103703704,1,0,0,0.415,text_option_1,,0,202,202,101,1
60e635a7f60d7042bcd17169,63f3cfca20052e4ae7554ebf,6453c7906209feb0630c645f,2023-05-04_17h07.29.166,ga_syllabified_check,2022.2.5,Win32,60.42661188,,,,,,,,,,,,,,./stim/p03_syllable_1_lakagiaisto_hit.wav,p03,lakagiaisto,hit,la-ka-giais-to,la-ka-giais-to,la-ka-gi-ais-to,la-ka-gia-is-to,0.035185185,-0.111111111,1,0,0,2.6825,text_option_3,,0,203,203,12,1
60e635a7f60d7042bcd17169,63f3cfca20052e4ae7554ebf,6453c7906209feb0630c645f,2023-05-04_17h07.29.166,ga_syllabified_check,2022.2.5,Win32,60.42661188,,,,,,,,,,,,,,,,,,,,,,,,,,,,,,,,,,
