participant,study,session,date,expName,psychopyVersion,OS,frameRate,mouse_practice.x,mouse_practice.y,mouse_practice.leftButton,mouse_practice.midButton,mouse_practice.rightButton,mouse_practice.time,mouse_practice.clicked_name,textbox_followup_practice.text,trials_practice.thisRepN,trials_practice.thisTrialN,trials_practice.thisN,trials_practice.thisIndex,trials_practice.ran,file_path,id,item,status,response,op1,op2,op3,mouse.x,mouse.y,mouse.leftButton,mouse.midButton,mouse.rightButton,mouse.time,mouse.clicked_name,textbox_followup.text,trials.thisRepN,trials.thisTrialN,trials.thisN,trials.thisIndex,trials.ran
60f364780342181eb49b70d7,63f3cfca20052e4ae7554ebf,6453c9428a79e029a237f3e5,2023-05-04_17h05.07.241,ga_syllabified_check,2022.2.5,MacIntel,60.0024001,,,,,,,,,,,,,,,,,,,,,,,,,,,,,,,,,,
60f364780342181eb49b70d7,63f3cfca20052e4ae7554ebf,6453c9428a79e029a237f3e5,2023-05-04_17h05.07.241,ga_syllabified_check,2022.2.5,MacIntel,60.0024001,-0.411310764,-0.112335069,1,0,0,3.7349,text_option_1_practice,,0,0,0,0,1,./stim/p03_syllable_1_liamo_hit.wav,p03,liamo,hit,lia-mo,lia-mo,li-a-mo, ,,,,,,,,,,,,,
60f364780342181eb49b70d7,63f3cfca20052e4ae7554ebf,6453c9428a79e029a237f3e5,2023-05-04_17h05.07.241,ga_syllabified_check,2022.2.5,MacIntel,60.0024001,-0.411310764,-0.111649306,1,0,0,1.7501,text_option_1_practice,,0,1,1,1,1,./stim/p05_syllable_1_matio_hit.wav,p05,matio,hit,ma-tio,ma-tio,ma-ti-o, ,,,,,,,,,,,,,
60f364780342181eb49b70d7,63f3cfca20052e4ae7554ebf,6453c9428a79e029a237f3e5,2023-05-04_17h05.07.241,ga_syllabified_check,2022.2.5,MacIntel,60.0024001,0.347886285,-0.108715278,1,0,0,6.2369,text_option_2_practice,,0,2,2,2,1,./stim/p08_syllable_1_liamo_hit.wav,p08,liamo,hit,ja-mo,lia-mo,li-a-mo, ,,,,,,,,,,,,,
60f364780342181eb49b70d7,63f3cfca20052e4ae7554ebf,6453c9428a79e029a237f3e5,2023-05-04_17h05.07.241,ga_syllabified_check,2022.2.5,MacIntel,60.0024001,,,,,,,,,,,,,,,,,,,,,,,,,,,,,,,,,,
60f364780342181eb49b70d7,63f3cfca20052e4ae7554ebf,6453c9428a79e029a237f3e5,2023-05-04_17h05.07.241,ga_syllabified_check,2022.2.5,MacIntel,60.0024001,,,,,,,,,,,,,,./stim/p05_syllable_1_paluguato_hit.wav,p05,paluguato,hit,pa-lu-gau-to,pa-lu-gua-to,pa-lu-gu-a-to, ,-0.032083333,-0.309652778,1,0,0,5.5639,text_option_other,pa-lu-gau-to,0,0,0,95,1
60f364780342181eb49b70d7,63f3cfca20052e4ae7554ebf,6453c9428a79e029a237f3e5,2023-05-04_17h05.07.241,ga_syllabified_check,2022.2.5,MacIntel,60.0024001,,,,,,,,,,,,,,./stim/p08_syllable_1_palufauto_hit.wav,p08,palufauto,hit,pa-lu-fau-to,pa-lu-fau-to,pa-lu-fa-u-to, ,-0.339626736,-0.105173611,1,0,0,4.1656,text_option_1,,0,1,1,196,1
60f364780342181eb49b70d7,63f3cfca20052e4ae7554ebf,6453c9428a79e029a237f3e5,2023-05-04_17h05.07.241,ga_syllabified_check,2022.2.5,MacIntel,60.0024001,,,,,,,,,,,,,,./stim/p08_syllable_1_lakaguaisto_hit.wav,p08,lakaguaisto,hit,la-ka-gu-ais-to,la-ka-guais-to,la-ka-gu-ais-to,la-ka-gua-is-to,-0.364001736,-0.114878472,1,0,0,4.3688,text_option_1,,0,2,2,183,1
60f364780342181eb49b70d7,63f3cfca20052e4ae7554ebf,6453c9428a79e029a237f3e5,2023-05-04_17h05.07.241,ga_syllabified_check,2022.2.5,MacIntel,60.0024001,,,,,,,,,,,,,,./stim/p04_syllable_1_paluguato_hit.wav,p04,paluguato,hit,pa-lu-gua,pa-lu-gua-to,pa-lu-gu-a-to, ,-0.396289063,-0.106601562,1,0,0,4.9513,text_option_1,,0,3,3,61,1
60f364780342181eb49b70d7,63f3cfca20052e4ae7554ebf,6453c9428a79e029a237f3e5,2023-05-04_17h05.07.241,ga_syllabified_check,2022.2.5,MacIntel,60.0024001,,,,,,,,,,,,,,./stim/p04_syllable_1_pachialo_hit.wav,p04,pachialo,hit,pa-chia-lo,pa-chia-lo,pa-chi-a-lo, ,-0.370594618,-0.099648438,1,0,0,2.0829,text_option_1,,0,4,4,58,1
60f364780342181eb49b70d7,63f3cfca20052e4ae7554ebf,6453c9428a79e029a237f3e5,2023-05-04_17h05.07.241,ga_syllabified_check,2022.2.5,MacIntel,60.0024001,,,,,,,,,,,,,,./stim/p06_syllable_1_ruyiola_hit.wav,p06,ruyiola,hit,ru-yi-o-la,ru-yio-la,ru-yi-o-la, ,0.362608507,-0.113185764,1,0,0,2.7008,text_option_2,,0,5,5,134,1
60f364780342181eb49b70d7,63f3cfca20052e4ae7554ebf,6453c9428a79e029a237f3e5,2023-05-04_17h05.07.241,ga_syllabified_check,2022.2.5,MacIntel,60.0024001,,,,,,,,,,,,,,./stim/p03_syllable_1_lakapuaisto_hit.wav,p03,lakapuaisto,hit,la-ka-puais-to,la-ka-puais-to,la-ka-pu-ais-to,la-ka-pua-is-to,-0.317235243,-0.100881076,1,0,0,2.8829,text_option_1,,0,6,6,17,1
60f364780342181eb49b70d7,63f3cfca20052e4ae7554ebf,6453c9428a79e029a237f3e5,2023-05-04_17h05.07.241,ga_syllabified_check,2022.2.5,MacIntel,60.0024001,,,,,,,,,,,,,,./stim/p03_syllable_1_palufauto_hit.wav,p03,palufauto,hit,pa-lu-fau,pa-lu-fau-to,pa-lu-fa-u-to, ,-0.366050347,-0.101644965,1,0,0,2.0502,text_option_1,,0,7,7,26,1
60f364780342181eb49b70d7,63f3cfca20052e4ae7554ebf,6453c9428a79e029a237f3e5,2023-05-04_17h05.07.241,ga_syllabified_check,2022.2.5,MacIntel,60.0024001,,,,,,,,,,,,,,./stim/p05_syllable_1_lakapiaisto_hit.wav,p05,lakapiaisto,hit,la-ka-pais-to,la-ka-piais-to,la-ka-pi-ais-to,la-ka-pia-is-to,-0.368645833,-0.110282118,1,0,0,4.5339,text_option_1,,0,8,8,84,1
60f364780342181eb49b70d7,63f3cfca20052e4ae7554ebf,6453c9428a79e029a237f3e5,2023-05-04_17h05.07.241,ga_syllabified_check,2022.2.5,MacIntel,60.0024001,,,,,,,,,,,,,,./stim/p05_syllable_1_costonhialo_hit.wav,p05,costoñialo,hit,cos-to-nhia-lo,cos-to-ñia-lo,cos-to-ñi-a-lo, ,-0.340108507,-0.102391493,1,0,0,2.7337,text_option_1,,0,9,9,69,1
60f364780342181eb49b70d7,63f3cfca20052e4ae7554ebf,6453c9428a79e029a237f3e5,2023-05-04_17h05.07.241,ga_syllabified_check,2022.2.5,MacIntel,60.0024001,,,,,,,,,,,,,,./stim/p06_syllable_1_palufauro_hit.wav,p06,palufauro,hit,pa-lu-fau-ro,pa-lu-fau-ro,pa-lu-fa-u-ro, ,0.388168403,-0.105768229,1,0,0,6.3336,text_option_2,,0,10,10,127,1
60f364780342181eb49b70d7,63f3cfca20052e4ae7554ebf,6453c9428a79e029a237f3e5,2023-05-04_17h05.07.241,ga_syllabified_check,2022.2.5,MacIntel,60.0024001,,,,,,,,,,,,,,./stim/p04_syllable_1_nhiape_hit.wav,p04,ñiape,hit,nhia-pe,ñia-pe,ñi-a-pe, ,-0.393806424,-0.10733941,1,0,0,0.9852,text_option_1,,0,11,11,57,1
60f364780342181eb49b70d7,63f3cfca20052e4ae7554ebf,6453c9428a79e029a237f3e5,2023-05-04_17h05.07.241,ga_syllabified_check,2022.2.5,MacIntel,60.0024001,,,,,,,,,,,,,,./stim/p03_syllable_1_lakagiaisto_hit.wav,p03,lakagiaisto,hit,la-ka-giais-to,la-ka-giais-to,la-ka-gi-ais-to,la-ka-gia-is-to,-0.383081597,-0.111840278,1,0,0,5.3833,text_option_1,,0,12,12,12,1
60f364780342181eb49b70d7,63f3cfca20052e4ae7554ebf,6453c9428a79e029a237f3e5,2023-05-04_17h05.07.241,ga_syllabified_check,2022.2.5,MacIntel,60.0024001,,,,,,,,,,,,,,./stim/p08_syllable_1_palutrauco_hit.wav,p08,palutrauco,hit,pa-lu-trau-ko,pa-lu-trau-co,pa-lu-tra-u-co, ,-0.337795139,-0.110138889,1,0,0,4.0978,text_option_1,,0,13,13,199,1
60f364780342181eb49b70d7,63f3cfca20052e4ae7554ebf,6453c9428a79e029a237f3e5,2023-05-04_17h05.07.241,ga_syllabified_check,2022.2.5,MacIntel,60.0024001,,,,,,,,,,,,,,./stim/p07_syllable_1_pachialo_hit.wav,p07,pachialo,hit,pa-cha-lo,pa-chia-lo,pa-chi-a-lo, ,-0.394409722,-0.109032118,1,0,0,5.3819,text_option_1,,0,14,14,160,1
60f364780342181eb49b70d7,63f3cfca20052e4ae7554ebf,6453c9428a79e029a237f3e5,2023-05-04_17h05.07.241,ga_syllabified_check,2022.2.5,MacIntel,60.0024001,,,,,,,,,,,,,,./stim/p07_syllable_1_lakafuaisto_hit.wav,p07,lakafuaisto,hit,la-ka-fuais-to,la-ka-fuais-to,la-ka-fu-ais-to,la-ka-fua-is-to,-0.365681424,-0.102369792,1,0,0,3.785,text_option_1,,0,15,15,147,1
60f364780342181eb49b70d7,63f3cfca20052e4ae7554ebf,6453c9428a79e029a237f3e5,2023-05-04_17h05.07.241,ga_syllabified_check,2022.2.5,MacIntel,60.0024001,,,,,,,,,,,,,,./stim/p07_syllable_1_paluguato_hit.wav,p07,paluguato,hit,pa-lu-gua-to,pa-lu-gua-to,pa-lu-gu-a-to, ,-0.325329861,-0.10687066,1,0,0,2.266,text_option_1,,0,16,16,163,1
60f364780342181eb49b70d7,63f3cfca20052e4ae7554ebf,6453c9428a79e029a237f3e5,2023-05-04_17h05.07.241,ga_syllabified_check,2022.2.5,MacIntel,60.0024001,,,,,,,,,,,,,,./stim/p08_syllable_1_manhiala_hit.wav,p08,mañiala,hit,ma-nhia-la,ma-ñia-la,ma-ñi-a-la, ,-0.347617187,-0.105078125,1,0,0,2.318,text_option_1,,0,17,17,191,1
60f364780342181eb49b70d7,63f3cfca20052e4ae7554ebf,6453c9428a79e029a237f3e5,2023-05-04_17h05.07.241,ga_syllabified_check,2022.2.5,MacIntel,60.0024001,,,,,,,,,,,,,,./stim/p05_syllable_1_lakafiaisto_hit.wav,p05,lakafiaisto,hit,la-ka-fi-ais-to,la-ka-fiais-to,la-ka-fi-ais-to,la-ka-fia-is-to,0.37875,-0.110585937,1,0,0,4.8507,text_option_2,,0,18,18,78,1
60f364780342181eb49b70d7,63f3cfca20052e4ae7554ebf,6453c9428a79e029a237f3e5,2023-05-04_17h05.07.241,ga_syllabified_check,2022.2.5,MacIntel,60.0024001,,,,,,,,,,,,,,./stim/p08_syllable_1_lakakiaisto_hit.wav,p08,lakakiaisto,hit,la-ka-ki-jas-to,la-ka-kiais-to,la-ka-ki-ais-to,la-ka-kia-is-to,0.414162326,-0.101137153,1,0,0,7.6015,text_option_2,,0,19,19,184,1
60f364780342181eb49b70d7,63f3cfca20052e4ae7554ebf,6453c9428a79e029a237f3e5,2023-05-04_17h05.07.241,ga_syllabified_check,2022.2.5,MacIntel,60.0024001,,,,,,,,,,,,,,./stim/p03_syllable_1_rausto_hit.wav,p03,rausto,hit,raus-to,raus-to,ra-us-to, ,-0.376697049,-0.104279514,1,0,0,1.7493,text_option_1,,0,20,20,31,1
60f364780342181eb49b70d7,63f3cfca20052e4ae7554ebf,6453c9428a79e029a237f3e5,2023-05-04_17h05.07.241,ga_syllabified_check,2022.2.5,MacIntel,60.0024001,,,,,,,,,,,,,,./stim/p04_syllable_1_palutrauco_hit.wav,p04,palutrauco,hit,pa-lu-trau-co,pa-lu-trau-co,pa-lu-tra-u-co, ,-0.377599826,-0.113385417,1,0,0,4.9532,text_option_1,,0,21,21,63,1
60f364780342181eb49b70d7,63f3cfca20052e4ae7554ebf,6453c9428a79e029a237f3e5,2023-05-04_17h05.07.241,ga_syllabified_check,2022.2.5,MacIntel,60.0024001,,,,,,,,,,,,,,./stim/p05_syllable_1_lakatuaisto_hit.wav,p05,lakatuaisto,hit,la-ka-tais-to,la-ka-tuais-to,la-ka-tu-ais-to,la-ka-tua-is-to,-0.348142361,-0.111792535,1,0,0,3.0171,text_option_1,,0,22,22,87,1
60f364780342181eb49b70d7,63f3cfca20052e4ae7554ebf,6453c9428a79e029a237f3e5,2023-05-04_17h05.07.241,ga_syllabified_check,2022.2.5,MacIntel,60.0024001,,,,,,,,,,,,,,./stim/p03_syllable_1_palufauro_hit.wav,p03,palufauro,hit,pa-lu-fau-ro,pa-lu-fau-ro,pa-lu-fa-u-ro, ,-0.373715278,-0.11202691,1,0,0,3.7986,text_option_1,,0,23,23,25,1
60f364780342181eb49b70d7,63f3cfca20052e4ae7554ebf,6453c9428a79e029a237f3e5,2023-05-04_17h05.07.241,ga_syllabified_check,2022.2.5,MacIntel,60.0024001,,,,,,,,,,,,,,./stim/p07_syllable_1_chiaba_hit.wav,p07,chiaba,hit,chia-ba,chia-ba,chi-a-ba, ,-0.359509549,-0.10625,1,0,0,1.4008,text_option_1,,0,24,24,136,1
60f364780342181eb49b70d7,63f3cfca20052e4ae7554ebf,6453c9428a79e029a237f3e5,2023-05-04_17h05.07.241,ga_syllabified_check,2022.2.5,MacIntel,60.0024001,,,,,,,,,,,,,,./stim/p04_syllable_1_lakagiaisto_hit.wav,p04,lakagiaisto,hit,la-ka-giais-to,la-ka-giais-to,la-ka-gi-ais-to,la-ka-gia-is-to,0.366597222,-0.098637153,1,0,0,3.4853,text_option_2,,0,25,25,46,1
60f364780342181eb49b70d7,63f3cfca20052e4ae7554ebf,6453c9428a79e029a237f3e5,2023-05-04_17h05.07.241,ga_syllabified_check,2022.2.5,MacIntel,60.0024001,,,,,,,,,,,,,,./stim/p08_syllable_1_lakapiaisto_hit.wav,p08,lakapiaisto,hit,la-ka-pi-as-to,la-ka-piais-to,la-ka-pi-ais-to,la-ka-pia-is-to,0.051614583,-0.103311632,1,0,0,6.5162,text_option_3,,0,26,26,186,1
60f364780342181eb49b70d7,63f3cfca20052e4ae7554ebf,6453c9428a79e029a237f3e5,2023-05-04_17h05.07.241,ga_syllabified_check,2022.2.5,MacIntel,60.0024001,,,,,,,,,,,,,,./stim/p07_syllable_1_mebochiana_hit.wav,p07,mebochiana,hit,me-bo-chia-na,me-bo-chia-na,me-bo-chi-a-na, ,-0.360186632,-0.116436632,1,0,0,5.7981,text_option_1,,0,27,27,158,1
60f364780342181eb49b70d7,63f3cfca20052e4ae7554ebf,6453c9428a79e029a237f3e5,2023-05-04_17h05.07.241,ga_syllabified_check,2022.2.5,MacIntel,60.0024001,,,,,,,,,,,,,,./stim/p05_syllable_1_pachialo_hit.wav,p05,pachialo,hit,pan-chia-lo,pa-chia-lo,pa-chi-a-lo, ,0.382634549,-0.115394965,1,0,0,3.0823,text_option_2,,0,28,28,92,1
60f364780342181eb49b70d7,63f3cfca20052e4ae7554ebf,6453c9428a79e029a237f3e5,2023-05-04_17h05.07.241,ga_syllabified_check,2022.2.5,MacIntel,60.0024001,,,,,,,,,,,,,,./stim/p08_syllable_1_palufauro_hit.wav,p08,palufauro,hit,pa-lu-fau-ro,pa-lu-fau-ro,pa-lu-fa-u-ro, ,-0.338172743,-0.110460069,1,0,0,3.7836,text_option_1,,0,29,29,195,1
60f364780342181eb49b70d7,63f3cfca20052e4ae7554ebf,6453c9428a79e029a237f3e5,2023-05-04_17h05.07.241,ga_syllabified_check,2022.2.5,MacIntel,60.0024001,,,,,,,,,,,,,,./stim/p04_syllable_1_payielo_hit.wav,p04,payielo,hit,pa-yie-lo,pa-yie-lo,pa-yi-e-lo, ,-0.347686632,-0.10328125,1,0,0,1.3988,text_option_1,,0,30,30,64,1
60f364780342181eb49b70d7,63f3cfca20052e4ae7554ebf,6453c9428a79e029a237f3e5,2023-05-04_17h05.07.241,ga_syllabified_check,2022.2.5,MacIntel,60.0024001,,,,,,,,,,,,,,./stim/p03_syllable_1_paluguato_hit.wav,p03,paluguato,hit,pa-lu-gua,pa-lu-gua-to,pa-lu-gu-a-to, ,0.294817708,-0.101432292,1,0,0,5.6339,text_option_2,,0,31,31,27,1
60f364780342181eb49b70d7,63f3cfca20052e4ae7554ebf,6453c9428a79e029a237f3e5,2023-05-04_17h05.07.241,ga_syllabified_check,2022.2.5,MacIntel,60.0024001,,,,,,,,,,,,,,./stim/p03_syllable_1_lakakuaisto_hit.wav,p03,lakakuaisto,hit,la-ka-kuais-to,la-ka-kuais-to,la-ka-ku-ais-to,la-ka-kua-is-to,-0.325108507,-0.105503472,1,0,0,2.1549,text_option_1,,0,32,32,15,1
60f364780342181eb49b70d7,63f3cfca20052e4ae7554ebf,6453c9428a79e029a237f3e5,2023-05-04_17h05.07.241,ga_syllabified_check,2022.2.5,MacIntel,60.0024001,,,,,,,,,,,,,,./stim/p04_syllable_1_chiaba_hit.wav,p04,chiaba,hit,chia-ba,chia-ba,chi-a-ba, ,-0.386736111,-0.110360243,1,0,0,1.3153,text_option_1,,0,33,33,34,1
60f364780342181eb49b70d7,63f3cfca20052e4ae7554ebf,6453c9428a79e029a237f3e5,2023-05-04_17h05.07.241,ga_syllabified_check,2022.2.5,MacIntel,60.0024001,,,,,,,,,,,,,,./stim/p08_syllable_1_falutraigo_hit.wav,p08,falutraigo,hit,fa-lu-trai-go,fa-lu-trai-go,fa-lu-tra-i-go, ,-0.36218316,-0.107434896,1,0,0,2.4504,text_option_1,,0,34,34,174,1
60f364780342181eb49b70d7,63f3cfca20052e4ae7554ebf,6453c9428a79e029a237f3e5,2023-05-04_17h05.07.241,ga_syllabified_check,2022.2.5,MacIntel,60.0024001,,,,,,,,,,,,,,./stim/p06_syllable_1_lakaguaisto_hit.wav,p06,lakaguaisto,hit,la-ka-gu-a-is,la-ka-guais-to,la-ka-gu-ais-to,la-ka-gua-is-to,0.009097222,-0.104171007,1,0,0,8.8826,text_option_3,,0,35,35,115,1
60f364780342181eb49b70d7,63f3cfca20052e4ae7554ebf,6453c9428a79e029a237f3e5,2023-05-04_17h05.07.241,ga_syllabified_check,2022.2.5,MacIntel,60.0024001,,,,,,,,,,,,,,./stim/p08_syllable_1_nhiape_hit.wav,p08,ñiape,hit,ni-a-pe,ñia-pe,ñi-a-pe, ,-0.378572049,-0.10031684,1,0,0,3.7677,text_option_1,,0,36,36,193,1
60f364780342181eb49b70d7,63f3cfca20052e4ae7554ebf,6453c9428a79e029a237f3e5,2023-05-04_17h05.07.241,ga_syllabified_check,2022.2.5,MacIntel,60.0024001,,,,,,,,,,,,,,./stim/p05_syllable_1_chiaba_hit.wav,p05,chiaba,hit,chia-ba,chia-ba,chi-a-ba, ,-0.35280816,-0.105664063,1,0,0,2.5644,text_option_1,,0,37,37,68,1
60f364780342181eb49b70d7,63f3cfca20052e4ae7554ebf,6453c9428a79e029a237f3e5,2023-05-04_17h05.07.241,ga_syllabified_check,2022.2.5,MacIntel,60.0024001,,,,,,,,,,,,,,./stim/p05_syllable_1_manhiala_hit.wav,p05,mañiala,hit,ma-nhia-la,ma-ñia-la,ma-ñi-a-la, ,-0.375078125,-0.100898437,1,0,0,1.432,text_option_1,,0,38,38,89,1
60f364780342181eb49b70d7,63f3cfca20052e4ae7554ebf,6453c9428a79e029a237f3e5,2023-05-04_17h05.07.241,ga_syllabified_check,2022.2.5,MacIntel,60.0024001,,,,,,,,,,,,,,./stim/p04_syllable_1_lakakuaisto_hit.wav,p04,lakakuaisto,hit,la-ka-kuais-to,la-ka-kuais-to,la-ka-ku-ais-to,la-ka-kua-is-to,-0.354887153,-0.118585069,1,0,0,3.5312,text_option_1,,0,39,39,49,1
60f364780342181eb49b70d7,63f3cfca20052e4ae7554ebf,6453c9428a79e029a237f3e5,2023-05-04_17h05.07.241,ga_syllabified_check,2022.2.5,MacIntel,60.0024001,,,,,,,,,,,,,,./stim/p05_syllable_1_mebochiana_hit.wav,p05,mebochiana,hit,me-cho-chai-na,me-bo-chia-na,me-bo-chi-a-na, ,-0.353893229,-0.109513889,1,0,0,5.9027,text_option_1,,0,40,40,90,1
60f364780342181eb49b70d7,63f3cfca20052e4ae7554ebf,6453c9428a79e029a237f3e5,2023-05-04_17h05.07.241,ga_syllabified_check,2022.2.5,MacIntel,60.0024001,,,,,,,,,,,,,,./stim/p03_syllable_1_lliape_hit.wav,p03,lliape,hit,llia,llia-pe,lli-a-pe, ,-0.389726562,-0.103728299,1,0,0,1.9835,text_option_1,,0,41,41,20,1
60f364780342181eb49b70d7,63f3cfca20052e4ae7554ebf,6453c9428a79e029a237f3e5,2023-05-04_17h05.07.241,ga_syllabified_check,2022.2.5,MacIntel,60.0024001,,,,,,,,,,,,,,./stim/p08_syllable_1_chiaba_hit.wav,p08,chiaba,hit,chi-a-ba,chia-ba,chi-a-ba, ,0.377157118,-0.102834201,1,0,0,1.3335,text_option_2,,0,42,42,170,1
60f364780342181eb49b70d7,63f3cfca20052e4ae7554ebf,6453c9428a79e029a237f3e5,2023-05-04_17h05.07.241,ga_syllabified_check,2022.2.5,MacIntel,60.0024001,,,,,,,,,,,,,,./stim/p08_syllable_1_rausto_hit.wav,p08,rausto,hit,raus-to,raus-to,ra-us-to, ,-0.372152778,-0.107473958,1,0,0,2.0816,text_option_1,,0,43,43,201,1
60f364780342181eb49b70d7,63f3cfca20052e4ae7554ebf,6453c9428a79e029a237f3e5,2023-05-04_17h05.07.241,ga_syllabified_check,2022.2.5,MacIntel,60.0024001,,,,,,,,,,,,,,./stim/p07_syllable_1_manhiala_hit.wav,p07,mañiala,hit,ma-nhia-la,ma-ñia-la,ma-ñi-a-la, ,-0.366102431,-0.098272569,1,0,0,1.6175,text_option_1,,0,44,44,157,1
60f364780342181eb49b70d7,63f3cfca20052e4ae7554ebf,6453c9428a79e029a237f3e5,2023-05-04_17h05.07.241,ga_syllabified_check,2022.2.5,MacIntel,60.0024001,,,,,,,,,,,,,,./stim/p08_syllable_1_payielo_hit.wav,p08,payielo,hit,pa-yie-lo,pa-yie-lo,pa-yi-e-lo, ,-0.377256944,-0.103064236,1,0,0,1.9639,text_option_1,,0,45,45,200,1
60f364780342181eb49b70d7,63f3cfca20052e4ae7554ebf,6453c9428a79e029a237f3e5,2023-05-04_17h05.07.241,ga_syllabified_check,2022.2.5,MacIntel,60.0024001,,,,,,,,,,,,,,./stim/p08_syllable_1_lakatiaisto_hit.wav,p08,lakatiaisto,hit,la-ka-ti-as-to,la-ka-tiais-to,la-ka-ti-ais-to,la-ka-tia-is-to,0.358194444,-0.0971875,1,0,0,5.9468,text_option_2,,0,46,46,188,1
60f364780342181eb49b70d7,63f3cfca20052e4ae7554ebf,6453c9428a79e029a237f3e5,2023-05-04_17h05.07.241,ga_syllabified_check,2022.2.5,MacIntel,60.0024001,,,,,,,,,,,,,,./stim/p07_syllable_1_rausto_hit.wav,p07,rausto,hit,raus-to,raus-to,ra-us-to, ,-0.388068576,-0.111271701,1,0,0,1.9805,text_option_1,,0,47,47,167,1
60f364780342181eb49b70d7,63f3cfca20052e4ae7554ebf,6453c9428a79e029a237f3e5,2023-05-04_17h05.07.241,ga_syllabified_check,2022.2.5,MacIntel,60.0024001,,,,,,,,,,,,,,./stim/p06_syllable_1_tuliafo_hit.wav,p06,tuliafo,hit,tu-li-a-fo,tu-lia-fo,tu-li-a-fo, ,0.408207465,-0.099969618,1,0,0,2.15,text_option_2,,0,48,48,135,1
60f364780342181eb49b70d7,63f3cfca20052e4ae7554ebf,6453c9428a79e029a237f3e5,2023-05-04_17h05.07.241,ga_syllabified_check,2022.2.5,MacIntel,60.0024001,,,,,,,,,,,,,,./stim/p06_syllable_1_paluguato_hit.wav,p06,paluguato,hit,pa-lu-gua-to,pa-lu-gua-to,pa-lu-gu-a-to, ,-0.317400174,-0.100442708,1,0,0,2.9484,text_option_1,,0,49,49,129,1
60f364780342181eb49b70d7,63f3cfca20052e4ae7554ebf,6453c9428a79e029a237f3e5,2023-05-04_17h05.07.241,ga_syllabified_check,2022.2.5,MacIntel,60.0024001,,,,,,,,,,,,,,./stim/p03_syllable_1_chiaba_hit.wav,p03,chiaba,hit,chia-ba,chia-ba,chi-a-ba, ,-0.380225694,-0.108697917,1,0,0,1.315,text_option_1,,0,50,50,0,1
60f364780342181eb49b70d7,63f3cfca20052e4ae7554ebf,6453c9428a79e029a237f3e5,2023-05-04_17h05.07.241,ga_syllabified_check,2022.2.5,MacIntel,60.0024001,,,,,,,,,,,,,,./stim/p03_syllable_1_lakaduaisto_hit.wav,p03,lakaduaisto,hit,la-ka-duais-to,la-ka-duais-to,la-ka-du-ais-to,la-ka-dua-is-to,-0.319175347,-0.087395833,1,0,0,2.2354,text_option_1,,0,51,51,9,1
60f364780342181eb49b70d7,63f3cfca20052e4ae7554ebf,6453c9428a79e029a237f3e5,2023-05-04_17h05.07.241,ga_syllabified_check,2022.2.5,MacIntel,60.0024001,,,,,,,,,,,,,,./stim/p06_syllable_1_lakaduaisto_hit.wav,p06,lakaduaisto,hit,la-ka-du-a-is,la-ka-duais-to,la-ka-du-ais-to,la-ka-dua-is-to,0.052287326,-0.109253472,1,0,0,6.202,text_option_3,,0,52,52,111,1
60f364780342181eb49b70d7,63f3cfca20052e4ae7554ebf,6453c9428a79e029a237f3e5,2023-05-04_17h05.07.241,ga_syllabified_check,2022.2.5,MacIntel,60.0024001,,,,,,,,,,,,,,./stim/p06_syllable_1_lakapuaisto_hit.wav,p06,lakapuaisto,hit,la-ka-pu-a-is,la-ka-puais-to,la-ka-pu-ais-to,la-ka-pua-is-to,0.360347222,-0.108446181,1,0,0,7.6339,text_option_2,,0,53,53,119,1
60f364780342181eb49b70d7,63f3cfca20052e4ae7554ebf,6453c9428a79e029a237f3e5,2023-05-04_17h05.07.241,ga_syllabified_check,2022.2.5,MacIntel,60.0024001,,,,,,,,,,,,,,./stim/p05_syllable_1_lakadiaisto_hit.wav,p05,lakadiaisto,hit,la-ka-di-ais-to,la-ka-diais-to,la-ka-di-ais-to,la-ka-dia-is-to,-0.324921875,-0.103897569,1,0,0,2.5478,text_option_1,,0,54,54,76,1
60f364780342181eb49b70d7,63f3cfca20052e4ae7554ebf,6453c9428a79e029a237f3e5,2023-05-04_17h05.07.241,ga_syllabified_check,2022.2.5,MacIntel,60.0024001,,,,,,,,,,,,,,./stim/p04_syllable_1_lakakiaisto_hit.wav,p04,lakakiaisto,hit,la-ka-kiais-to,la-ka-kiais-to,la-ka-ki-ais-to,la-ka-kia-is-to,-0.358159722,-0.09734809,1,0,0,1.8658,text_option_1,,0,55,55,48,1
60f364780342181eb49b70d7,63f3cfca20052e4ae7554ebf,6453c9428a79e029a237f3e5,2023-05-04_17h05.07.241,ga_syllabified_check,2022.2.5,MacIntel,60.0024001,,,,,,,,,,,,,,./stim/p05_syllable_1_lakakuaisto_hit.wav,p05,lakakuaisto,hit,la-ka-kais-to,la-ka-kuais-to,la-ka-ku-ais-to,la-ka-kua-is-to,0.31391059,-0.105907118,1,0,0,4.783,text_option_2,,0,56,56,83,1
60f364780342181eb49b70d7,63f3cfca20052e4ae7554ebf,6453c9428a79e029a237f3e5,2023-05-04_17h05.07.241,ga_syllabified_check,2022.2.5,MacIntel,60.0024001,,,,,,,,,,,,,,./stim/p05_syllable_1_ruyiola_hit.wav,p05,ruyiola,hit,ru-yio-la,ru-yio-la,ru-yi-o-la, ,-0.372078993,-0.093585069,1,0,0,2.9361,text_option_1,,0,57,57,100,1
60f364780342181eb49b70d7,63f3cfca20052e4ae7554ebf,6453c9428a79e029a237f3e5,2023-05-04_17h05.07.241,ga_syllabified_check,2022.2.5,MacIntel,60.0024001,,,,,,,,,,,,,,./stim/p07_syllable_1_palumaisto_hit.wav,p07,palumaisto,hit,pa-lu-mais-to,pa-lu-mais-to,pa-lu-ma-is-to, ,-0.374040799,-0.105455729,1,0,0,2.9154,text_option_1,,0,58,58,164,1
60f364780342181eb49b70d7,63f3cfca20052e4ae7554ebf,6453c9428a79e029a237f3e5,2023-05-04_17h05.07.241,ga_syllabified_check,2022.2.5,MacIntel,60.0024001,,,,,,,,,,,,,,./stim/p07_syllable_1_palufauto_hit.wav,p07,palufauto,hit,pa-lu-fau-to,pa-lu-fau-to,pa-lu-fa-u-to, ,-0.399713542,-0.110338542,1,0,0,3.3359,text_option_1,,0,59,59,162,1
60f364780342181eb49b70d7,63f3cfca20052e4ae7554ebf,6453c9428a79e029a237f3e5,2023-05-04_17h05.07.241,ga_syllabified_check,2022.2.5,MacIntel,60.0024001,,,,,,,,,,,,,,./stim/p07_syllable_1_palutrauco_hit.wav,p07,palutrauco,hit,pa-lu-trau-co,pa-lu-trau-co,pa-lu-tra-u-co, ,-0.357439236,-0.102048611,1,0,0,1.3491,text_option_1,,0,60,60,165,1
60f364780342181eb49b70d7,63f3cfca20052e4ae7554ebf,6453c9428a79e029a237f3e5,2023-05-04_17h05.07.241,ga_syllabified_check,2022.2.5,MacIntel,60.0024001,,,,,,,,,,,,,,./stim/p04_syllable_1_lakaduaisto_hit.wav,p04,lakaduaisto,hit,la-ka-duais-to,la-ka-duais-to,la-ka-du-ais-to,la-ka-dua-is-to,-0.361523437,-0.10359809,1,0,0,1.2846,text_option_1,,0,61,61,43,1
60f364780342181eb49b70d7,63f3cfca20052e4ae7554ebf,6453c9428a79e029a237f3e5,2023-05-04_17h05.07.241,ga_syllabified_check,2022.2.5,MacIntel,60.0024001,,,,,,,,,,,,,,./stim/p06_syllable_1_lakakuaisto_hit.wav,p06,lakakuaisto,hit,la-ka-ku-a-is,la-ka-kuais-to,la-ka-ku-ais-to,la-ka-kua-is-to,0.375112847,-0.101384549,1,0,0,3.8157,text_option_2,,0,62,62,117,1
60f364780342181eb49b70d7,63f3cfca20052e4ae7554ebf,6453c9428a79e029a237f3e5,2023-05-04_17h05.07.241,ga_syllabified_check,2022.2.5,MacIntel,60.0024001,,,,,,,,,,,,,,./stim/p06_syllable_1_lakatiaisto_hit.wav,p06,lakatiaisto,hit,la-ka-pia-is-to,la-ka-tiais-to,la-ka-ti-ais-to,la-ka-tia-is-to,0.001536458,-0.103554688,1,0,0,4.3155,text_option_3,,0,63,63,120,1
60f364780342181eb49b70d7,63f3cfca20052e4ae7554ebf,6453c9428a79e029a237f3e5,2023-05-04_17h05.07.241,ga_syllabified_check,2022.2.5,MacIntel,60.0024001,,,,,,,,,,,,,,./stim/p08_syllable_1_falufaisto_hit.wav,p08,falufaisto,hit,fa-lu-fais-to,fa-lu-fais-to,fa-lu-fa-is-to, ,-0.351228299,-0.104856771,1,0,0,3.1815,text_option_1,,0,64,64,173,1
60f364780342181eb49b70d7,63f3cfca20052e4ae7554ebf,6453c9428a79e029a237f3e5,2023-05-04_17h05.07.241,ga_syllabified_check,2022.2.5,MacIntel,60.0024001,,,,,,,,,,,,,,./stim/p06_syllable_1_flauro_hit.wav,p06,flauro,hit,fla-u-ro,flau-ro,fla-u-ro, ,0.406584201,-0.106206597,1,0,0,1.7517,text_option_2,,0,65,65,107,1
60f364780342181eb49b70d7,63f3cfca20052e4ae7554ebf,6453c9428a79e029a237f3e5,2023-05-04_17h05.07.241,ga_syllabified_check,2022.2.5,MacIntel,60.0024001,,,,,,,,,,,,,,./stim/p06_syllable_1_manhiala_hit.wav,p06,mañiala,hit,ma-nhi-a-la,ma-ñia-la,ma-ñi-a-la, ,0.410499132,-0.109396701,1,0,0,1.9825,text_option_2,,0,66,66,123,1
60f364780342181eb49b70d7,63f3cfca20052e4ae7554ebf,6453c9428a79e029a237f3e5,2023-05-04_17h05.07.241,ga_syllabified_check,2022.2.5,MacIntel,60.0024001,,,,,,,,,,,,,,./stim/p04_syllable_1_lakatiaisto_hit.wav,p04,lakatiaisto,hit,la-ka-kiais-to,la-ka-tiais-to,la-ka-ti-ais-to,la-ka-tia-is-to,0.410481771,-0.111853299,1,0,0,2.9512,text_option_2,,0,67,67,52,1
60f364780342181eb49b70d7,63f3cfca20052e4ae7554ebf,6453c9428a79e029a237f3e5,2023-05-04_17h05.07.241,ga_syllabified_check,2022.2.5,MacIntel,60.0024001,,,,,,,,,,,,,,./stim/p04_syllable_1_mebochiana_hit.wav,p04,mebochiana,hit,me-bo-chia-na,me-bo-chia-na,me-bo-chi-a-na, ,0.351141493,-0.10219184,1,0,0,2.7983,text_option_2,,0,68,68,56,1
60f364780342181eb49b70d7,63f3cfca20052e4ae7554ebf,6453c9428a79e029a237f3e5,2023-05-04_17h05.07.241,ga_syllabified_check,2022.2.5,MacIntel,60.0024001,,,,,,,,,,,,,,./stim/p08_syllable_1_lakapuaisto_hit.wav,p08,lakapuaisto,hit,la-ka-pu-as-to,la-ka-puais-to,la-ka-pu-ais-to,la-ka-pua-is-to,-0.340381944,-0.1153125,1,0,0,3.7181,text_option_1,,0,69,69,187,1
60f364780342181eb49b70d7,63f3cfca20052e4ae7554ebf,6453c9428a79e029a237f3e5,2023-05-04_17h05.07.241,ga_syllabified_check,2022.2.5,MacIntel,60.0024001,,,,,,,,,,,,,,./stim/p03_syllable_1_falutraigo_hit.wav,p03,falutraigo,hit,fa-lu-trai-go,fa-lu-trai-go,fa-lu-tra-i-go, ,-0.342087674,-0.110668403,1,0,0,2.5169,text_option_1,,0,70,70,4,1
60f364780342181eb49b70d7,63f3cfca20052e4ae7554ebf,6453c9428a79e029a237f3e5,2023-05-04_17h05.07.241,ga_syllabified_check,2022.2.5,MacIntel,60.0024001,,,,,,,,,,,,,,./stim/p07_syllable_1_lakaduaisto_hit.wav,p07,lakaduaisto,hit,la-ka-duais-to,la-ka-duais-to,la-ka-du-ais-to,la-ka-dua-is-to,-0.353650174,-0.114366319,1,0,0,2.8681,text_option_1,,0,71,71,145,1
60f364780342181eb49b70d7,63f3cfca20052e4ae7554ebf,6453c9428a79e029a237f3e5,2023-05-04_17h05.07.241,ga_syllabified_check,2022.2.5,MacIntel,60.0024001,,,,,,,,,,,,,,./stim/p03_syllable_1_lakabiaisto_hit.wav,p03,lakabiaisto,hit,la-ka-biais-to,la-ka-biais-to,la-ka-bi-ais-to,la-ka-bia-is-to,-0.344804687,-0.112165799,1,0,0,4.2174,text_option_1,,0,72,72,6,1
60f364780342181eb49b70d7,63f3cfca20052e4ae7554ebf,6453c9428a79e029a237f3e5,2023-05-04_17h05.07.241,ga_syllabified_check,2022.2.5,MacIntel,60.0024001,,,,,,,,,,,,,,./stim/p05_syllable_1_lakatiaisto_hit.wav,p05,lakatiaisto,hit,la-ka-ti-ais-to,la-ka-tiais-to,la-ka-ti-ais-to,la-ka-tia-is-to,0.354713542,-0.114722222,1,0,0,7.783,text_option_2,,0,73,73,86,1
60f364780342181eb49b70d7,63f3cfca20052e4ae7554ebf,6453c9428a79e029a237f3e5,2023-05-04_17h05.07.241,ga_syllabified_check,2022.2.5,MacIntel,60.0024001,,,,,,,,,,,,,,./stim/p06_syllable_1_lakapiaisto_hit.wav,p06,lakapiaisto,hit,la-ka-pia-is-to,la-ka-piais-to,la-ka-pi-ais-to,la-ka-pia-is-to,-0.006931424,-0.110876736,1,0,0,6.0998,text_option_3,,0,74,74,118,1
60f364780342181eb49b70d7,63f3cfca20052e4ae7554ebf,6453c9428a79e029a237f3e5,2023-05-04_17h05.07.241,ga_syllabified_check,2022.2.5,MacIntel,60.0024001,,,,,,,,,,,,,,./stim/p06_syllable_1_lakagiaisto_hit.wav,p06,lakagiaisto,hit,la-ka-gia-is-to,la-ka-giais-to,la-ka-gi-ais-to,la-ka-gia-is-to,-0.024045139,-0.098845486,1,0,0,6.4,text_option_3,,0,75,75,114,1
60f364780342181eb49b70d7,63f3cfca20052e4ae7554ebf,6453c9428a79e029a237f3e5,2023-05-04_17h05.07.241,ga_syllabified_check,2022.2.5,MacIntel,60.0024001,,,,,,,,,,,,,,./stim/p07_syllable_1_falutraigo_hit.wav,p07,falutraigo,hit,fa-lu-trai-go,fa-lu-trai-go,fa-lu-tra-i-go, ,-0.337478299,-0.108697917,1,0,0,4.1984,text_option_1,,0,76,76,140,1
60f364780342181eb49b70d7,63f3cfca20052e4ae7554ebf,6453c9428a79e029a237f3e5,2023-05-04_17h05.07.241,ga_syllabified_check,2022.2.5,MacIntel,60.0024001,,,,,,,,,,,,,,./stim/p06_syllable_1_lakabuaisto_hit.wav,p06,lakabuaisto,hit,la-ka-bu-a-is,la-ka-buais-to,la-ka-bu-ais-to,la-ka-bua-is-to,0.01030816,-0.109123264,1,0,0,6.0511,text_option_3,,0,77,77,109,1
60f364780342181eb49b70d7,63f3cfca20052e4ae7554ebf,6453c9428a79e029a237f3e5,2023-05-04_17h05.07.241,ga_syllabified_check,2022.2.5,MacIntel,60.0024001,,,,,,,,,,,,,,./stim/p06_syllable_1_lakafuaisto_hit.wav,p06,lakafuaisto,hit,la-ka-fu-a-is,la-ka-fuais-to,la-ka-fu-ais-to,la-ka-fua-is-to,0.388506944,-0.092174479,1,0,0,5.2145,text_option_2,,0,78,78,113,1
60f364780342181eb49b70d7,63f3cfca20052e4ae7554ebf,6453c9428a79e029a237f3e5,2023-05-04_17h05.07.241,ga_syllabified_check,2022.2.5,MacIntel,60.0024001,,,,,,,,,,,,,,./stim/p08_syllable_1_lakafiaisto_hit.wav,p08,lakafiaisto,hit,la-ka-fi-as-to,la-ka-fiais-to,la-ka-fi-ais-to,la-ka-fia-is-to,0.438945313,-0.111701389,1,0,0,7.9302,text_option_2,,0,79,79,180,1
60f364780342181eb49b70d7,63f3cfca20052e4ae7554ebf,6453c9428a79e029a237f3e5,2023-05-04_17h05.07.241,ga_syllabified_check,2022.2.5,MacIntel,60.0024001,,,,,,,,,,,,,,./stim/p07_syllable_1_lakatuaisto_hit.wav,p07,lakatuaisto,hit,la-ka-tuais-to,la-ka-tuais-to,la-ka-tu-ais-to,la-ka-tua-is-to,-0.376032986,-0.095542535,1,0,0,3.4007,text_option_1,,0,80,80,155,1
60f364780342181eb49b70d7,63f3cfca20052e4ae7554ebf,6453c9428a79e029a237f3e5,2023-05-04_17h05.07.241,ga_syllabified_check,2022.2.5,MacIntel,60.0024001,,,,,,,,,,,,,,./stim/p08_syllable_1_pachialo_hit.wav,p08,pachialo,hit,pa-chi-ja-lo,pa-chia-lo,pa-chi-a-lo, ,0.424639757,-0.105915799,1,0,0,2.2354,text_option_2,,0,81,81,194,1
60f364780342181eb49b70d7,63f3cfca20052e4ae7554ebf,6453c9428a79e029a237f3e5,2023-05-04_17h05.07.241,ga_syllabified_check,2022.2.5,MacIntel,60.0024001,,,,,,,,,,,,,,./stim/p08_syllable_1_lliape_hit.wav,p08,lliape,hit,li-a-pe,llia-pe,lli-a-pe, ,0.371427951,-0.095559896,1,0,0,1.6829,text_option_2,,0,82,82,190,1
60f364780342181eb49b70d7,63f3cfca20052e4ae7554ebf,6453c9428a79e029a237f3e5,2023-05-04_17h05.07.241,ga_syllabified_check,2022.2.5,MacIntel,60.0024001,,,,,,,,,,,,,,./stim/p06_syllable_1_payielo_hit.wav,p06,payielo,hit,pa-yi-e-lo,pa-yie-lo,pa-yi-e-lo, ,0.383337674,-0.105034722,1,0,0,3.1853,text_option_2,,0,83,83,132,1
60f364780342181eb49b70d7,63f3cfca20052e4ae7554ebf,6453c9428a79e029a237f3e5,2023-05-04_17h05.07.241,ga_syllabified_check,2022.2.5,MacIntel,60.0024001,,,,,,,,,,,,,,./stim/p06_syllable_1_pachialo_hit.wav,p06,pachialo,hit,pa-shi-a-lo,pa-chia-lo,pa-chi-a-lo, ,0.347868924,-0.102999132,1,0,0,1.4147,text_option_2,,0,84,84,126,1
60f364780342181eb49b70d7,63f3cfca20052e4ae7554ebf,6453c9428a79e029a237f3e5,2023-05-04_17h05.07.241,ga_syllabified_check,2022.2.5,MacIntel,60.0024001,,,,,,,,,,,,,,./stim/p07_syllable_1_lakafiaisto_hit.wav,p07,lakafiaisto,hit,la-ka-fiais-to,la-ka-fiais-to,la-ka-fi-ais-to,la-ka-fia-is-to,-0.392604167,-0.10203559,1,0,0,2.7833,text_option_1,,0,85,85,146,1
60f364780342181eb49b70d7,63f3cfca20052e4ae7554ebf,6453c9428a79e029a237f3e5,2023-05-04_17h05.07.241,ga_syllabified_check,2022.2.5,MacIntel,60.0024001,,,,,,,,,,,,,,./stim/p07_syllable_1_lakabuaisto_hit.wav,p07,lakabuaisto,hit,la-ka-buais-to,la-ka-buais-to,la-ka-bu-ais-to,la-ka-bua-is-to,-0.392604167,-0.10203559,1,0,0,2.4977,text_option_1,,0,86,86,143,1
60f364780342181eb49b70d7,63f3cfca20052e4ae7554ebf,6453c9428a79e029a237f3e5,2023-05-04_17h05.07.241,ga_syllabified_check,2022.2.5,MacIntel,60.0024001,,,,,,,,,,,,,,./stim/p07_syllable_1_lakakuaisto_hit.wav,p07,lakakuaisto,hit,la-ka-kuais-to,la-ka-kuais-to,la-ka-ku-ais-to,la-ka-kua-is-to,-0.370902778,-0.104878472,1,0,0,3.084,text_option_1,,0,87,87,151,1
60f364780342181eb49b70d7,63f3cfca20052e4ae7554ebf,6453c9428a79e029a237f3e5,2023-05-04_17h05.07.241,ga_syllabified_check,2022.2.5,MacIntel,60.0024001,,,,,,,,,,,,,,./stim/p08_syllable_1_lakabuaisto_hit.wav,p08,lakabuaisto,hit,la-ka-bu-ais-to,la-ka-buais-to,la-ka-bu-ais-to,la-ka-bua-is-to,0.332439236,-0.09828559,1,0,0,3.1639,text_option_2,,0,88,88,177,1
60f364780342181eb49b70d7,63f3cfca20052e4ae7554ebf,6453c9428a79e029a237f3e5,2023-05-04_17h05.07.241,ga_syllabified_check,2022.2.5,MacIntel,60.0024001,,,,,,,,,,,,,,./stim/p05_syllable_1_palufauro_hit.wav,p05,palufauro,hit,pa-lu-fau-ro,pa-lu-fau-ro,pa-lu-fa-u-ro, ,-0.394592014,-0.094171007,1,0,0,1.5474,text_option_1,,0,89,89,93,1
60f364780342181eb49b70d7,63f3cfca20052e4ae7554ebf,6453c9428a79e029a237f3e5,2023-05-04_17h05.07.241,ga_syllabified_check,2022.2.5,MacIntel,60.0024001,,,,,,,,,,,,,,./stim/p06_syllable_1_rausto_hit.wav,p06,rausto,hit,ra-us-to,raus-to,ra-us-to, ,0.416966146,-0.110434028,1,0,0,2.4658,text_option_2,,0,90,90,133,1
60f364780342181eb49b70d7,63f3cfca20052e4ae7554ebf,6453c9428a79e029a237f3e5,2023-05-04_17h05.07.241,ga_syllabified_check,2022.2.5,MacIntel,60.0024001,,,,,,,,,,,,,,./stim/p03_syllable_1_payielo_hit.wav,p03,payielo,hit,pa-yie-lo,pa-yie-lo,pa-yi-e-lo, ,-0.360538194,-0.109127604,1,0,0,1.4343,text_option_1,,0,91,91,30,1
60f364780342181eb49b70d7,63f3cfca20052e4ae7554ebf,6453c9428a79e029a237f3e5,2023-05-04_17h05.07.241,ga_syllabified_check,2022.2.5,MacIntel,60.0024001,,,,,,,,,,,,,,./stim/p04_syllable_1_lliape_hit.wav,p04,lliape,hit,lia-pe,llia-pe,lli-a-pe, ,-0.401228299,-0.117074653,1,0,0,1.15,text_option_1,,0,92,92,54,1
60f364780342181eb49b70d7,63f3cfca20052e4ae7554ebf,6453c9428a79e029a237f3e5,2023-05-04_17h05.07.241,ga_syllabified_check,2022.2.5,MacIntel,60.0024001,,,,,,,,,,,,,,./stim/p08_syllable_1_lakabiaisto_hit.wav,p08,lakabiaisto,hit,la-ka-bi-as-to,la-ka-biais-to,la-ka-bi-ais-to,la-ka-bia-is-to,0.335507813,-0.094561632,1,0,0,3.7814,text_option_2,,0,93,93,176,1
60f364780342181eb49b70d7,63f3cfca20052e4ae7554ebf,6453c9428a79e029a237f3e5,2023-05-04_17h05.07.241,ga_syllabified_check,2022.2.5,MacIntel,60.0024001,,,,,,,,,,,,,,./stim/p06_syllable_1_palufauto_hit.wav,p06,palufauto,hit,pa-lu-fau-to,pa-lu-fau-to,pa-lu-fa-u-to, ,-0.346866319,-0.107543403,1,0,0,3.985,text_option_1,,0,94,94,128,1
60f364780342181eb49b70d7,63f3cfca20052e4ae7554ebf,6453c9428a79e029a237f3e5,2023-05-04_17h05.07.241,ga_syllabified_check,2022.2.5,MacIntel,60.0024001,,,,,,,,,,,,,,./stim/p07_syllable_1_flauro_hit.wav,p07,flauro,hit,flau-ro,flau-ro,fla-u-ro, ,-0.38671441,-0.111688368,1,0,0,1.3663,text_option_1,,0,95,95,141,1
60f364780342181eb49b70d7,63f3cfca20052e4ae7554ebf,6453c9428a79e029a237f3e5,2023-05-04_17h05.07.241,ga_syllabified_check,2022.2.5,MacIntel,60.0024001,,,,,,,,,,,,,,./stim/p07_syllable_1_costonhialo_hit.wav,p07,costoñialo,hit,cos-to-nhia-lo,cos-to-ñia-lo,cos-to-ñi-a-lo, ,-0.351167535,-0.103806424,1,0,0,2.4511,text_option_1,,0,96,96,137,1
60f364780342181eb49b70d7,63f3cfca20052e4ae7554ebf,6453c9428a79e029a237f3e5,2023-05-04_17h05.07.241,ga_syllabified_check,2022.2.5,MacIntel,60.0024001,,,,,,,,,,,,,,./stim/p06_syllable_1_falufaisto_hit.wav,p06,falufaisto,hit,fa-lu-fa-is-to,fa-lu-fais-to,fa-lu-fa-is-to, ,0.331701389,-0.099496528,1,0,0,2.3511,text_option_2,,0,97,97,105,1
60f364780342181eb49b70d7,63f3cfca20052e4ae7554ebf,6453c9428a79e029a237f3e5,2023-05-04_17h05.07.241,ga_syllabified_check,2022.2.5,MacIntel,60.0024001,,,,,,,,,,,,,,./stim/p03_syllable_1_lakadiaisto_hit.wav,p03,lakadiaisto,hit,la-ka-diais-to,la-ka-diais-to,la-ka-di-ais-to,la-ka-dia-is-to,-0.350681424,-0.105729167,1,0,0,4.5001,text_option_1,,0,98,98,8,1
60f364780342181eb49b70d7,63f3cfca20052e4ae7554ebf,6453c9428a79e029a237f3e5,2023-05-04_17h05.07.241,ga_syllabified_check,2022.2.5,MacIntel,60.0024001,,,,,,,,,,,,,,./stim/p05_syllable_1_flauro_hit.wav,p05,flauro,hit,fa-lu-ro,flau-ro,fla-u-ro, ,0.410555556,-0.113997396,1,0,0,2.4153,text_option_2,,0,99,99,73,1
60f364780342181eb49b70d7,63f3cfca20052e4ae7554ebf,6453c9428a79e029a237f3e5,2023-05-04_17h05.07.241,ga_syllabified_check,2022.2.5,MacIntel,60.0024001,,,,,,,,,,,,,,./stim/p07_syllable_1_faluduako_hit.wav,p07,faluduako,hit,fa-lu-dua-ko,fa-lu-dua-ko,fa-lu-du-a-ko, ,-0.367057292,-0.105047743,1,0,0,2.1171,text_option_1,,0,100,100,138,1
60f364780342181eb49b70d7,63f3cfca20052e4ae7554ebf,6453c9428a79e029a237f3e5,2023-05-04_17h05.07.241,ga_syllabified_check,2022.2.5,MacIntel,60.0024001,,,,,,,,,,,,,,./stim/p04_syllable_1_lakabiaisto_hit.wav,p04,lakabiaisto,hit,la-ka-biais-to,la-ka-biais-to,la-ka-bi-ais-to,la-ka-bia-is-to,-0.365282118,-0.096783854,1,0,0,2.5171,text_option_1,,0,101,101,40,1
60f364780342181eb49b70d7,63f3cfca20052e4ae7554ebf,6453c9428a79e029a237f3e5,2023-05-04_17h05.07.241,ga_syllabified_check,2022.2.5,MacIntel,60.0024001,,,,,,,,,,,,,,./stim/p08_syllable_1_paluguato_hit.wav,p08,paluguato,hit,pa-lu-gua-to,pa-lu-gua-to,pa-lu-gu-a-to, ,-0.3803125,-0.097230903,1,0,0,1.8971,text_option_1,,0,102,102,197,1
60f364780342181eb49b70d7,63f3cfca20052e4ae7554ebf,6453c9428a79e029a237f3e5,2023-05-04_17h05.07.241,ga_syllabified_check,2022.2.5,MacIntel,60.0024001,,,,,,,,,,,,,,./stim/p04_syllable_1_lakafuaisto_hit.wav,p04,lakafuaisto,hit,la-ka-fuais-to,la-ka-fuais-to,la-ka-fu-ais-to,la-ka-fua-is-to,-0.348663194,-0.098684896,1,0,0,2.3994,text_option_1,,0,103,103,45,1
60f364780342181eb49b70d7,63f3cfca20052e4ae7554ebf,6453c9428a79e029a237f3e5,2023-05-04_17h05.07.241,ga_syllabified_check,2022.2.5,MacIntel,60.0024001,,,,,,,,,,,,,,./stim/p06_syllable_1_lakatuaisto_hit.wav,p06,lakatuaisto,hit,la-ka-tu-a-is,la-ka-tuais-to,la-ka-tu-ais-to,la-ka-tua-is-to,0.004301215,-0.095976563,1,0,0,4.6992,text_option_3,,0,104,104,121,1
60f364780342181eb49b70d7,63f3cfca20052e4ae7554ebf,6453c9428a79e029a237f3e5,2023-05-04_17h05.07.241,ga_syllabified_check,2022.2.5,MacIntel,60.0024001,,,,,,,,,,,,,,./stim/p08_syllable_1_lakadiaisto_hit.wav,p08,lakadiaisto,hit,la-ka-di-jas-to,la-ka-diais-to,la-ka-di-ais-to,la-ka-dia-is-to,0.368776042,-0.105243056,1,0,0,4.8811,text_option_2,,0,105,105,178,1
60f364780342181eb49b70d7,63f3cfca20052e4ae7554ebf,6453c9428a79e029a237f3e5,2023-05-04_17h05.07.241,ga_syllabified_check,2022.2.5,MacIntel,60.0024001,,,,,,,,,,,,,,./stim/p03_syllable_1_manhiala_hit.wav,p03,mañiala,hit,ma-nhia-la,ma-ñia-la,ma-ñi-a-la, ,-0.382447917,-0.089678819,1,0,0,1.082,text_option_1,,0,106,106,21,1
60f364780342181eb49b70d7,63f3cfca20052e4ae7554ebf,6453c9428a79e029a237f3e5,2023-05-04_17h05.07.241,ga_syllabified_check,2022.2.5,MacIntel,60.0024001,,,,,,,,,,,,,,./stim/p05_syllable_1_palumaisto_hit.wav,p05,palumaisto,hit,pa-lu-mais-to,pa-lu-mais-to,pa-lu-ma-is-to, ,-0.335347222,-0.112226563,1,0,0,2.2016,text_option_1,,0,107,107,96,1
60f364780342181eb49b70d7,63f3cfca20052e4ae7554ebf,6453c9428a79e029a237f3e5,2023-05-04_17h05.07.241,ga_syllabified_check,2022.2.5,MacIntel,60.0024001,,,,,,,,,,,,,,./stim/p05_syllable_1_lakabiaisto_hit.wav,p05,lakabiaisto,hit,la-ka-bi-ais-to,la-ka-biais-to,la-ka-bi-ais-to,la-ka-bia-is-to,0.355911458,-0.115729167,1,0,0,2.8344,text_option_2,,0,108,108,74,1
60f364780342181eb49b70d7,63f3cfca20052e4ae7554ebf,6453c9428a79e029a237f3e5,2023-05-04_17h05.07.241,ga_syllabified_check,2022.2.5,MacIntel,60.0024001,,,,,,,,,,,,,,./stim/p07_syllable_1_palufauro_hit.wav,p07,palufauro,hit,pa-lu-fau-ro,pa-lu-fau-ro,pa-lu-fa-u-ro, ,-0.3515625,-0.107465278,1,0,0,4.6311,text_option_1,,0,109,109,161,1
60f364780342181eb49b70d7,63f3cfca20052e4ae7554ebf,6453c9428a79e029a237f3e5,2023-05-04_17h05.07.241,ga_syllabified_check,2022.2.5,MacIntel,60.0024001,,,,,,,,,,,,,,./stim/p08_syllable_1_lakatuaisto_hit.wav,p08,lakatuaisto,hit,la-ka-tu-i-jis,la-ka-tuais-to,la-ka-tu-ais-to,la-ka-tua-is-to,0.332608507,-0.097048611,1,0,0,4.4176,text_option_2,,0,110,110,189,1
60f364780342181eb49b70d7,63f3cfca20052e4ae7554ebf,6453c9428a79e029a237f3e5,2023-05-04_17h05.07.241,ga_syllabified_check,2022.2.5,MacIntel,60.0024001,,,,,,,,,,,,,,./stim/p05_syllable_1_rausto_hit.wav,p05,rausto,hit,raus-to,raus-to,ra-us-to, ,-0.422582465,-0.114301215,1,0,0,0.7828,text_option_1,,0,111,111,99,1
60f364780342181eb49b70d7,63f3cfca20052e4ae7554ebf,6453c9428a79e029a237f3e5,2023-05-04_17h05.07.241,ga_syllabified_check,2022.2.5,MacIntel,60.0024001,,,,,,,,,,,,,,./stim/p05_syllable_1_lakaguaisto_hit.wav,p05,lakaguaisto,hit,la-ka-gais,la-ka-guais-to,la-ka-gu-ais-to,la-ka-gua-is-to,-0.338615451,-0.108984375,1,0,0,1.9821,text_option_1,,0,112,112,81,1
60f364780342181eb49b70d7,63f3cfca20052e4ae7554ebf,6453c9428a79e029a237f3e5,2023-05-04_17h05.07.241,ga_syllabified_check,2022.2.5,MacIntel,60.0024001,,,,,,,,,,,,,,./stim/p04_syllable_1_manhiala_hit.wav,p04,mañiala,hit,ma-nhia-la,ma-ñia-la,ma-ñi-a-la, ,-0.405750868,-0.107942708,1,0,0,1.6692,text_option_1,,0,113,113,55,1
60f364780342181eb49b70d7,63f3cfca20052e4ae7554ebf,6453c9428a79e029a237f3e5,2023-05-04_17h05.07.241,ga_syllabified_check,2022.2.5,MacIntel,60.0024001,,,,,,,,,,,,,,./stim/p04_syllable_1_ruyiola_hit.wav,p04,ruyiola,hit,ru-yio-la,ru-yio-la,ru-yi-o-la, ,-0.406835938,-0.107417535,1,0,0,2.6309,text_option_1,,0,114,114,66,1
60f364780342181eb49b70d7,63f3cfca20052e4ae7554ebf,6453c9428a79e029a237f3e5,2023-05-04_17h05.07.241,ga_syllabified_check,2022.2.5,MacIntel,60.0024001,,,,,,,,,,,,,,./stim/p07_syllable_1_lakapiaisto_hit.wav,p07,lakapiaisto,hit,la-ka-pia-sto,la-ka-piais-to,la-ka-pi-ais-to,la-ka-pia-is-to,0.40875434,-0.10953125,1,0,0,5.3654,text_option_2,,0,115,115,152,1
60f364780342181eb49b70d7,63f3cfca20052e4ae7554ebf,6453c9428a79e029a237f3e5,2023-05-04_17h05.07.241,ga_syllabified_check,2022.2.5,MacIntel,60.0024001,,,,,,,,,,,,,,./stim/p04_syllable_1_faluduako_hit.wav,p04,faluduako,hit,fa-lu-dua-ko,fa-lu-dua-ko,fa-lu-du-a-ko, ,-0.35234809,-0.110186632,1,0,0,3.316,text_option_1,,0,116,116,36,1
60f364780342181eb49b70d7,63f3cfca20052e4ae7554ebf,6453c9428a79e029a237f3e5,2023-05-04_17h05.07.241,ga_syllabified_check,2022.2.5,MacIntel,60.0024001,,,,,,,,,,,,,,./stim/p04_syllable_1_lakafiaisto_hit.wav,p04,lakafiaisto,hit,la-ka-fiais-to,la-ka-fiais-to,la-ka-fi-ais-to,la-ka-fia-is-to,0.039179687,-0.103307292,1,0,0,3.0982,text_option_3,,0,117,117,44,1
60f364780342181eb49b70d7,63f3cfca20052e4ae7554ebf,6453c9428a79e029a237f3e5,2023-05-04_17h05.07.241,ga_syllabified_check,2022.2.5,MacIntel,60.0024001,,,,,,,,,,,,,,./stim/p07_syllable_1_lakapuaisto_hit.wav,p07,lakapuaisto,hit,la-ka-puais-to,la-ka-puais-to,la-ka-pu-ais-to,la-ka-pua-is-to,-0.37608941,-0.096297743,1,0,0,2.9511,text_option_1,,0,118,118,153,1
60f364780342181eb49b70d7,63f3cfca20052e4ae7554ebf,6453c9428a79e029a237f3e5,2023-05-04_17h05.07.241,ga_syllabified_check,2022.2.5,MacIntel,60.0024001,,,,,,,,,,,,,,./stim/p04_syllable_1_rausto_hit.wav,p04,rausto,hit,raus-to,raus-to,ra-us-to, ,-0.371857639,-0.109956597,1,0,0,0.7299,text_option_1,,0,119,119,65,1
60f364780342181eb49b70d7,63f3cfca20052e4ae7554ebf,6453c9428a79e029a237f3e5,2023-05-04_17h05.07.241,ga_syllabified_check,2022.2.5,MacIntel,60.0024001,,,,,,,,,,,,,,./stim/p05_syllable_1_lakagiaisto_hit.wav,p05,lakagiaisto,hit,la-ka-ki-ais-to,la-ka-giais-to,la-ka-gi-ais-to,la-ka-gia-is-to,-0.342934028,-0.110056424,1,0,0,2.0823,text_option_1,,0,120,120,80,1
60f364780342181eb49b70d7,63f3cfca20052e4ae7554ebf,6453c9428a79e029a237f3e5,2023-05-04_17h05.07.241,ga_syllabified_check,2022.2.5,MacIntel,60.0024001,,,,,,,,,,,,,,./stim/p08_syllable_1_mebochiana_hit.wav,p08,mebochiana,hit,me-bo-chi-a-na,me-bo-chia-na,me-bo-chi-a-na, ,0.391371528,-0.111770833,1,0,0,2.1669,text_option_2,,0,121,121,192,1
60f364780342181eb49b70d7,63f3cfca20052e4ae7554ebf,6453c9428a79e029a237f3e5,2023-05-04_17h05.07.241,ga_syllabified_check,2022.2.5,MacIntel,60.0024001,,,,,,,,,,,,,,./stim/p06_syllable_1_lakakiaisto_hit.wav,p06,lakakiaisto,hit,la-ka-kia-is-to,la-ka-kiais-to,la-ka-ki-ais-to,la-ka-kia-is-to,0.068784722,-0.109249132,1,0,0,3.9341,text_option_3,,0,122,122,116,1
60f364780342181eb49b70d7,63f3cfca20052e4ae7554ebf,6453c9428a79e029a237f3e5,2023-05-04_17h05.07.241,ga_syllabified_check,2022.2.5,MacIntel,60.0024001,,,,,,,,,,,,,,./stim/p05_syllable_1_palutrauco_hit.wav,p05,palutrauco,hit,pa-lu-trai-co,pa-lu-trau-co,pa-lu-tra-u-co, ,0.29874566,-0.11234375,1,0,0,2.3829,text_option_2,,0,123,123,97,1
60f364780342181eb49b70d7,63f3cfca20052e4ae7554ebf,6453c9428a79e029a237f3e5,2023-05-04_17h05.07.241,ga_syllabified_check,2022.2.5,MacIntel,60.0024001,,,,,,,,,,,,,,./stim/p04_syllable_1_lakapuaisto_hit.wav,p04,lakapuaisto,hit,la-ka-puais-to,la-ka-puais-to,la-ka-pu-ais-to,la-ka-pua-is-to,0.041961806,-0.098246528,1,0,0,4.2159,text_option_3,,0,124,124,51,1
60f364780342181eb49b70d7,63f3cfca20052e4ae7554ebf,6453c9428a79e029a237f3e5,2023-05-04_17h05.07.241,ga_syllabified_check,2022.2.5,MacIntel,60.0024001,,,,,,,,,,,,,,./stim/p06_syllable_1_faluduako_hit.wav,p06,faluduako,hit,fa-lu-dua-ko,fa-lu-dua-ko,fa-lu-du-a-ko, ,0.37406684,-0.117686632,1,0,0,4.3828,text_option_2,,0,125,125,104,1
60f364780342181eb49b70d7,63f3cfca20052e4ae7554ebf,6453c9428a79e029a237f3e5,2023-05-04_17h05.07.241,ga_syllabified_check,2022.2.5,MacIntel,60.0024001,,,,,,,,,,,,,,./stim/p03_syllable_1_palutrauco_hit.wav,p03,palutrauco,hit,pa-lu-trau-co,pa-lu-trau-co,pa-lu-tra-u-co, ,0.34859375,-0.121046007,1,0,0,3.8507,text_option_2,,0,126,126,29,1
60f364780342181eb49b70d7,63f3cfca20052e4ae7554ebf,6453c9428a79e029a237f3e5,2023-05-04_17h05.07.241,ga_syllabified_check,2022.2.5,MacIntel,60.0024001,,,,,,,,,,,,,,./stim/p04_syllable_1_palufauto_hit.wav,p04,palufauto,hit,pa-lu-fau-to,pa-lu-fau-to,pa-lu-fa-u-to, ,-0.340989583,-0.111597222,1,0,0,2.584,text_option_1,,0,127,127,60,1
60f364780342181eb49b70d7,63f3cfca20052e4ae7554ebf,6453c9428a79e029a237f3e5,2023-05-04_17h05.07.241,ga_syllabified_check,2022.2.5,MacIntel,60.0024001,,,,,,,,,,,,,,./stim/p05_syllable_1_lakapuaisto_hit.wav,p05,lakapuaisto,hit,la-ka-pais-to,la-ka-puais-to,la-ka-pu-ais-to,la-ka-pua-is-to,-0.041006944,-0.110095486,1,0,0,5.1699,text_option_3,,0,128,128,85,1
60f364780342181eb49b70d7,63f3cfca20052e4ae7554ebf,6453c9428a79e029a237f3e5,2023-05-04_17h05.07.241,ga_syllabified_check,2022.2.5,MacIntel,60.0024001,,,,,,,,,,,,,,./stim/p06_syllable_1_falutraigo_hit.wav,p06,falutraigo,hit,fa-lu-tra-i-go,fa-lu-trai-go,fa-lu-tra-i-go, ,0.403611111,-0.108736979,1,0,0,3.9635,text_option_2,,0,129,129,106,1
60f364780342181eb49b70d7,63f3cfca20052e4ae7554ebf,6453c9428a79e029a237f3e5,2023-05-04_17h05.07.241,ga_syllabified_check,2022.2.5,MacIntel,60.0024001,,,,,,,,,,,,,,./stim/p06_syllable_1_costonhialo_hit.wav,p06,costoñialo,hit,cos-to-nhia-lo,cos-to-ñia-lo,cos-to-ñi-a-lo, ,-0.379131944,-0.096059028,1,0,0,2.8831,text_option_1,,0,130,130,103,1
60f364780342181eb49b70d7,63f3cfca20052e4ae7554ebf,6453c9428a79e029a237f3e5,2023-05-04_17h05.07.241,ga_syllabified_check,2022.2.5,MacIntel,60.0024001,,,,,,,,,,,,,,./stim/p04_syllable_1_costonhialo_hit.wav,p04,costoñialo,hit,cos-to-nhia-lo,cos-to-ñia-lo,cos-to-ñi-a-lo, ,-0.345421007,-0.099301215,1,0,0,1.402,text_option_1,,0,131,131,35,1
60f364780342181eb49b70d7,63f3cfca20052e4ae7554ebf,6453c9428a79e029a237f3e5,2023-05-04_17h05.07.241,ga_syllabified_check,2022.2.5,MacIntel,60.0024001,,,,,,,,,,,,,,./stim/p04_syllable_1_falutraigo_hit.wav,p04,falutraigo,hit,fa-lu-trai-go,fa-lu-trai-go,fa-lu-tra-i-go, ,0.357109375,-0.11640191,1,0,0,1.7148,text_option_2,,0,132,132,38,1
60f364780342181eb49b70d7,63f3cfca20052e4ae7554ebf,6453c9428a79e029a237f3e5,2023-05-04_17h05.07.241,ga_syllabified_check,2022.2.5,MacIntel,60.0024001,,,,,,,,,,,,,,./stim/p08_syllable_1_lakagiaisto_hit.wav,p08,lakagiaisto,hit,la-ka-gi-jas-to,la-ka-giais-to,la-ka-gi-ais-to,la-ka-gia-is-to,0.392703993,-0.116358507,1,0,0,4.7493,text_option_2,,0,133,133,182,1
60f364780342181eb49b70d7,63f3cfca20052e4ae7554ebf,6453c9428a79e029a237f3e5,2023-05-04_17h05.07.241,ga_syllabified_check,2022.2.5,MacIntel,60.0024001,,,,,,,,,,,,,,./stim/p04_syllable_1_flauro_hit.wav,p04,flauro,hit,flau-ro,flau-ro,fla-u-ro, ,-0.374505208,-0.11203125,1,0,0,1.2825,text_option_1,,0,134,134,39,1
60f364780342181eb49b70d7,63f3cfca20052e4ae7554ebf,6453c9428a79e029a237f3e5,2023-05-04_17h05.07.241,ga_syllabified_check,2022.2.5,MacIntel,60.0024001,,,,,,,,,,,,,,./stim/p03_syllable_1_lakabuaisto_hit.wav,p03,lakabuaisto,hit,la-ka-buais-to,la-ka-buais-to,la-ka-bu-ais-to,la-ka-bua-is-to,-0.331315104,-0.115299479,1,0,0,2.2344,text_option_1,,0,135,135,7,1
60f364780342181eb49b70d7,63f3cfca20052e4ae7554ebf,6453c9428a79e029a237f3e5,2023-05-04_17h05.07.241,ga_syllabified_check,2022.2.5,MacIntel,60.0024001,,,,,,,,,,,,,,./stim/p05_syllable_1_lakakiaisto_hit.wav,p05,lakakiaisto,hit,la-ka-ki-ais-to,la-ka-kiais-to,la-ka-ki-ais-to,la-ka-kia-is-to,-0.084171007,-0.103511285,1,0,0,2.4998,text_option_3,,0,136,136,82,1
60f364780342181eb49b70d7,63f3cfca20052e4ae7554ebf,6453c9428a79e029a237f3e5,2023-05-04_17h05.07.241,ga_syllabified_check,2022.2.5,MacIntel,60.0024001,,,,,,,,,,,,,,./stim/p03_syllable_1_lakatuaisto_hit.wav,p03,lakatuaisto,hit,la-ka-tuais-to,la-ka-tuais-to,la-ka-tu-ais-to,la-ka-tua-is-to,-0.05765625,-0.114275174,1,0,0,1.434,text_option_3,,0,137,137,19,1
60f364780342181eb49b70d7,63f3cfca20052e4ae7554ebf,6453c9428a79e029a237f3e5,2023-05-04_17h05.07.241,ga_syllabified_check,2022.2.5,MacIntel,60.0024001,,,,,,,,,,,,,,./stim/p07_syllable_1_nhiape_hit.wav,p07,ñiape,hit,nhia-pe,ñia-pe,ñi-a-pe, ,-0.372769097,-0.114422743,1,0,0,1.0811,text_option_1,,0,138,138,159,1
60f364780342181eb49b70d7,63f3cfca20052e4ae7554ebf,6453c9428a79e029a237f3e5,2023-05-04_17h05.07.241,ga_syllabified_check,2022.2.5,MacIntel,60.0024001,,,,,,,,,,,,,,./stim/p07_syllable_1_ruyiola_hit.wav,p07,ruyiola,hit,ru-yio-la,ru-yio-la,ru-yi-o-la, ,-0.370425347,-0.109587674,1,0,0,2.8145,text_option_1,,0,139,139,168,1
60f364780342181eb49b70d7,63f3cfca20052e4ae7554ebf,6453c9428a79e029a237f3e5,2023-05-04_17h05.07.241,ga_syllabified_check,2022.2.5,MacIntel,60.0024001,,,,,,,,,,,,,,./stim/p03_syllable_1_mebochiana_hit.wav,p03,mebochiana,hit,me-bo-chia-na,me-bo-chia-na,me-bo-chi-a-na, ,0.289036458,-0.099991319,1,0,0,2.0169,text_option_2,,0,140,140,22,1
60f364780342181eb49b70d7,63f3cfca20052e4ae7554ebf,6453c9428a79e029a237f3e5,2023-05-04_17h05.07.241,ga_syllabified_check,2022.2.5,MacIntel,60.0024001,,,,,,,,,,,,,,./stim/p06_syllable_1_chiaba_hit.wav,p06,chiaba,hit,chi-a-ba,chia-ba,chi-a-ba, ,-0.380299479,-0.100021701,1,0,0,2.4532,text_option_1,,0,141,141,102,1
60f364780342181eb49b70d7,63f3cfca20052e4ae7554ebf,6453c9428a79e029a237f3e5,2023-05-04_17h05.07.241,ga_syllabified_check,2022.2.5,MacIntel,60.0024001,,,,,,,,,,,,,,./stim/p03_syllable_1_lakatiaisto_hit.wav,p03,lakatiaisto,hit,la-ka-tiais-to,la-ka-tiais-to,la-ka-ti-ais-to,la-ka-tia-is-to,-0.348498264,-0.110108507,1,0,0,3.5329,text_option_1,,0,142,142,18,1
60f364780342181eb49b70d7,63f3cfca20052e4ae7554ebf,6453c9428a79e029a237f3e5,2023-05-04_17h05.07.241,ga_syllabified_check,2022.2.5,MacIntel,60.0024001,,,,,,,,,,,,,,./stim/p04_syllable_1_lakaguaisto_hit.wav,p04,lakaguaisto,hit,la-ka-guais-to,la-ka-guais-to,la-ka-gu-ais-to,la-ka-gua-is-to,-0.350902778,-0.112886285,1,0,0,2.3325,text_option_1,,0,143,143,47,1
60f364780342181eb49b70d7,63f3cfca20052e4ae7554ebf,6453c9428a79e029a237f3e5,2023-05-04_17h05.07.241,ga_syllabified_check,2022.2.5,MacIntel,60.0024001,,,,,,,,,,,,,,./stim/p05_syllable_1_lliape_hit.wav,p05,lliape,hit,liai-pe,llia-pe,lli-a-pe, ,-0.358767361,-0.116111111,1,0,0,1.5494,text_option_1,,0,144,144,88,1
60f364780342181eb49b70d7,63f3cfca20052e4ae7554ebf,6453c9428a79e029a237f3e5,2023-05-04_17h05.07.241,ga_syllabified_check,2022.2.5,MacIntel,60.0024001,,,,,,,,,,,,,,./stim/p03_syllable_1_lakapiaisto_hit.wav,p03,lakapiaisto,hit,la-ka-piais-to,la-ka-piais-to,la-ka-pi-ais-to,la-ka-pia-is-to,-0.314939236,-0.1059375,1,0,0,3.3189,text_option_1,,0,145,145,16,1
60f364780342181eb49b70d7,63f3cfca20052e4ae7554ebf,6453c9428a79e029a237f3e5,2023-05-04_17h05.07.241,ga_syllabified_check,2022.2.5,MacIntel,60.0024001,,,,,,,,,,,,,,./stim/p08_syllable_1_faluduako_hit.wav,p08,faluduako,hit,fa-lu-duai-ko,fa-lu-dua-ko,fa-lu-du-a-ko, ,-0.35328125,-0.113407118,1,0,0,3.3325,text_option_1,,0,146,146,172,1
60f364780342181eb49b70d7,63f3cfca20052e4ae7554ebf,6453c9428a79e029a237f3e5,2023-05-04_17h05.07.241,ga_syllabified_check,2022.2.5,MacIntel,60.0024001,,,,,,,,,,,,,,./stim/p04_syllable_1_lakabuaisto_hit.wav,p04,lakabuaisto,hit,la-ka-buais-to,la-ka-buais-to,la-ka-bu-ais-to,la-ka-bua-is-to,-0.048033854,-0.112565104,1,0,0,2.0507,text_option_3,,0,147,147,41,1
60f364780342181eb49b70d7,63f3cfca20052e4ae7554ebf,6453c9428a79e029a237f3e5,2023-05-04_17h05.07.241,ga_syllabified_check,2022.2.5,MacIntel,60.0024001,,,,,,,,,,,,,,./stim/p04_syllable_1_falufaisto_hit.wav,p04,falufaisto,hit,fa-lu-fais-to,fa-lu-fais-to,fa-lu-fa-is-to, ,-0.397265625,-0.103828125,1,0,0,1.6676,text_option_1,,0,148,148,37,1
60f364780342181eb49b70d7,63f3cfca20052e4ae7554ebf,6453c9428a79e029a237f3e5,2023-05-04_17h05.07.241,ga_syllabified_check,2022.2.5,MacIntel,60.0024001,,,,,,,,,,,,,,./stim/p03_syllable_1_lakakiaisto_hit.wav,p03,lakakiaisto,hit,la-ka-kiais-to,la-ka-kiais-to,la-ka-ki-ais-to,la-ka-kia-is-to,-0.397265625,-0.103828125,1,0,0,1.7012,text_option_1,,0,149,149,14,1
60f364780342181eb49b70d7,63f3cfca20052e4ae7554ebf,6453c9428a79e029a237f3e5,2023-05-04_17h05.07.241,ga_syllabified_check,2022.2.5,MacIntel,60.0024001,,,,,,,,,,,,,,./stim/p07_syllable_1_tuliafo_hit.wav,p07,tuliafo,hit,tu-lia-fo,tu-lia-fo,tu-li-a-fo, ,-0.397265625,-0.103828125,1,0,0,1.3849,text_option_1,,0,150,150,169,1
60f364780342181eb49b70d7,63f3cfca20052e4ae7554ebf,6453c9428a79e029a237f3e5,2023-05-04_17h05.07.241,ga_syllabified_check,2022.2.5,MacIntel,60.0024001,,,,,,,,,,,,,,./stim/p03_syllable_1_falufaisto_hit.wav,p03,falufaisto,hit,fa-lu-fais-to,fa-lu-fais-to,fa-lu-fa-is-to, ,-0.397265625,-0.103828125,1,0,0,1.7348,text_option_1,,0,151,151,3,1
60f364780342181eb49b70d7,63f3cfca20052e4ae7554ebf,6453c9428a79e029a237f3e5,2023-05-04_17h05.07.241,ga_syllabified_check,2022.2.5,MacIntel,60.0024001,,,,,,,,,,,,,,./stim/p07_syllable_1_lakatiaisto_hit.wav,p07,lakatiaisto,hit,la-ka-tiai-sto,la-ka-tiais-to,la-ka-ti-ais-to,la-ka-tia-is-to,0.027452257,-0.102508681,1,0,0,3.2001,text_option_3,,0,152,152,154,1
60f364780342181eb49b70d7,63f3cfca20052e4ae7554ebf,6453c9428a79e029a237f3e5,2023-05-04_17h05.07.241,ga_syllabified_check,2022.2.5,MacIntel,60.0024001,,,,,,,,,,,,,,./stim/p04_syllable_1_palufauro_hit.wav,p04,palufauro,hit,pa-lu-fau-ro,pa-lu-fau-ro,pa-lu-fa-u-ro, ,-0.343919271,-0.113355035,1,0,0,3.2008,text_option_1,,0,153,153,59,1
60f364780342181eb49b70d7,63f3cfca20052e4ae7554ebf,6453c9428a79e029a237f3e5,2023-05-04_17h05.07.241,ga_syllabified_check,2022.2.5,MacIntel,60.0024001,,,,,,,,,,,,,,./stim/p08_syllable_1_lakaduaisto_hit.wav,p08,lakaduaisto,hit,la-ka-du-ais-to,la-ka-duais-to,la-ka-du-ais-to,la-ka-dua-is-to,0.389947917,-0.112855903,1,0,0,3.2829,text_option_2,,0,154,154,179,1
60f364780342181eb49b70d7,63f3cfca20052e4ae7554ebf,6453c9428a79e029a237f3e5,2023-05-04_17h05.07.241,ga_syllabified_check,2022.2.5,MacIntel,60.0024001,,,,,,,,,,,,,,./stim/p05_syllable_1_payielo_hit.wav,p05,payielo,hit,pai-yu-we-lo,pa-yie-lo,pa-yi-e-lo, ,-0.345438368,-0.096666667,1,0,0,3.2846,text_option_1,,0,155,155,98,1
60f364780342181eb49b70d7,63f3cfca20052e4ae7554ebf,6453c9428a79e029a237f3e5,2023-05-04_17h05.07.241,ga_syllabified_check,2022.2.5,MacIntel,60.0024001,,,,,,,,,,,,,,./stim/p07_syllable_1_lakaguaisto_hit.wav,p07,lakaguaisto,hit,la-ka-guais-to,la-ka-guais-to,la-ka-gu-ais-to,la-ka-gua-is-to,-0.358138021,-0.106427951,1,0,0,4.3176,text_option_1,,0,156,156,149,1
60f364780342181eb49b70d7,63f3cfca20052e4ae7554ebf,6453c9428a79e029a237f3e5,2023-05-04_17h05.07.241,ga_syllabified_check,2022.2.5,MacIntel,60.0024001,,,,,,,,,,,,,,./stim/p03_syllable_1_tuliafo_hit.wav,p03,tuliafo,hit,tu-lia-fo,tu-lia-fo,tu-li-a-fo, ,-0.371592882,-0.106805556,1,0,0,1.8169,text_option_1,,0,157,157,33,1
60f364780342181eb49b70d7,63f3cfca20052e4ae7554ebf,6453c9428a79e029a237f3e5,2023-05-04_17h05.07.241,ga_syllabified_check,2022.2.5,MacIntel,60.0024001,,,,,,,,,,,,,,./stim/p06_syllable_1_palutrauco_hit.wav,p06,palutrauco,hit,pa-lu-tra-u-co,pa-lu-trau-co,pa-lu-tra-u-co, ,0.333394097,-0.097139757,1,0,0,2.8171,text_option_2,,0,158,158,131,1
60f364780342181eb49b70d7,63f3cfca20052e4ae7554ebf,6453c9428a79e029a237f3e5,2023-05-04_17h05.07.241,ga_syllabified_check,2022.2.5,MacIntel,60.0024001,,,,,,,,,,,,,,./stim/p07_syllable_1_lakagiaisto_hit.wav,p07,lakagiaisto,hit,la-ka-gais-to,la-ka-giais-to,la-ka-gi-ais-to,la-ka-gia-is-to,-0.383927951,-0.093450521,1,0,0,2.6343,text_option_1,,0,159,159,148,1
60f364780342181eb49b70d7,63f3cfca20052e4ae7554ebf,6453c9428a79e029a237f3e5,2023-05-04_17h05.07.241,ga_syllabified_check,2022.2.5,MacIntel,60.0024001,,,,,,,,,,,,,,./stim/p04_syllable_1_palumaisto_hit.wav,p04,palumaisto,hit,pa-lu-mais-to,pa-lu-mais-to,pa-lu-ma-is-to, ,-0.372000868,-0.098420139,1,0,0,1.049,text_option_1,,0,160,160,62,1
60f364780342181eb49b70d7,63f3cfca20052e4ae7554ebf,6453c9428a79e029a237f3e5,2023-05-04_17h05.07.241,ga_syllabified_check,2022.2.5,MacIntel,60.0024001,,,,,,,,,,,,,,./stim/p05_syllable_1_lakafuaisto_hit.wav,p05,lakafuaisto,hit,la-ka-fais-to,la-ka-fuais-to,la-ka-fu-ais-to,la-ka-fua-is-to,-0.301393229,-0.111293403,1,0,0,1.1155,text_option_1,,0,161,161,79,1
60f364780342181eb49b70d7,63f3cfca20052e4ae7554ebf,6453c9428a79e029a237f3e5,2023-05-04_17h05.07.241,ga_syllabified_check,2022.2.5,MacIntel,60.0024001,,,,,,,,,,,,,,./stim/p03_syllable_1_faluduako_hit.wav,p03,faluduako,hit,fa-lu-dua-ko,fa-lu-dua-ko,fa-lu-du-a-ko, ,-0.370477431,-0.097630208,1,0,0,1.4187,text_option_1,,0,162,162,2,1
60f364780342181eb49b70d7,63f3cfca20052e4ae7554ebf,6453c9428a79e029a237f3e5,2023-05-04_17h05.07.241,ga_syllabified_check,2022.2.5,MacIntel,60.0024001,,,,,,,,,,,,,,./stim/p08_syllable_1_palumaisto_hit.wav,p08,palumaisto,hit,pa-lu-mais-to,pa-lu-mais-to,pa-lu-ma-is-to, ,-0.333111979,-0.109084201,1,0,0,3.5307,text_option_1,,0,163,163,198,1
60f364780342181eb49b70d7,63f3cfca20052e4ae7554ebf,6453c9428a79e029a237f3e5,2023-05-04_17h05.07.241,ga_syllabified_check,2022.2.5,MacIntel,60.0024001,,,,,,,,,,,,,,./stim/p05_syllable_1_lakaduaisto_hit.wav,p05,lakaduaisto,hit,la-ka-dais-to,la-ka-duais-to,la-ka-du-ais-to,la-ka-dua-is-to,-0.311840278,-0.098867187,1,0,0,1.3007,text_option_1,,0,164,164,77,1
60f364780342181eb49b70d7,63f3cfca20052e4ae7554ebf,6453c9428a79e029a237f3e5,2023-05-04_17h05.07.241,ga_syllabified_check,2022.2.5,MacIntel,60.0024001,,,,,,,,,,,,,,./stim/p07_syllable_1_lakakiaisto_hit.wav,p07,lakakiaisto,hit,la-ka-kais-to,la-ka-kiais-to,la-ka-ki-ais-to,la-ka-kia-is-to,-0.320338542,-0.108819444,1,0,0,2.1977,text_option_1,,0,165,165,150,1
60f364780342181eb49b70d7,63f3cfca20052e4ae7554ebf,6453c9428a79e029a237f3e5,2023-05-04_17h05.07.241,ga_syllabified_check,2022.2.5,MacIntel,60.0024001,,,,,,,,,,,,,,./stim/p05_syllable_1_nhiape_hit.wav,p05,ñiape,hit,nhia-pe,ñia-pe,ñi-a-pe, ,-0.422721354,-0.112174479,1,0,0,0.8512,text_option_1,,0,166,166,91,1
60f364780342181eb49b70d7,63f3cfca20052e4ae7554ebf,6453c9428a79e029a237f3e5,2023-05-04_17h05.07.241,ga_syllabified_check,2022.2.5,MacIntel,60.0024001,,,,,,,,,,,,,,./stim/p03_syllable_1_ruyiola_hit.wav,p03,ruyiola,hit,ru-yio-la,ru-yio-la,ru-yi-o-la, ,-0.415143229,-0.104761285,1,0,0,1.015,text_option_1,,0,167,167,32,1
60f364780342181eb49b70d7,63f3cfca20052e4ae7554ebf,6453c9428a79e029a237f3e5,2023-05-04_17h05.07.241,ga_syllabified_check,2022.2.5,MacIntel,60.0024001,,,,,,,,,,,,,,./stim/p03_syllable_1_palumaisto_hit.wav,p03,palumaisto,hit,pa-lu-mais-to,pa-lu-mais-to,pa-lu-ma-is-to, ,-0.415143229,-0.104761285,1,0,0,1.164,text_option_1,,0,168,168,28,1
60f364780342181eb49b70d7,63f3cfca20052e4ae7554ebf,6453c9428a79e029a237f3e5,2023-05-04_17h05.07.241,ga_syllabified_check,2022.2.5,MacIntel,60.0024001,,,,,,,,,,,,,,./stim/p03_syllable_1_lakaguaisto_hit.wav,p03,lakaguaisto,hit,la-ka-guais-to,la-ka-guais-to,la-ka-gu-ais-to,la-ka-gua-is-to,-0.415143229,-0.104761285,1,0,0,1.1984,text_option_1,,0,169,169,13,1
60f364780342181eb49b70d7,63f3cfca20052e4ae7554ebf,6453c9428a79e029a237f3e5,2023-05-04_17h05.07.241,ga_syllabified_check,2022.2.5,MacIntel,60.0024001,,,,,,,,,,,,,,./stim/p05_syllable_1_falutraigo_hit.wav,p05,falutraigo,hit,fa-lu-trai-go,fa-lu-trai-go,fa-lu-tra-i-go, ,-0.412256944,-0.10780816,1,0,0,1.7693,text_option_1,,0,170,170,72,1
60f364780342181eb49b70d7,63f3cfca20052e4ae7554ebf,6453c9428a79e029a237f3e5,2023-05-04_17h05.07.241,ga_syllabified_check,2022.2.5,MacIntel,60.0024001,,,,,,,,,,,,,,./stim/p08_syllable_1_tuliafo_hit.wav,p08,tuliafo,hit,tu-li-a-fo,tu-lia-fo,tu-li-a-fo, ,0.362100694,-0.119118924,1,0,0,1.832,text_option_2,,0,171,171,203,1
60f364780342181eb49b70d7,63f3cfca20052e4ae7554ebf,6453c9428a79e029a237f3e5,2023-05-04_17h05.07.241,ga_syllabified_check,2022.2.5,MacIntel,60.0024001,,,,,,,,,,,,,,./stim/p03_syllable_1_costonhialo_hit.wav,p03,costoñialo,hit,cos-to-nhia-lo,cos-to-ñia-lo,cos-to-ñi-a-lo, ,-0.339609375,-0.106349826,1,0,0,2.0013,text_option_1,,0,172,172,1,1
60f364780342181eb49b70d7,63f3cfca20052e4ae7554ebf,6453c9428a79e029a237f3e5,2023-05-04_17h05.07.241,ga_syllabified_check,2022.2.5,MacIntel,60.0024001,,,,,,,,,,,,,,./stim/p06_syllable_1_palumaisto_hit.wav,p06,palumaisto,hit,pa-lu-ma-is-to,pa-lu-mais-to,pa-lu-ma-is-to, ,0.321618924,-0.097634549,1,0,0,3.0318,text_option_2,,0,173,173,130,1
60f364780342181eb49b70d7,63f3cfca20052e4ae7554ebf,6453c9428a79e029a237f3e5,2023-05-04_17h05.07.241,ga_syllabified_check,2022.2.5,MacIntel,60.0024001,,,,,,,,,,,,,,./stim/p08_syllable_1_costonhialo_hit.wav,p08,costoñialo,hit,cos-to-nhia-lo,cos-to-ñia-lo,cos-to-ñi-a-lo, ,-0.350425347,-0.10124566,1,0,0,1.8509,text_option_1,,0,174,174,171,1
60f364780342181eb49b70d7,63f3cfca20052e4ae7554ebf,6453c9428a79e029a237f3e5,2023-05-04_17h05.07.241,ga_syllabified_check,2022.2.5,MacIntel,60.0024001,,,,,,,,,,,,,,./stim/p05_syllable_1_falufaisto_hit.wav,p05,falufaisto,hit,fa-lu-fais-to,fa-lu-fais-to,fa-lu-fa-is-to, ,-0.353033854,-0.093828125,1,0,0,1.0846,text_option_1,,0,175,175,71,1
60f364780342181eb49b70d7,63f3cfca20052e4ae7554ebf,6453c9428a79e029a237f3e5,2023-05-04_17h05.07.241,ga_syllabified_check,2022.2.5,MacIntel,60.0024001,,,,,,,,,,,,,,./stim/p06_syllable_1_lliape_hit.wav,p06,lliape,hit,lli-lla-pe,llia-pe,lli-a-pe, ,0.36655816,-0.108394097,1,0,0,2.1656,text_option_2,,0,176,176,122,1
60f364780342181eb49b70d7,63f3cfca20052e4ae7554ebf,6453c9428a79e029a237f3e5,2023-05-04_17h05.07.241,ga_syllabified_check,2022.2.5,MacIntel,60.0024001,,,,,,,,,,,,,,./stim/p03_syllable_1_lakafiaisto_hit.wav,p03,lakafiaisto,hit,la-ka-fiais-to,la-ka-fiais-to,la-ka-fi-ais-to,la-ka-fia-is-to,-0.350837674,-0.113337674,1,0,0,1.9355,text_option_1,,0,177,177,10,1
60f364780342181eb49b70d7,63f3cfca20052e4ae7554ebf,6453c9428a79e029a237f3e5,2023-05-04_17h05.07.241,ga_syllabified_check,2022.2.5,MacIntel,60.0024001,,,,,,,,,,,,,,./stim/p05_syllable_1_faluduako_hit.wav,p05,faluduako,hit,fa-lu-ba-ko,fa-lu-dua-ko,fa-lu-du-a-ko, ,-0.321697049,-0.104240451,1,0,0,2.0804,text_option_1,,0,178,178,70,1
60f364780342181eb49b70d7,63f3cfca20052e4ae7554ebf,6453c9428a79e029a237f3e5,2023-05-04_17h05.07.241,ga_syllabified_check,2022.2.5,MacIntel,60.0024001,,,,,,,,,,,,,,./stim/p07_syllable_1_falufaisto_hit.wav,p07,falufaisto,hit,fa-lu-fais-to,fa-lu-fais-to,fa-lu-fa-is-to, ,-0.321697049,-0.104240451,1,0,0,2.817,text_option_1,,0,179,179,139,1
60f364780342181eb49b70d7,63f3cfca20052e4ae7554ebf,6453c9428a79e029a237f3e5,2023-05-04_17h05.07.241,ga_syllabified_check,2022.2.5,MacIntel,60.0024001,,,,,,,,,,,,,,./stim/p06_syllable_1_lakabiaisto_hit.wav,p06,lakabiaisto,hit,la-ka-bia-is-to,la-ka-biais-to,la-ka-bi-ais-to,la-ka-bia-is-to,-0.032634549,-0.094053819,1,0,0,4.5676,text_option_3,,0,180,180,108,1
60f364780342181eb49b70d7,63f3cfca20052e4ae7554ebf,6453c9428a79e029a237f3e5,2023-05-04_17h05.07.241,ga_syllabified_check,2022.2.5,MacIntel,60.0024001,,,,,,,,,,,,,,./stim/p04_syllable_1_tuliafo_hit.wav,p04,tuliafo,hit,tu-lia-fo,tu-lia-fo,tu-li-a-fo, ,-0.376883681,-0.117847222,1,0,0,1.2991,text_option_1,,0,181,181,67,1
60f364780342181eb49b70d7,63f3cfca20052e4ae7554ebf,6453c9428a79e029a237f3e5,2023-05-04_17h05.07.241,ga_syllabified_check,2022.2.5,MacIntel,60.0024001,,,,,,,,,,,,,,./stim/p06_syllable_1_nhiape_hit.wav,p06,ñiape,hit,nhi-a-pe,ñia-pe,ñi-a-pe, ,0.376844618,-0.112795139,1,0,0,1.3978,text_option_2,,0,182,182,125,1
60f364780342181eb49b70d7,63f3cfca20052e4ae7554ebf,6453c9428a79e029a237f3e5,2023-05-04_17h05.07.241,ga_syllabified_check,2022.2.5,MacIntel,60.0024001,,,,,,,,,,,,,,./stim/p03_syllable_1_flauro_hit.wav,p03,flauro,hit,flau-ro,flau-ro,fla-u-ro, ,-0.395486111,-0.114405382,1,0,0,0.813,text_option_1,,0,183,183,5,1
60f364780342181eb49b70d7,63f3cfca20052e4ae7554ebf,6453c9428a79e029a237f3e5,2023-05-04_17h05.07.241,ga_syllabified_check,2022.2.5,MacIntel,60.0024001,,,,,,,,,,,,,,./stim/p04_syllable_1_lakatuaisto_hit.wav,p04,lakatuaisto,hit,la-ka-kuais-to,la-ka-tuais-to,la-ka-tu-ais-to,la-ka-tua-is-to,0.355355903,-0.118233507,1,0,0,3.334,text_option_2,,0,184,184,53,1
60f364780342181eb49b70d7,63f3cfca20052e4ae7554ebf,6453c9428a79e029a237f3e5,2023-05-04_17h05.07.241,ga_syllabified_check,2022.2.5,MacIntel,60.0024001,,,,,,,,,,,,,,./stim/p03_syllable_1_nhiape_hit.wav,p03,ñiape,hit,nhia-pe,ñia-pe,ñi-a-pe, ,-0.420052083,-0.093472222,1,0,0,0.8494,text_option_1,,0,185,185,23,1
60f364780342181eb49b70d7,63f3cfca20052e4ae7554ebf,6453c9428a79e029a237f3e5,2023-05-04_17h05.07.241,ga_syllabified_check,2022.2.5,MacIntel,60.0024001,,,,,,,,,,,,,,./stim/p05_syllable_1_tuliafo_hit.wav,p05,tuliafo,hit,tu-lai-fo,tu-lia-fo,tu-li-a-fo, ,-0.397092014,-0.111727431,1,0,0,4.3805,text_option_1,,0,186,186,101,1
60f364780342181eb49b70d7,63f3cfca20052e4ae7554ebf,6453c9428a79e029a237f3e5,2023-05-04_17h05.07.241,ga_syllabified_check,2022.2.5,MacIntel,60.0024001,,,,,,,,,,,,,,./stim/p06_syllable_1_lakafiaisto_hit.wav,p06,lakafiaisto,hit,la-ka-fia-is-to,la-ka-fiais-to,la-ka-fi-ais-to,la-ka-fia-is-to,-0.021623264,-0.091388889,1,0,0,3.4166,text_option_3,,0,187,187,112,1
60f364780342181eb49b70d7,63f3cfca20052e4ae7554ebf,6453c9428a79e029a237f3e5,2023-05-04_17h05.07.241,ga_syllabified_check,2022.2.5,MacIntel,60.0024001,,,,,,,,,,,,,,./stim/p08_syllable_1_lakakuaisto_hit.wav,p08,lakakuaisto,hit,la-ka-ku-ais-to,la-ka-kuais-to,la-ka-ku-ais-to,la-ka-kua-is-to,0.304344618,-0.117230903,1,0,0,4.1349,text_option_2,,0,188,188,185,1
60f364780342181eb49b70d7,63f3cfca20052e4ae7554ebf,6453c9428a79e029a237f3e5,2023-05-04_17h05.07.241,ga_syllabified_check,2022.2.5,MacIntel,60.0024001,,,,,,,,,,,,,,./stim/p07_syllable_1_lakadiaisto_hit.wav,p07,lakadiaisto,hit,la-ka-dia-is-to,la-ka-diais-to,la-ka-di-ais-to,la-ka-dia-is-to,0.020763889,-0.102777778,1,0,0,2.7649,text_option_3,,0,189,189,144,1
60f364780342181eb49b70d7,63f3cfca20052e4ae7554ebf,6453c9428a79e029a237f3e5,2023-05-04_17h05.07.241,ga_syllabified_check,2022.2.5,MacIntel,60.0024001,,,,,,,,,,,,,,./stim/p08_syllable_1_flauro_hit.wav,p08,flauro,hit,flau-ro,flau-ro,fla-u-ro, ,-0.377621528,-0.115720486,1,0,0,0.8672,text_option_1,,0,190,190,175,1
60f364780342181eb49b70d7,63f3cfca20052e4ae7554ebf,6453c9428a79e029a237f3e5,2023-05-04_17h05.07.241,ga_syllabified_check,2022.2.5,MacIntel,60.0024001,,,,,,,,,,,,,,./stim/p07_syllable_1_lakabiaisto_hit.wav,p07,lakabiaisto,hit,la-ka-bais-to,la-ka-biais-to,la-ka-bi-ais-to,la-ka-bia-is-to,-0.026276042,-0.100707465,1,0,0,5.5168,text_option_3,,0,191,191,142,1
60f364780342181eb49b70d7,63f3cfca20052e4ae7554ebf,6453c9428a79e029a237f3e5,2023-05-04_17h05.07.241,ga_syllabified_check,2022.2.5,MacIntel,60.0024001,,,,,,,,,,,,,,./stim/p04_syllable_1_lakadiaisto_hit.wav,p04,lakadiaisto,hit,la-ka-dias-to,la-ka-diais-to,la-ka-di-ais-to,la-ka-dia-is-to,-0.455199653,-0.085555556,1,0,0,1.2339,text_option_1,,0,192,192,42,1
60f364780342181eb49b70d7,63f3cfca20052e4ae7554ebf,6453c9428a79e029a237f3e5,2023-05-04_17h05.07.241,ga_syllabified_check,2022.2.5,MacIntel,60.0024001,,,,,,,,,,,,,,./stim/p05_syllable_1_lakabuaisto_hit.wav,p05,lakabuaisto,hit,la-ka-buais-to,la-ka-buais-to,la-ka-bu-ais-to,la-ka-bua-is-to,-0.371588542,-0.081757812,1,0,0,1.1675,text_option_1,,0,193,193,75,1
60f364780342181eb49b70d7,63f3cfca20052e4ae7554ebf,6453c9428a79e029a237f3e5,2023-05-04_17h05.07.241,ga_syllabified_check,2022.2.5,MacIntel,60.0024001,,,,,,,,,,,,,,./stim/p08_syllable_1_ruyiola_hit.wav,p08,ruyiola,hit,ru-yio-la,ru-yio-la,ru-yi-o-la, ,-0.34499566,-0.088645833,1,0,0,0.9487,text_option_1,,0,194,194,202,1
60f364780342181eb49b70d7,63f3cfca20052e4ae7554ebf,6453c9428a79e029a237f3e5,2023-05-04_17h05.07.241,ga_syllabified_check,2022.2.5,MacIntel,60.0024001,,,,,,,,,,,,,,./stim/p05_syllable_1_palufauto_hit.wav,p05,palufauto,hit,pa-lu-fau-to,pa-lu-fau-to,pa-lu-fa-u-to, ,-0.332938368,-0.095243056,1,0,0,2.2011,text_option_1,,0,195,195,94,1
60f364780342181eb49b70d7,63f3cfca20052e4ae7554ebf,6453c9428a79e029a237f3e5,2023-05-04_17h05.07.241,ga_syllabified_check,2022.2.5,MacIntel,60.0024001,,,,,,,,,,,,,,./stim/p06_syllable_1_mebochiana_hit.wav,p06,mebochiana,hit,me-bo-shi-a-na,me-bo-chia-na,me-bo-chi-a-na, ,0.357899306,-0.102356771,1,0,0,3.2321,text_option_2,,0,196,196,124,1
60f364780342181eb49b70d7,63f3cfca20052e4ae7554ebf,6453c9428a79e029a237f3e5,2023-05-04_17h05.07.241,ga_syllabified_check,2022.2.5,MacIntel,60.0024001,,,,,,,,,,,,,,./stim/p04_syllable_1_lakapiaisto_hit.wav,p04,lakapiaisto,hit,la-ka-piais-to,la-ka-piais-to,la-ka-pi-ais-to,la-ka-pia-is-to,-0.352608507,-0.117621528,1,0,0,1.4161,text_option_1,,0,197,197,50,1
60f364780342181eb49b70d7,63f3cfca20052e4ae7554ebf,6453c9428a79e029a237f3e5,2023-05-04_17h05.07.241,ga_syllabified_check,2022.2.5,MacIntel,60.0024001,,,,,,,,,,,,,,./stim/p03_syllable_1_pachialo_hit.wav,p03,pachialo,hit,pa-chia-lo,pa-chia-lo,pa-chi-a-lo, ,-0.376922743,-0.113233507,1,0,0,0.6685,text_option_1,,0,198,198,24,1
60f364780342181eb49b70d7,63f3cfca20052e4ae7554ebf,6453c9428a79e029a237f3e5,2023-05-04_17h05.07.241,ga_syllabified_check,2022.2.5,MacIntel,60.0024001,,,,,,,,,,,,,,./stim/p07_syllable_1_payielo_hit.wav,p07,payielo,hit,pa-yie-lo,pa-yie-lo,pa-yi-e-lo, ,-0.377478299,-0.113233507,1,0,0,1.2379,text_option_1,,0,199,199,166,1
60f364780342181eb49b70d7,63f3cfca20052e4ae7554ebf,6453c9428a79e029a237f3e5,2023-05-04_17h05.07.241,ga_syllabified_check,2022.2.5,MacIntel,60.0024001,,,,,,,,,,,,,,./stim/p06_syllable_1_lakadiaisto_hit.wav,p06,lakadiaisto,hit,la-ka-dia-is-to,la-ka-diais-to,la-ka-di-ais-to,la-ka-dia-is-to,-0.056319444,-0.099396701,1,0,0,3.2511,text_option_3,,0,200,200,110,1
60f364780342181eb49b70d7,63f3cfca20052e4ae7554ebf,6453c9428a79e029a237f3e5,2023-05-04_17h05.07.241,ga_syllabified_check,2022.2.5,MacIntel,60.0024001,,,,,,,,,,,,,,./stim/p03_syllable_1_lakafuaisto_hit.wav,p03,lakafuaisto,hit,la-ka-fuais-to,la-ka-fuais-to,la-ka-fu-ais-to,la-ka-fua-is-to,-0.332730035,-0.10124566,1,0,0,1.4826,text_option_1,,0,201,201,11,1
60f364780342181eb49b70d7,63f3cfca20052e4ae7554ebf,6453c9428a79e029a237f3e5,2023-05-04_17h05.07.241,ga_syllabified_check,2022.2.5,MacIntel,60.0024001,,,,,,,,,,,,,,./stim/p07_syllable_1_lliape_hit.wav,p07,lliape,hit,lliai-pe,llia-pe,lli-a-pe, ,-0.390065104,-0.11233941,1,0,0,1.5482,text_option_1,,0,202,202,156,1
60f364780342181eb49b70d7,63f3cfca20052e4ae7554ebf,6453c9428a79e029a237f3e5,2023-05-04_17h05.07.241,ga_syllabified_check,2022.2.5,MacIntel,60.0024001,,,,,,,,,,,,,,./stim/p08_syllable_1_lakafuaisto_hit.wav,p08,lakafuaisto,hit,la-ka-fju-ais-to,la-ka-fuais-to,la-ka-fu-ais-to,la-ka-fua-is-to,-0.333190104,-0.097013889,1,0,0,4.9136,text_option_1,,0,203,203,181,1
60f364780342181eb49b70d7,63f3cfca20052e4ae7554ebf,6453c9428a79e029a237f3e5,2023-05-04_17h05.07.241,ga_syllabified_check,2022.2.5,MacIntel,60.0024001,,,,,,,,,,,,,,,,,,,,,,,,,,,,,,,,,,
