participant,study,session,date,expName,psychopyVersion,OS,frameRate,mouse_practice.x,mouse_practice.y,mouse_practice.leftButton,mouse_practice.midButton,mouse_practice.rightButton,mouse_practice.time,mouse_practice.clicked_name,textbox_followup_practice.text,trials_practice.thisRepN,trials_practice.thisTrialN,trials_practice.thisN,trials_practice.thisIndex,trials_practice.ran,file_path,id,item,status,response,op1,op2,op3,mouse.x,mouse.y,mouse.leftButton,mouse.midButton,mouse.rightButton,mouse.time,mouse.clicked_name,textbox_followup.text,trials.thisRepN,trials.thisTrialN,trials.thisN,trials.thisIndex,trials.ran
6106c0aecdc0c01341f2bf2d,63f3cfca20052e4ae7554ebf,6453c885fb5d54228996df71,2023-05-04_17h01.00.769,ga_syllabified_check,2022.2.5,Win32,60.0240096,,,,,,,,,,,,,,,,,,,,,,,,,,,,,,,,,,
6106c0aecdc0c01341f2bf2d,63f3cfca20052e4ae7554ebf,6453c885fb5d54228996df71,2023-05-04_17h01.00.769,ga_syllabified_check,2022.2.5,Win32,60.0240096,0.392361111,-0.111111111,1,0,0,2.882,text_option_2_practice,,0,0,0,0,1,./stim/p03_syllable_1_liamo_hit.wav,p03,liamo,hit,lia-mo,lia-mo,li-a-mo, ,,,,,,,,,,,,,
6106c0aecdc0c01341f2bf2d,63f3cfca20052e4ae7554ebf,6453c885fb5d54228996df71,2023-05-04_17h01.00.769,ga_syllabified_check,2022.2.5,Win32,60.0240096,-0.396990741,-0.105324074,1,0,0,1.834,text_option_1_practice,,0,1,1,1,1,./stim/p05_syllable_1_matio_hit.wav,p05,matio,hit,ma-tio,ma-tio,ma-ti-o, ,,,,,,,,,,,,,
6106c0aecdc0c01341f2bf2d,63f3cfca20052e4ae7554ebf,6453c885fb5d54228996df71,2023-05-04_17h01.00.769,ga_syllabified_check,2022.2.5,Win32,60.0240096,0.443287037,-0.106481481,1,0,0,1.734,text_option_2_practice,,0,2,2,2,1,./stim/p08_syllable_1_liamo_hit.wav,p08,liamo,hit,ja-mo,lia-mo,li-a-mo, ,,,,,,,,,,,,,
6106c0aecdc0c01341f2bf2d,63f3cfca20052e4ae7554ebf,6453c885fb5d54228996df71,2023-05-04_17h01.00.769,ga_syllabified_check,2022.2.5,Win32,60.0240096,,,,,,,,,,,,,,,,,,,,,,,,,,,,,,,,,,
6106c0aecdc0c01341f2bf2d,63f3cfca20052e4ae7554ebf,6453c885fb5d54228996df71,2023-05-04_17h01.00.769,ga_syllabified_check,2022.2.5,Win32,60.0240096,,,,,,,,,,,,,,./stim/p07_syllable_1_lakaduaisto_hit.wav,p07,lakaduaisto,hit,la-ka-duais-to,la-ka-duais-to,la-ka-du-ais-to,la-ka-dua-is-to,-0.362268519,-0.100694444,1,0,0,2.517,text_option_1,,0,0,0,145,1
6106c0aecdc0c01341f2bf2d,63f3cfca20052e4ae7554ebf,6453c885fb5d54228996df71,2023-05-04_17h01.00.769,ga_syllabified_check,2022.2.5,Win32,60.0240096,,,,,,,,,,,,,,./stim/p08_syllable_1_lakabuaisto_hit.wav,p08,lakabuaisto,hit,la-ka-bu-ais-to,la-ka-buais-to,la-ka-bu-ais-to,la-ka-bua-is-to,0.44212963,-0.094907407,1,0,0,3.701,text_option_2,,0,1,1,177,1
6106c0aecdc0c01341f2bf2d,63f3cfca20052e4ae7554ebf,6453c885fb5d54228996df71,2023-05-04_17h01.00.769,ga_syllabified_check,2022.2.5,Win32,60.0240096,,,,,,,,,,,,,,./stim/p06_syllable_1_lakagiaisto_hit.wav,p06,lakagiaisto,hit,la-ka-gia-is-to,la-ka-giais-to,la-ka-gi-ais-to,la-ka-gia-is-to,0.0625,-0.109953704,1,0,0,4.066,text_option_3,,0,2,2,114,1
6106c0aecdc0c01341f2bf2d,63f3cfca20052e4ae7554ebf,6453c885fb5d54228996df71,2023-05-04_17h01.00.769,ga_syllabified_check,2022.2.5,Win32,60.0240096,,,,,,,,,,,,,,./stim/p07_syllable_1_manhiala_hit.wav,p07,mañiala,hit,ma-nhia-la,ma-ñia-la,ma-ñi-a-la, ,0.094907407,-0.3125,1,0,0,2.933,text_option_other,ma-ña-na,0,3,3,157,1
6106c0aecdc0c01341f2bf2d,63f3cfca20052e4ae7554ebf,6453c885fb5d54228996df71,2023-05-04_17h01.00.769,ga_syllabified_check,2022.2.5,Win32,60.0240096,,,,,,,,,,,,,,./stim/p08_syllable_1_chiaba_hit.wav,p08,chiaba,hit,chi-a-ba,chia-ba,chi-a-ba, ,-0.414351852,-0.090277778,1,0,0,1.499,text_option_1,,0,4,4,170,1
6106c0aecdc0c01341f2bf2d,63f3cfca20052e4ae7554ebf,6453c885fb5d54228996df71,2023-05-04_17h01.00.769,ga_syllabified_check,2022.2.5,Win32,60.0240096,,,,,,,,,,,,,,./stim/p06_syllable_1_palufauto_hit.wav,p06,palufauto,hit,pa-lu-fau-to,pa-lu-fau-to,pa-lu-fa-u-to, ,-0.446759259,-0.101851852,1,0,0,3.05,text_option_1,,0,5,5,128,1
6106c0aecdc0c01341f2bf2d,63f3cfca20052e4ae7554ebf,6453c885fb5d54228996df71,2023-05-04_17h01.00.769,ga_syllabified_check,2022.2.5,Win32,60.0240096,,,,,,,,,,,,,,./stim/p03_syllable_1_falufaisto_hit.wav,p03,falufaisto,hit,fa-lu-fais-to,fa-lu-fais-to,fa-lu-fa-is-to, ,-0.368055556,-0.09837963,1,0,0,1.917,text_option_1,,0,6,6,3,1
6106c0aecdc0c01341f2bf2d,63f3cfca20052e4ae7554ebf,6453c885fb5d54228996df71,2023-05-04_17h01.00.769,ga_syllabified_check,2022.2.5,Win32,60.0240096,,,,,,,,,,,,,,./stim/p06_syllable_1_falutraigo_hit.wav,p06,falutraigo,hit,fa-lu-tra-i-go,fa-lu-trai-go,fa-lu-tra-i-go, ,0.378472222,-0.094907407,1,0,0,4.001,text_option_2,,0,7,7,106,1
6106c0aecdc0c01341f2bf2d,63f3cfca20052e4ae7554ebf,6453c885fb5d54228996df71,2023-05-04_17h01.00.769,ga_syllabified_check,2022.2.5,Win32,60.0240096,,,,,,,,,,,,,,./stim/p03_syllable_1_lakagiaisto_hit.wav,p03,lakagiaisto,hit,la-ka-giais-to,la-ka-giais-to,la-ka-gi-ais-to,la-ka-gia-is-to,-0.335648148,-0.100694444,1,0,0,2.117,text_option_1,,0,8,8,12,1
6106c0aecdc0c01341f2bf2d,63f3cfca20052e4ae7554ebf,6453c885fb5d54228996df71,2023-05-04_17h01.00.769,ga_syllabified_check,2022.2.5,Win32,60.0240096,,,,,,,,,,,,,,./stim/p07_syllable_1_falutraigo_hit.wav,p07,falutraigo,hit,fa-lu-trai-go,fa-lu-trai-go,fa-lu-tra-i-go, ,-0.37037037,-0.109953704,1,0,0,2.316,text_option_1,,0,9,9,140,1
6106c0aecdc0c01341f2bf2d,63f3cfca20052e4ae7554ebf,6453c885fb5d54228996df71,2023-05-04_17h01.00.769,ga_syllabified_check,2022.2.5,Win32,60.0240096,,,,,,,,,,,,,,./stim/p06_syllable_1_paluguato_hit.wav,p06,paluguato,hit,pa-lu-gua-to,pa-lu-gua-to,pa-lu-gu-a-to, ,-0.364583333,-0.09837963,1,0,0,2.484,text_option_1,,0,10,10,129,1
6106c0aecdc0c01341f2bf2d,63f3cfca20052e4ae7554ebf,6453c885fb5d54228996df71,2023-05-04_17h01.00.769,ga_syllabified_check,2022.2.5,Win32,60.0240096,,,,,,,,,,,,,,./stim/p06_syllable_1_lliape_hit.wav,p06,lliape,hit,lli-lla-pe,llia-pe,lli-a-pe, ,0.378472222,-0.105324074,1,0,0,1.8,text_option_2,,0,11,11,122,1
6106c0aecdc0c01341f2bf2d,63f3cfca20052e4ae7554ebf,6453c885fb5d54228996df71,2023-05-04_17h01.00.769,ga_syllabified_check,2022.2.5,Win32,60.0240096,,,,,,,,,,,,,,./stim/p05_syllable_1_ruyiola_hit.wav,p05,ruyiola,hit,ru-yio-la,ru-yio-la,ru-yi-o-la, ,-0.431712963,-0.104166667,1,0,0,0.784,text_option_1,,0,12,12,100,1
6106c0aecdc0c01341f2bf2d,63f3cfca20052e4ae7554ebf,6453c885fb5d54228996df71,2023-05-04_17h01.00.769,ga_syllabified_check,2022.2.5,Win32,60.0240096,,,,,,,,,,,,,,./stim/p06_syllable_1_lakapuaisto_hit.wav,p06,lakapuaisto,hit,la-ka-pu-a-is,la-ka-puais-to,la-ka-pu-ais-to,la-ka-pua-is-to,0.041666667,-0.099537037,1,0,0,5.833,text_option_3,,0,13,13,119,1
6106c0aecdc0c01341f2bf2d,63f3cfca20052e4ae7554ebf,6453c885fb5d54228996df71,2023-05-04_17h01.00.769,ga_syllabified_check,2022.2.5,Win32,60.0240096,,,,,,,,,,,,,,./stim/p07_syllable_1_lakabiaisto_hit.wav,p07,lakabiaisto,hit,la-ka-bais-to,la-ka-biais-to,la-ka-bi-ais-to,la-ka-bia-is-to,0.050925926,-0.284722222,1,0,0,5.15,text_option_other,la-ka-ba-isto,0,14,14,142,1
6106c0aecdc0c01341f2bf2d,63f3cfca20052e4ae7554ebf,6453c885fb5d54228996df71,2023-05-04_17h01.00.769,ga_syllabified_check,2022.2.5,Win32,60.0240096,,,,,,,,,,,,,,./stim/p05_syllable_1_paluguato_hit.wav,p05,paluguato,hit,pa-lu-gau-to,pa-lu-gua-to,pa-lu-gu-a-to, ,-0.354166667,-0.099537037,1,0,0,4.484,text_option_1,,0,15,15,95,1
6106c0aecdc0c01341f2bf2d,63f3cfca20052e4ae7554ebf,6453c885fb5d54228996df71,2023-05-04_17h01.00.769,ga_syllabified_check,2022.2.5,Win32,60.0240096,,,,,,,,,,,,,,./stim/p04_syllable_1_payielo_hit.wav,p04,payielo,hit,pa-yie-lo,pa-yie-lo,pa-yi-e-lo, ,-0.380787037,-0.112268519,1,0,0,1.867,text_option_1,,0,16,16,64,1
6106c0aecdc0c01341f2bf2d,63f3cfca20052e4ae7554ebf,6453c885fb5d54228996df71,2023-05-04_17h01.00.769,ga_syllabified_check,2022.2.5,Win32,60.0240096,,,,,,,,,,,,,,./stim/p07_syllable_1_lakaguaisto_hit.wav,p07,lakaguaisto,hit,la-ka-guais-to,la-ka-guais-to,la-ka-gu-ais-to,la-ka-gua-is-to,-0.354166667,-0.111111111,1,0,0,1.651,text_option_1,,0,17,17,149,1
6106c0aecdc0c01341f2bf2d,63f3cfca20052e4ae7554ebf,6453c885fb5d54228996df71,2023-05-04_17h01.00.769,ga_syllabified_check,2022.2.5,Win32,60.0240096,,,,,,,,,,,,,,./stim/p05_syllable_1_rausto_hit.wav,p05,rausto,hit,raus-to,raus-to,ra-us-to, ,-0.354166667,-0.111111111,1,0,0,0.317,text_option_1,,0,18,18,99,1
6106c0aecdc0c01341f2bf2d,63f3cfca20052e4ae7554ebf,6453c885fb5d54228996df71,2023-05-04_17h01.00.769,ga_syllabified_check,2022.2.5,Win32,60.0240096,,,,,,,,,,,,,,./stim/p04_syllable_1_lakapuaisto_hit.wav,p04,lakapuaisto,hit,la-ka-puais-to,la-ka-puais-to,la-ka-pu-ais-to,la-ka-pua-is-to,-0.353009259,-0.111111111,1,0,0,0.767,text_option_1,,0,19,19,51,1
6106c0aecdc0c01341f2bf2d,63f3cfca20052e4ae7554ebf,6453c885fb5d54228996df71,2023-05-04_17h01.00.769,ga_syllabified_check,2022.2.5,Win32,60.0240096,,,,,,,,,,,,,,./stim/p03_syllable_1_lakapiaisto_hit.wav,p03,lakapiaisto,hit,la-ka-piais-to,la-ka-piais-to,la-ka-pi-ais-to,la-ka-pia-is-to,-0.354166667,-0.113425926,1,0,0,1.435,text_option_1,,0,20,20,16,1
6106c0aecdc0c01341f2bf2d,63f3cfca20052e4ae7554ebf,6453c885fb5d54228996df71,2023-05-04_17h01.00.769,ga_syllabified_check,2022.2.5,Win32,60.0240096,,,,,,,,,,,,,,./stim/p08_syllable_1_lakakiaisto_hit.wav,p08,lakakiaisto,hit,la-ka-ki-jas-to,la-ka-kiais-to,la-ka-ki-ais-to,la-ka-kia-is-to,-0.349537037,-0.108796296,1,0,0,2.216,text_option_1,,0,21,21,184,1
6106c0aecdc0c01341f2bf2d,63f3cfca20052e4ae7554ebf,6453c885fb5d54228996df71,2023-05-04_17h01.00.769,ga_syllabified_check,2022.2.5,Win32,60.0240096,,,,,,,,,,,,,,./stim/p05_syllable_1_faluduako_hit.wav,p05,faluduako,hit,fa-lu-ba-ko,fa-lu-dua-ko,fa-lu-du-a-ko, ,0.447916667,-0.094907407,1,0,0,3.299,text_option_2,,0,22,22,70,1
6106c0aecdc0c01341f2bf2d,63f3cfca20052e4ae7554ebf,6453c885fb5d54228996df71,2023-05-04_17h01.00.769,ga_syllabified_check,2022.2.5,Win32,60.0240096,,,,,,,,,,,,,,./stim/p03_syllable_1_paluguato_hit.wav,p03,paluguato,hit,pa-lu-gua,pa-lu-gua-to,pa-lu-gu-a-to, ,-0.33912037,-0.113425926,1,0,0,1.95,text_option_1,,0,23,23,27,1
6106c0aecdc0c01341f2bf2d,63f3cfca20052e4ae7554ebf,6453c885fb5d54228996df71,2023-05-04_17h01.00.769,ga_syllabified_check,2022.2.5,Win32,60.0240096,,,,,,,,,,,,,,./stim/p05_syllable_1_tuliafo_hit.wav,p05,tuliafo,hit,tu-lai-fo,tu-lia-fo,tu-li-a-fo, ,-0.381944444,-0.104166667,1,0,0,1,text_option_1,,0,24,24,101,1
6106c0aecdc0c01341f2bf2d,63f3cfca20052e4ae7554ebf,6453c885fb5d54228996df71,2023-05-04_17h01.00.769,ga_syllabified_check,2022.2.5,Win32,60.0240096,,,,,,,,,,,,,,./stim/p04_syllable_1_rausto_hit.wav,p04,rausto,hit,raus-to,raus-to,ra-us-to, ,-0.381944444,-0.104166667,1,0,0,2.084,text_option_1,,0,25,25,65,1
6106c0aecdc0c01341f2bf2d,63f3cfca20052e4ae7554ebf,6453c885fb5d54228996df71,2023-05-04_17h01.00.769,ga_syllabified_check,2022.2.5,Win32,60.0240096,,,,,,,,,,,,,,./stim/p03_syllable_1_palutrauco_hit.wav,p03,palutrauco,hit,pa-lu-trau-co,pa-lu-trau-co,pa-lu-tra-u-co, ,-0.381944444,-0.104166667,1,0,0,2.518,text_option_1,,0,26,26,29,1
6106c0aecdc0c01341f2bf2d,63f3cfca20052e4ae7554ebf,6453c885fb5d54228996df71,2023-05-04_17h01.00.769,ga_syllabified_check,2022.2.5,Win32,60.0240096,,,,,,,,,,,,,,./stim/p07_syllable_1_ruyiola_hit.wav,p07,ruyiola,hit,ru-yio-la,ru-yio-la,ru-yi-o-la, ,-0.381944444,-0.104166667,1,0,0,1.284,text_option_1,,0,27,27,168,1
6106c0aecdc0c01341f2bf2d,63f3cfca20052e4ae7554ebf,6453c885fb5d54228996df71,2023-05-04_17h01.00.769,ga_syllabified_check,2022.2.5,Win32,60.0240096,,,,,,,,,,,,,,./stim/p06_syllable_1_rausto_hit.wav,p06,rausto,hit,ra-us-to,raus-to,ra-us-to, ,0.449074074,-0.111111111,1,0,0,2.151,text_option_2,,0,28,28,133,1
6106c0aecdc0c01341f2bf2d,63f3cfca20052e4ae7554ebf,6453c885fb5d54228996df71,2023-05-04_17h01.00.769,ga_syllabified_check,2022.2.5,Win32,60.0240096,,,,,,,,,,,,,,./stim/p08_syllable_1_falufaisto_hit.wav,p08,falufaisto,hit,fa-lu-fais-to,fa-lu-fais-to,fa-lu-fa-is-to, ,-0.350694444,-0.105324074,1,0,0,2.166,text_option_1,,0,29,29,173,1
6106c0aecdc0c01341f2bf2d,63f3cfca20052e4ae7554ebf,6453c885fb5d54228996df71,2023-05-04_17h01.00.769,ga_syllabified_check,2022.2.5,Win32,60.0240096,,,,,,,,,,,,,,./stim/p04_syllable_1_lakagiaisto_hit.wav,p04,lakagiaisto,hit,la-ka-giais-to,la-ka-giais-to,la-ka-gi-ais-to,la-ka-gia-is-to,-0.386574074,-0.091435185,1,0,0,1.6,text_option_1,,0,30,30,46,1
6106c0aecdc0c01341f2bf2d,63f3cfca20052e4ae7554ebf,6453c885fb5d54228996df71,2023-05-04_17h01.00.769,ga_syllabified_check,2022.2.5,Win32,60.0240096,,,,,,,,,,,,,,./stim/p07_syllable_1_lakagiaisto_hit.wav,p07,lakagiaisto,hit,la-ka-gais-to,la-ka-giais-to,la-ka-gi-ais-to,la-ka-gia-is-to,0.043981481,-0.113425926,1,0,0,5.55,text_option_3,,0,31,31,148,1
6106c0aecdc0c01341f2bf2d,63f3cfca20052e4ae7554ebf,6453c885fb5d54228996df71,2023-05-04_17h01.00.769,ga_syllabified_check,2022.2.5,Win32,60.0240096,,,,,,,,,,,,,,./stim/p08_syllable_1_lakakuaisto_hit.wav,p08,lakakuaisto,hit,la-ka-ku-ais-to,la-ka-kuais-to,la-ka-ku-ais-to,la-ka-kua-is-to,-0.328703704,-0.109953704,1,0,0,2.7,text_option_1,,0,32,32,185,1
6106c0aecdc0c01341f2bf2d,63f3cfca20052e4ae7554ebf,6453c885fb5d54228996df71,2023-05-04_17h01.00.769,ga_syllabified_check,2022.2.5,Win32,60.0240096,,,,,,,,,,,,,,./stim/p05_syllable_1_nhiape_hit.wav,p05,ñiape,hit,nhia-pe,ñia-pe,ñi-a-pe, ,-0.366898148,-0.099537037,1,0,0,1.116,text_option_1,,0,33,33,91,1
6106c0aecdc0c01341f2bf2d,63f3cfca20052e4ae7554ebf,6453c885fb5d54228996df71,2023-05-04_17h01.00.769,ga_syllabified_check,2022.2.5,Win32,60.0240096,,,,,,,,,,,,,,./stim/p03_syllable_1_mebochiana_hit.wav,p03,mebochiana,hit,me-bo-chia-na,me-bo-chia-na,me-bo-chi-a-na, ,-0.353009259,-0.111111111,1,0,0,2.049,text_option_1,,0,34,34,22,1
6106c0aecdc0c01341f2bf2d,63f3cfca20052e4ae7554ebf,6453c885fb5d54228996df71,2023-05-04_17h01.00.769,ga_syllabified_check,2022.2.5,Win32,60.0240096,,,,,,,,,,,,,,./stim/p04_syllable_1_palufauro_hit.wav,p04,palufauro,hit,pa-lu-fau-ro,pa-lu-fau-ro,pa-lu-fa-u-ro, ,-0.353009259,-0.111111111,1,0,0,1.75,text_option_1,,0,35,35,59,1
6106c0aecdc0c01341f2bf2d,63f3cfca20052e4ae7554ebf,6453c885fb5d54228996df71,2023-05-04_17h01.00.769,ga_syllabified_check,2022.2.5,Win32,60.0240096,,,,,,,,,,,,,,./stim/p06_syllable_1_ruyiola_hit.wav,p06,ruyiola,hit,ru-yi-o-la,ru-yio-la,ru-yi-o-la, ,0.398148148,-0.105324074,1,0,0,2.984,text_option_2,,0,36,36,134,1
6106c0aecdc0c01341f2bf2d,63f3cfca20052e4ae7554ebf,6453c885fb5d54228996df71,2023-05-04_17h01.00.769,ga_syllabified_check,2022.2.5,Win32,60.0240096,,,,,,,,,,,,,,./stim/p08_syllable_1_lakabiaisto_hit.wav,p08,lakabiaisto,hit,la-ka-bi-as-to,la-ka-biais-to,la-ka-bi-ais-to,la-ka-bia-is-to,0.039351852,-0.101851852,1,0,0,3.532,text_option_3,,0,37,37,176,1
6106c0aecdc0c01341f2bf2d,63f3cfca20052e4ae7554ebf,6453c885fb5d54228996df71,2023-05-04_17h01.00.769,ga_syllabified_check,2022.2.5,Win32,60.0240096,,,,,,,,,,,,,,./stim/p06_syllable_1_falufaisto_hit.wav,p06,falufaisto,hit,fa-lu-fa-is-to,fa-lu-fais-to,fa-lu-fa-is-to, ,0.368055556,-0.090277778,1,0,0,3.483,text_option_2,,0,38,38,105,1
6106c0aecdc0c01341f2bf2d,63f3cfca20052e4ae7554ebf,6453c885fb5d54228996df71,2023-05-04_17h01.00.769,ga_syllabified_check,2022.2.5,Win32,60.0240096,,,,,,,,,,,,,,./stim/p05_syllable_1_falufaisto_hit.wav,p05,falufaisto,hit,fa-lu-fais-to,fa-lu-fais-to,fa-lu-fa-is-to, ,-0.446759259,-0.103009259,1,0,0,0.648,text_option_1,,0,39,39,71,1
6106c0aecdc0c01341f2bf2d,63f3cfca20052e4ae7554ebf,6453c885fb5d54228996df71,2023-05-04_17h01.00.769,ga_syllabified_check,2022.2.5,Win32,60.0240096,,,,,,,,,,,,,,./stim/p03_syllable_1_palufauro_hit.wav,p03,palufauro,hit,pa-lu-fau-ro,pa-lu-fau-ro,pa-lu-fa-u-ro, ,-0.350694444,-0.112268519,1,0,0,1.718,text_option_1,,0,40,40,25,1
6106c0aecdc0c01341f2bf2d,63f3cfca20052e4ae7554ebf,6453c885fb5d54228996df71,2023-05-04_17h01.00.769,ga_syllabified_check,2022.2.5,Win32,60.0240096,,,,,,,,,,,,,,./stim/p07_syllable_1_nhiape_hit.wav,p07,ñiape,hit,nhia-pe,ñia-pe,ñi-a-pe, ,-0.363425926,-0.112268519,1,0,0,0.951,text_option_1,,0,41,41,159,1
6106c0aecdc0c01341f2bf2d,63f3cfca20052e4ae7554ebf,6453c885fb5d54228996df71,2023-05-04_17h01.00.769,ga_syllabified_check,2022.2.5,Win32,60.0240096,,,,,,,,,,,,,,./stim/p04_syllable_1_lakafuaisto_hit.wav,p04,lakafuaisto,hit,la-ka-fuais-to,la-ka-fuais-to,la-ka-fu-ais-to,la-ka-fua-is-to,-0.364583333,-0.112268519,1,0,0,0.601,text_option_1,,0,42,42,45,1
6106c0aecdc0c01341f2bf2d,63f3cfca20052e4ae7554ebf,6453c885fb5d54228996df71,2023-05-04_17h01.00.769,ga_syllabified_check,2022.2.5,Win32,60.0240096,,,,,,,,,,,,,,./stim/p05_syllable_1_lakatuaisto_hit.wav,p05,lakatuaisto,hit,la-ka-tais-to,la-ka-tuais-to,la-ka-tu-ais-to,la-ka-tua-is-to,0.010416667,-0.3125,1,0,0,2.617,text_option_other,la-ka-tais-to,0,43,43,87,1
6106c0aecdc0c01341f2bf2d,63f3cfca20052e4ae7554ebf,6453c885fb5d54228996df71,2023-05-04_17h01.00.769,ga_syllabified_check,2022.2.5,Win32,60.0240096,,,,,,,,,,,,,,./stim/p03_syllable_1_lakafiaisto_hit.wav,p03,lakafiaisto,hit,la-ka-fiais-to,la-ka-fiais-to,la-ka-fi-ais-to,la-ka-fia-is-to,-0.344907407,-0.099537037,1,0,0,1.6,text_option_1,,0,44,44,10,1
6106c0aecdc0c01341f2bf2d,63f3cfca20052e4ae7554ebf,6453c885fb5d54228996df71,2023-05-04_17h01.00.769,ga_syllabified_check,2022.2.5,Win32,60.0240096,,,,,,,,,,,,,,./stim/p03_syllable_1_ruyiola_hit.wav,p03,ruyiola,hit,ru-yio-la,ru-yio-la,ru-yi-o-la, ,-0.363425926,-0.107638889,1,0,0,1.051,text_option_1,,0,45,45,32,1
6106c0aecdc0c01341f2bf2d,63f3cfca20052e4ae7554ebf,6453c885fb5d54228996df71,2023-05-04_17h01.00.769,ga_syllabified_check,2022.2.5,Win32,60.0240096,,,,,,,,,,,,,,./stim/p03_syllable_1_nhiape_hit.wav,p03,ñiape,hit,nhia-pe,ñia-pe,ñi-a-pe, ,-0.363425926,-0.107638889,1,0,0,0.534,text_option_1,,0,46,46,23,1
6106c0aecdc0c01341f2bf2d,63f3cfca20052e4ae7554ebf,6453c885fb5d54228996df71,2023-05-04_17h01.00.769,ga_syllabified_check,2022.2.5,Win32,60.0240096,,,,,,,,,,,,,,./stim/p08_syllable_1_lakatiaisto_hit.wav,p08,lakatiaisto,hit,la-ka-ti-as-to,la-ka-tiais-to,la-ka-ti-ais-to,la-ka-tia-is-to,-0.364583333,-0.104166667,1,0,0,3.583,text_option_1,,0,47,47,188,1
6106c0aecdc0c01341f2bf2d,63f3cfca20052e4ae7554ebf,6453c885fb5d54228996df71,2023-05-04_17h01.00.769,ga_syllabified_check,2022.2.5,Win32,60.0240096,,,,,,,,,,,,,,./stim/p07_syllable_1_palufauto_hit.wav,p07,palufauto,hit,pa-lu-fau-to,pa-lu-fau-to,pa-lu-fa-u-to, ,-0.424768519,-0.097222222,1,0,0,1.433,text_option_1,,0,48,48,162,1
6106c0aecdc0c01341f2bf2d,63f3cfca20052e4ae7554ebf,6453c885fb5d54228996df71,2023-05-04_17h01.00.769,ga_syllabified_check,2022.2.5,Win32,60.0240096,,,,,,,,,,,,,,./stim/p08_syllable_1_mebochiana_hit.wav,p08,mebochiana,hit,me-bo-chi-a-na,me-bo-chia-na,me-bo-chi-a-na, ,0.46875,-0.108796296,1,0,0,1.999,text_option_2,,0,49,49,192,1
6106c0aecdc0c01341f2bf2d,63f3cfca20052e4ae7554ebf,6453c885fb5d54228996df71,2023-05-04_17h01.00.769,ga_syllabified_check,2022.2.5,Win32,60.0240096,,,,,,,,,,,,,,./stim/p08_syllable_1_lakafiaisto_hit.wav,p08,lakafiaisto,hit,la-ka-fi-as-to,la-ka-fiais-to,la-ka-fi-ais-to,la-ka-fia-is-to,-0.045138889,-0.104166667,1,0,0,3.767,text_option_3,,0,50,50,180,1
6106c0aecdc0c01341f2bf2d,63f3cfca20052e4ae7554ebf,6453c885fb5d54228996df71,2023-05-04_17h01.00.769,ga_syllabified_check,2022.2.5,Win32,60.0240096,,,,,,,,,,,,,,./stim/p06_syllable_1_lakafuaisto_hit.wav,p06,lakafuaisto,hit,la-ka-fu-a-is,la-ka-fuais-to,la-ka-fu-ais-to,la-ka-fua-is-to,-0.331018519,-0.113425926,1,0,0,4.266,text_option_1,,0,51,51,113,1
6106c0aecdc0c01341f2bf2d,63f3cfca20052e4ae7554ebf,6453c885fb5d54228996df71,2023-05-04_17h01.00.769,ga_syllabified_check,2022.2.5,Win32,60.0240096,,,,,,,,,,,,,,./stim/p08_syllable_1_lakaduaisto_hit.wav,p08,lakaduaisto,hit,la-ka-du-ais-to,la-ka-duais-to,la-ka-du-ais-to,la-ka-dua-is-to,0.063657407,-0.104166667,1,0,0,3.1,text_option_3,,0,52,52,179,1
6106c0aecdc0c01341f2bf2d,63f3cfca20052e4ae7554ebf,6453c885fb5d54228996df71,2023-05-04_17h01.00.769,ga_syllabified_check,2022.2.5,Win32,60.0240096,,,,,,,,,,,,,,./stim/p07_syllable_1_palufauro_hit.wav,p07,palufauro,hit,pa-lu-fau-ro,pa-lu-fau-ro,pa-lu-fa-u-ro, ,-0.314814815,-0.099537037,1,0,0,1.701,text_option_1,,0,53,53,161,1
6106c0aecdc0c01341f2bf2d,63f3cfca20052e4ae7554ebf,6453c885fb5d54228996df71,2023-05-04_17h01.00.769,ga_syllabified_check,2022.2.5,Win32,60.0240096,,,,,,,,,,,,,,./stim/p06_syllable_1_lakakiaisto_hit.wav,p06,lakakiaisto,hit,la-ka-kia-is-to,la-ka-kiais-to,la-ka-ki-ais-to,la-ka-kia-is-to,-0.351851852,-0.109953704,1,0,0,4.085,text_option_1,,0,54,54,116,1
6106c0aecdc0c01341f2bf2d,63f3cfca20052e4ae7554ebf,6453c885fb5d54228996df71,2023-05-04_17h01.00.769,ga_syllabified_check,2022.2.5,Win32,60.0240096,,,,,,,,,,,,,,./stim/p04_syllable_1_paluguato_hit.wav,p04,paluguato,hit,pa-lu-gua,pa-lu-gua-to,pa-lu-gu-a-to, ,-0.046296296,-0.277777778,1,0,0,4.017,text_option_other,pa-lu-gua,0,55,55,61,1
6106c0aecdc0c01341f2bf2d,63f3cfca20052e4ae7554ebf,6453c885fb5d54228996df71,2023-05-04_17h01.00.769,ga_syllabified_check,2022.2.5,Win32,60.0240096,,,,,,,,,,,,,,./stim/p03_syllable_1_tuliafo_hit.wav,p03,tuliafo,hit,tu-lia-fo,tu-lia-fo,tu-li-a-fo, ,-0.368055556,-0.099537037,1,0,0,1.1,text_option_1,,0,56,56,33,1
6106c0aecdc0c01341f2bf2d,63f3cfca20052e4ae7554ebf,6453c885fb5d54228996df71,2023-05-04_17h01.00.769,ga_syllabified_check,2022.2.5,Win32,60.0240096,,,,,,,,,,,,,,./stim/p05_syllable_1_lakatiaisto_hit.wav,p05,lakatiaisto,hit,la-ka-ti-ais-to,la-ka-tiais-to,la-ka-ti-ais-to,la-ka-tia-is-to,-0.356481481,-0.112268519,1,0,0,1.384,text_option_1,,0,57,57,86,1
6106c0aecdc0c01341f2bf2d,63f3cfca20052e4ae7554ebf,6453c885fb5d54228996df71,2023-05-04_17h01.00.769,ga_syllabified_check,2022.2.5,Win32,60.0240096,,,,,,,,,,,,,,./stim/p06_syllable_1_lakatiaisto_hit.wav,p06,lakatiaisto,hit,la-ka-pia-is-to,la-ka-tiais-to,la-ka-ti-ais-to,la-ka-tia-is-to,0.042824074,-0.104166667,1,0,0,3.416,text_option_3,,0,58,58,120,1
6106c0aecdc0c01341f2bf2d,63f3cfca20052e4ae7554ebf,6453c885fb5d54228996df71,2023-05-04_17h01.00.769,ga_syllabified_check,2022.2.5,Win32,60.0240096,,,,,,,,,,,,,,./stim/p06_syllable_1_pachialo_hit.wav,p06,pachialo,hit,pa-shi-a-lo,pa-chia-lo,pa-chi-a-lo, ,0.431712963,-0.108796296,1,0,0,1.483,text_option_2,,0,59,59,126,1
6106c0aecdc0c01341f2bf2d,63f3cfca20052e4ae7554ebf,6453c885fb5d54228996df71,2023-05-04_17h01.00.769,ga_syllabified_check,2022.2.5,Win32,60.0240096,,,,,,,,,,,,,,./stim/p04_syllable_1_tuliafo_hit.wav,p04,tuliafo,hit,tu-lia-fo,tu-lia-fo,tu-li-a-fo, ,0.371527778,-0.115740741,1,0,0,0.683,text_option_2,,0,60,60,67,1
6106c0aecdc0c01341f2bf2d,63f3cfca20052e4ae7554ebf,6453c885fb5d54228996df71,2023-05-04_17h01.00.769,ga_syllabified_check,2022.2.5,Win32,60.0240096,,,,,,,,,,,,,,./stim/p08_syllable_1_lakadiaisto_hit.wav,p08,lakadiaisto,hit,la-ka-di-jas-to,la-ka-diais-to,la-ka-di-ais-to,la-ka-dia-is-to,-0.377314815,-0.104166667,1,0,0,2.767,text_option_1,,0,61,61,178,1
6106c0aecdc0c01341f2bf2d,63f3cfca20052e4ae7554ebf,6453c885fb5d54228996df71,2023-05-04_17h01.00.769,ga_syllabified_check,2022.2.5,Win32,60.0240096,,,,,,,,,,,,,,./stim/p03_syllable_1_chiaba_hit.wav,p03,chiaba,hit,chia-ba,chia-ba,chi-a-ba, ,-0.372685185,-0.103009259,1,0,0,0.769,text_option_1,,0,62,62,0,1
6106c0aecdc0c01341f2bf2d,63f3cfca20052e4ae7554ebf,6453c885fb5d54228996df71,2023-05-04_17h01.00.769,ga_syllabified_check,2022.2.5,Win32,60.0240096,,,,,,,,,,,,,,./stim/p06_syllable_1_lakakuaisto_hit.wav,p06,lakakuaisto,hit,la-ka-ku-a-is,la-ka-kuais-to,la-ka-ku-ais-to,la-ka-kua-is-to,0.001157407,-0.12037037,1,0,0,2.367,text_option_3,,0,63,63,117,1
6106c0aecdc0c01341f2bf2d,63f3cfca20052e4ae7554ebf,6453c885fb5d54228996df71,2023-05-04_17h01.00.769,ga_syllabified_check,2022.2.5,Win32,60.0240096,,,,,,,,,,,,,,./stim/p04_syllable_1_lakaguaisto_hit.wav,p04,lakaguaisto,hit,la-ka-guais-to,la-ka-guais-to,la-ka-gu-ais-to,la-ka-gua-is-to,0.053240741,-0.118055556,1,0,0,3.199,text_option_3,,0,64,64,47,1
6106c0aecdc0c01341f2bf2d,63f3cfca20052e4ae7554ebf,6453c885fb5d54228996df71,2023-05-04_17h01.00.769,ga_syllabified_check,2022.2.5,Win32,60.0240096,,,,,,,,,,,,,,./stim/p03_syllable_1_flauro_hit.wav,p03,flauro,hit,flau-ro,flau-ro,fla-u-ro, ,-0.368055556,-0.109953704,1,0,0,0.966,text_option_1,,0,65,65,5,1
6106c0aecdc0c01341f2bf2d,63f3cfca20052e4ae7554ebf,6453c885fb5d54228996df71,2023-05-04_17h01.00.769,ga_syllabified_check,2022.2.5,Win32,60.0240096,,,,,,,,,,,,,,./stim/p08_syllable_1_manhiala_hit.wav,p08,mañiala,hit,ma-nhia-la,ma-ñia-la,ma-ñi-a-la, ,-0.368055556,-0.109953704,1,0,0,2.401,text_option_1,,0,66,66,191,1
6106c0aecdc0c01341f2bf2d,63f3cfca20052e4ae7554ebf,6453c885fb5d54228996df71,2023-05-04_17h01.00.769,ga_syllabified_check,2022.2.5,Win32,60.0240096,,,,,,,,,,,,,,./stim/p03_syllable_1_palufauto_hit.wav,p03,palufauto,hit,pa-lu-fau,pa-lu-fau-to,pa-lu-fa-u-to, ,-0.368055556,-0.109953704,1,0,0,0.95,text_option_1,,0,67,67,26,1
6106c0aecdc0c01341f2bf2d,63f3cfca20052e4ae7554ebf,6453c885fb5d54228996df71,2023-05-04_17h01.00.769,ga_syllabified_check,2022.2.5,Win32,60.0240096,,,,,,,,,,,,,,./stim/p07_syllable_1_faluduako_hit.wav,p07,faluduako,hit,fa-lu-dua-ko,fa-lu-dua-ko,fa-lu-du-a-ko, ,-0.368055556,-0.109953704,1,0,0,1.384,text_option_1,,0,68,68,138,1
6106c0aecdc0c01341f2bf2d,63f3cfca20052e4ae7554ebf,6453c885fb5d54228996df71,2023-05-04_17h01.00.769,ga_syllabified_check,2022.2.5,Win32,60.0240096,,,,,,,,,,,,,,./stim/p08_syllable_1_faluduako_hit.wav,p08,faluduako,hit,fa-lu-duai-ko,fa-lu-dua-ko,fa-lu-du-a-ko, ,0.045138889,-0.306712963,1,0,0,2.783,text_option_other,fa-lua-duai-ko,0,69,69,172,1
6106c0aecdc0c01341f2bf2d,63f3cfca20052e4ae7554ebf,6453c885fb5d54228996df71,2023-05-04_17h01.00.769,ga_syllabified_check,2022.2.5,Win32,60.0240096,,,,,,,,,,,,,,./stim/p06_syllable_1_nhiape_hit.wav,p06,ñiape,hit,nhi-a-pe,ñia-pe,ñi-a-pe, ,0.394675926,-0.113425926,1,0,0,1.751,text_option_2,,0,70,70,125,1
6106c0aecdc0c01341f2bf2d,63f3cfca20052e4ae7554ebf,6453c885fb5d54228996df71,2023-05-04_17h01.00.769,ga_syllabified_check,2022.2.5,Win32,60.0240096,,,,,,,,,,,,,,./stim/p06_syllable_1_lakabuaisto_hit.wav,p06,lakabuaisto,hit,la-ka-bu-a-is,la-ka-buais-to,la-ka-bu-ais-to,la-ka-bua-is-to,-0.042824074,-0.305555556,1,0,0,4.767,text_option_other,la-ka-bu-a-is-to,0,71,71,109,1
6106c0aecdc0c01341f2bf2d,63f3cfca20052e4ae7554ebf,6453c885fb5d54228996df71,2023-05-04_17h01.00.769,ga_syllabified_check,2022.2.5,Win32,60.0240096,,,,,,,,,,,,,,./stim/p08_syllable_1_lliape_hit.wav,p08,lliape,hit,li-a-pe,llia-pe,lli-a-pe, ,0.456018519,-0.112268519,1,0,0,1.816,text_option_2,,0,72,72,190,1
6106c0aecdc0c01341f2bf2d,63f3cfca20052e4ae7554ebf,6453c885fb5d54228996df71,2023-05-04_17h01.00.769,ga_syllabified_check,2022.2.5,Win32,60.0240096,,,,,,,,,,,,,,./stim/p07_syllable_1_chiaba_hit.wav,p07,chiaba,hit,chia-ba,chia-ba,chi-a-ba, ,-0.395833333,-0.114583333,1,0,0,0.616,text_option_1,,0,73,73,136,1
6106c0aecdc0c01341f2bf2d,63f3cfca20052e4ae7554ebf,6453c885fb5d54228996df71,2023-05-04_17h01.00.769,ga_syllabified_check,2022.2.5,Win32,60.0240096,,,,,,,,,,,,,,./stim/p05_syllable_1_lakaguaisto_hit.wav,p05,lakaguaisto,hit,la-ka-gais,la-ka-guais-to,la-ka-gu-ais-to,la-ka-gua-is-to,-0.362268519,-0.116898148,1,0,0,2.533,text_option_1,,0,74,74,81,1
6106c0aecdc0c01341f2bf2d,63f3cfca20052e4ae7554ebf,6453c885fb5d54228996df71,2023-05-04_17h01.00.769,ga_syllabified_check,2022.2.5,Win32,60.0240096,,,,,,,,,,,,,,./stim/p03_syllable_1_lakaduaisto_hit.wav,p03,lakaduaisto,hit,la-ka-duais-to,la-ka-duais-to,la-ka-du-ais-to,la-ka-dua-is-to,-0.319444444,-0.104166667,1,0,0,3.55,text_option_1,,0,75,75,9,1
6106c0aecdc0c01341f2bf2d,63f3cfca20052e4ae7554ebf,6453c885fb5d54228996df71,2023-05-04_17h01.00.769,ga_syllabified_check,2022.2.5,Win32,60.0240096,,,,,,,,,,,,,,./stim/p04_syllable_1_chiaba_hit.wav,p04,chiaba,hit,chia-ba,chia-ba,chi-a-ba, ,-0.423611111,-0.104166667,1,0,0,0.416,text_option_1,,0,76,76,34,1
6106c0aecdc0c01341f2bf2d,63f3cfca20052e4ae7554ebf,6453c885fb5d54228996df71,2023-05-04_17h01.00.769,ga_syllabified_check,2022.2.5,Win32,60.0240096,,,,,,,,,,,,,,./stim/p04_syllable_1_lakabuaisto_hit.wav,p04,lakabuaisto,hit,la-ka-buais-to,la-ka-buais-to,la-ka-bu-ais-to,la-ka-bua-is-to,-0.381944444,-0.112268519,1,0,0,1.301,text_option_1,,0,77,77,41,1
6106c0aecdc0c01341f2bf2d,63f3cfca20052e4ae7554ebf,6453c885fb5d54228996df71,2023-05-04_17h01.00.769,ga_syllabified_check,2022.2.5,Win32,60.0240096,,,,,,,,,,,,,,./stim/p03_syllable_1_lakatuaisto_hit.wav,p03,lakatuaisto,hit,la-ka-tuais-to,la-ka-tuais-to,la-ka-tu-ais-to,la-ka-tua-is-to,-0.381944444,-0.112268519,1,0,0,1.134,text_option_1,,0,78,78,19,1
6106c0aecdc0c01341f2bf2d,63f3cfca20052e4ae7554ebf,6453c885fb5d54228996df71,2023-05-04_17h01.00.769,ga_syllabified_check,2022.2.5,Win32,60.0240096,,,,,,,,,,,,,,./stim/p07_syllable_1_lakatuaisto_hit.wav,p07,lakatuaisto,hit,la-ka-tuais-to,la-ka-tuais-to,la-ka-tu-ais-to,la-ka-tua-is-to,-0.349537037,-0.115740741,1,0,0,2.45,text_option_1,,0,79,79,155,1
6106c0aecdc0c01341f2bf2d,63f3cfca20052e4ae7554ebf,6453c885fb5d54228996df71,2023-05-04_17h01.00.769,ga_syllabified_check,2022.2.5,Win32,60.0240096,,,,,,,,,,,,,,./stim/p05_syllable_1_costonhialo_hit.wav,p05,costoñialo,hit,cos-to-nhia-lo,cos-to-ñia-lo,cos-to-ñi-a-lo, ,-0.349537037,-0.115740741,1,0,0,1.467,text_option_1,,0,80,80,69,1
6106c0aecdc0c01341f2bf2d,63f3cfca20052e4ae7554ebf,6453c885fb5d54228996df71,2023-05-04_17h01.00.769,ga_syllabified_check,2022.2.5,Win32,60.0240096,,,,,,,,,,,,,,./stim/p05_syllable_1_manhiala_hit.wav,p05,mañiala,hit,ma-nhia-la,ma-ñia-la,ma-ñi-a-la, ,-0.349537037,-0.115740741,1,0,0,0.383,text_option_1,,0,81,81,89,1
6106c0aecdc0c01341f2bf2d,63f3cfca20052e4ae7554ebf,6453c885fb5d54228996df71,2023-05-04_17h01.00.769,ga_syllabified_check,2022.2.5,Win32,60.0240096,,,,,,,,,,,,,,./stim/p04_syllable_1_palutrauco_hit.wav,p04,palutrauco,hit,pa-lu-trau-co,pa-lu-trau-co,pa-lu-tra-u-co, ,-0.349537037,-0.115740741,1,0,0,1.051,text_option_1,,0,82,82,63,1
6106c0aecdc0c01341f2bf2d,63f3cfca20052e4ae7554ebf,6453c885fb5d54228996df71,2023-05-04_17h01.00.769,ga_syllabified_check,2022.2.5,Win32,60.0240096,,,,,,,,,,,,,,./stim/p08_syllable_1_paluguato_hit.wav,p08,paluguato,hit,pa-lu-gua-to,pa-lu-gua-to,pa-lu-gu-a-to, ,-0.349537037,-0.115740741,1,0,0,1.533,text_option_1,,0,83,83,197,1
6106c0aecdc0c01341f2bf2d,63f3cfca20052e4ae7554ebf,6453c885fb5d54228996df71,2023-05-04_17h01.00.769,ga_syllabified_check,2022.2.5,Win32,60.0240096,,,,,,,,,,,,,,./stim/p05_syllable_1_palufauto_hit.wav,p05,palufauto,hit,pa-lu-fau-to,pa-lu-fau-to,pa-lu-fa-u-to, ,-0.349537037,-0.115740741,1,0,0,1,text_option_1,,0,84,84,94,1
6106c0aecdc0c01341f2bf2d,63f3cfca20052e4ae7554ebf,6453c885fb5d54228996df71,2023-05-04_17h01.00.769,ga_syllabified_check,2022.2.5,Win32,60.0240096,,,,,,,,,,,,,,./stim/p05_syllable_1_palutrauco_hit.wav,p05,palutrauco,hit,pa-lu-trai-co,pa-lu-trau-co,pa-lu-tra-u-co, ,0.030092593,-0.306712963,1,0,0,4.317,text_option_other,pa-lu-tra-ico,0,85,85,97,1
6106c0aecdc0c01341f2bf2d,63f3cfca20052e4ae7554ebf,6453c885fb5d54228996df71,2023-05-04_17h01.00.769,ga_syllabified_check,2022.2.5,Win32,60.0240096,,,,,,,,,,,,,,./stim/p04_syllable_1_lakatuaisto_hit.wav,p04,lakatuaisto,hit,la-ka-kuais-to,la-ka-tuais-to,la-ka-tu-ais-to,la-ka-tua-is-to,-0.356481481,-0.107638889,1,0,0,1.133,text_option_1,,0,86,86,53,1
6106c0aecdc0c01341f2bf2d,63f3cfca20052e4ae7554ebf,6453c885fb5d54228996df71,2023-05-04_17h01.00.769,ga_syllabified_check,2022.2.5,Win32,60.0240096,,,,,,,,,,,,,,./stim/p06_syllable_1_flauro_hit.wav,p06,flauro,hit,fla-u-ro,flau-ro,fla-u-ro, ,0.415509259,-0.111111111,1,0,0,1.484,text_option_2,,0,87,87,107,1
6106c0aecdc0c01341f2bf2d,63f3cfca20052e4ae7554ebf,6453c885fb5d54228996df71,2023-05-04_17h01.00.769,ga_syllabified_check,2022.2.5,Win32,60.0240096,,,,,,,,,,,,,,./stim/p05_syllable_1_falutraigo_hit.wav,p05,falutraigo,hit,fa-lu-trai-go,fa-lu-trai-go,fa-lu-tra-i-go, ,-0.445601852,-0.115740741,1,0,0,1.967,text_option_1,,0,88,88,72,1
6106c0aecdc0c01341f2bf2d,63f3cfca20052e4ae7554ebf,6453c885fb5d54228996df71,2023-05-04_17h01.00.769,ga_syllabified_check,2022.2.5,Win32,60.0240096,,,,,,,,,,,,,,./stim/p07_syllable_1_palumaisto_hit.wav,p07,palumaisto,hit,pa-lu-mais-to,pa-lu-mais-to,pa-lu-ma-is-to, ,-0.390046296,-0.091435185,1,0,0,2.2,text_option_1,,0,89,89,164,1
6106c0aecdc0c01341f2bf2d,63f3cfca20052e4ae7554ebf,6453c885fb5d54228996df71,2023-05-04_17h01.00.769,ga_syllabified_check,2022.2.5,Win32,60.0240096,,,,,,,,,,,,,,./stim/p07_syllable_1_pachialo_hit.wav,p07,pachialo,hit,pa-cha-lo,pa-chia-lo,pa-chi-a-lo, ,-0.37962963,-0.103009259,1,0,0,1.249,text_option_1,,0,90,90,160,1
6106c0aecdc0c01341f2bf2d,63f3cfca20052e4ae7554ebf,6453c885fb5d54228996df71,2023-05-04_17h01.00.769,ga_syllabified_check,2022.2.5,Win32,60.0240096,,,,,,,,,,,,,,./stim/p04_syllable_1_costonhialo_hit.wav,p04,costoñialo,hit,cos-to-nhia-lo,cos-to-ñia-lo,cos-to-ñi-a-lo, ,-0.349537037,-0.111111111,1,0,0,1.017,text_option_1,,0,91,91,35,1
6106c0aecdc0c01341f2bf2d,63f3cfca20052e4ae7554ebf,6453c885fb5d54228996df71,2023-05-04_17h01.00.769,ga_syllabified_check,2022.2.5,Win32,60.0240096,,,,,,,,,,,,,,./stim/p04_syllable_1_mebochiana_hit.wav,p04,mebochiana,hit,me-bo-chia-na,me-bo-chia-na,me-bo-chi-a-na, ,-0.349537037,-0.111111111,1,0,0,1.15,text_option_1,,0,92,92,56,1
6106c0aecdc0c01341f2bf2d,63f3cfca20052e4ae7554ebf,6453c885fb5d54228996df71,2023-05-04_17h01.00.769,ga_syllabified_check,2022.2.5,Win32,60.0240096,,,,,,,,,,,,,,./stim/p07_syllable_1_flauro_hit.wav,p07,flauro,hit,flau-ro,flau-ro,fla-u-ro, ,-0.363425926,-0.113425926,1,0,0,0.817,text_option_1,,0,93,93,141,1
6106c0aecdc0c01341f2bf2d,63f3cfca20052e4ae7554ebf,6453c885fb5d54228996df71,2023-05-04_17h01.00.769,ga_syllabified_check,2022.2.5,Win32,60.0240096,,,,,,,,,,,,,,./stim/p08_syllable_1_lakaguaisto_hit.wav,p08,lakaguaisto,hit,la-ka-gu-ais-to,la-ka-guais-to,la-ka-gu-ais-to,la-ka-gua-is-to,0.050925926,-0.114583333,1,0,0,2.201,text_option_3,,0,94,94,183,1
6106c0aecdc0c01341f2bf2d,63f3cfca20052e4ae7554ebf,6453c885fb5d54228996df71,2023-05-04_17h01.00.769,ga_syllabified_check,2022.2.5,Win32,60.0240096,,,,,,,,,,,,,,./stim/p04_syllable_1_pachialo_hit.wav,p04,pachialo,hit,pa-chia-lo,pa-chia-lo,pa-chi-a-lo, ,-0.369212963,-0.114583333,1,0,0,0.6,text_option_1,,0,95,95,58,1
6106c0aecdc0c01341f2bf2d,63f3cfca20052e4ae7554ebf,6453c885fb5d54228996df71,2023-05-04_17h01.00.769,ga_syllabified_check,2022.2.5,Win32,60.0240096,,,,,,,,,,,,,,./stim/p03_syllable_1_manhiala_hit.wav,p03,mañiala,hit,ma-nhia-la,ma-ñia-la,ma-ñi-a-la, ,-0.369212963,-0.114583333,1,0,0,0.983,text_option_1,,0,96,96,21,1
6106c0aecdc0c01341f2bf2d,63f3cfca20052e4ae7554ebf,6453c885fb5d54228996df71,2023-05-04_17h01.00.769,ga_syllabified_check,2022.2.5,Win32,60.0240096,,,,,,,,,,,,,,./stim/p03_syllable_1_lakabiaisto_hit.wav,p03,lakabiaisto,hit,la-ka-biais-to,la-ka-biais-to,la-ka-bi-ais-to,la-ka-bia-is-to,-0.369212963,-0.114583333,1,0,0,1.117,text_option_1,,0,97,97,6,1
6106c0aecdc0c01341f2bf2d,63f3cfca20052e4ae7554ebf,6453c885fb5d54228996df71,2023-05-04_17h01.00.769,ga_syllabified_check,2022.2.5,Win32,60.0240096,,,,,,,,,,,,,,./stim/p04_syllable_1_flauro_hit.wav,p04,flauro,hit,flau-ro,flau-ro,fla-u-ro, ,-0.369212963,-0.114583333,1,0,0,0.216,text_option_1,,0,98,98,39,1
6106c0aecdc0c01341f2bf2d,63f3cfca20052e4ae7554ebf,6453c885fb5d54228996df71,2023-05-04_17h01.00.769,ga_syllabified_check,2022.2.5,Win32,60.0240096,,,,,,,,,,,,,,./stim/p07_syllable_1_lakatiaisto_hit.wav,p07,lakatiaisto,hit,la-ka-tiai-sto,la-ka-tiais-to,la-ka-ti-ais-to,la-ka-tia-is-to,-0.369212963,-0.114583333,1,0,0,3.667,text_option_1,,0,99,99,154,1
6106c0aecdc0c01341f2bf2d,63f3cfca20052e4ae7554ebf,6453c885fb5d54228996df71,2023-05-04_17h01.00.769,ga_syllabified_check,2022.2.5,Win32,60.0240096,,,,,,,,,,,,,,./stim/p07_syllable_1_payielo_hit.wav,p07,payielo,hit,pa-yie-lo,pa-yie-lo,pa-yi-e-lo, ,-0.369212963,-0.114583333,1,0,0,0.949,text_option_1,,0,100,100,166,1
6106c0aecdc0c01341f2bf2d,63f3cfca20052e4ae7554ebf,6453c885fb5d54228996df71,2023-05-04_17h01.00.769,ga_syllabified_check,2022.2.5,Win32,60.0240096,,,,,,,,,,,,,,./stim/p05_syllable_1_lliape_hit.wav,p05,lliape,hit,liai-pe,llia-pe,lli-a-pe, ,0.375,-0.108796296,1,0,0,0.951,text_option_2,,0,101,101,88,1
6106c0aecdc0c01341f2bf2d,63f3cfca20052e4ae7554ebf,6453c885fb5d54228996df71,2023-05-04_17h01.00.769,ga_syllabified_check,2022.2.5,Win32,60.0240096,,,,,,,,,,,,,,./stim/p07_syllable_1_lakafiaisto_hit.wav,p07,lakafiaisto,hit,la-ka-fiais-to,la-ka-fiais-to,la-ka-fi-ais-to,la-ka-fia-is-to,-0.334490741,-0.119212963,1,0,0,1.417,text_option_1,,0,102,102,146,1
6106c0aecdc0c01341f2bf2d,63f3cfca20052e4ae7554ebf,6453c885fb5d54228996df71,2023-05-04_17h01.00.769,ga_syllabified_check,2022.2.5,Win32,60.0240096,,,,,,,,,,,,,,./stim/p05_syllable_1_lakapuaisto_hit.wav,p05,lakapuaisto,hit,la-ka-pais-to,la-ka-puais-to,la-ka-pu-ais-to,la-ka-pua-is-to,0.033564815,-0.296296296,1,0,0,2.634,text_option_other,la-ka-pa-isto,0,103,103,85,1
6106c0aecdc0c01341f2bf2d,63f3cfca20052e4ae7554ebf,6453c885fb5d54228996df71,2023-05-04_17h01.00.769,ga_syllabified_check,2022.2.5,Win32,60.0240096,,,,,,,,,,,,,,./stim/p06_syllable_1_palufauro_hit.wav,p06,palufauro,hit,pa-lu-fau-ro,pa-lu-fau-ro,pa-lu-fa-u-ro, ,-0.332175926,-0.090277778,1,0,0,4.968,text_option_1,,0,104,104,127,1
6106c0aecdc0c01341f2bf2d,63f3cfca20052e4ae7554ebf,6453c885fb5d54228996df71,2023-05-04_17h01.00.769,ga_syllabified_check,2022.2.5,Win32,60.0240096,,,,,,,,,,,,,,./stim/p06_syllable_1_lakadiaisto_hit.wav,p06,lakadiaisto,hit,la-ka-dia-is-to,la-ka-diais-to,la-ka-di-ais-to,la-ka-dia-is-to,0.071759259,-0.113425926,1,0,0,2.683,text_option_3,,0,105,105,110,1
6106c0aecdc0c01341f2bf2d,63f3cfca20052e4ae7554ebf,6453c885fb5d54228996df71,2023-05-04_17h01.00.769,ga_syllabified_check,2022.2.5,Win32,60.0240096,,,,,,,,,,,,,,./stim/p03_syllable_1_faluduako_hit.wav,p03,faluduako,hit,fa-lu-dua-ko,fa-lu-dua-ko,fa-lu-du-a-ko, ,-0.331018519,-0.099537037,1,0,0,1.134,text_option_1,,0,106,106,2,1
6106c0aecdc0c01341f2bf2d,63f3cfca20052e4ae7554ebf,6453c885fb5d54228996df71,2023-05-04_17h01.00.769,ga_syllabified_check,2022.2.5,Win32,60.0240096,,,,,,,,,,,,,,./stim/p03_syllable_1_falutraigo_hit.wav,p03,falutraigo,hit,fa-lu-trai-go,fa-lu-trai-go,fa-lu-tra-i-go, ,-0.331018519,-0.099537037,1,0,0,1.349,text_option_1,,0,107,107,4,1
6106c0aecdc0c01341f2bf2d,63f3cfca20052e4ae7554ebf,6453c885fb5d54228996df71,2023-05-04_17h01.00.769,ga_syllabified_check,2022.2.5,Win32,60.0240096,,,,,,,,,,,,,,./stim/p07_syllable_1_lakapiaisto_hit.wav,p07,lakapiaisto,hit,la-ka-pia-sto,la-ka-piais-to,la-ka-pi-ais-to,la-ka-pia-is-to,-0.358796296,-0.108796296,1,0,0,2.85,text_option_1,,0,108,108,152,1
6106c0aecdc0c01341f2bf2d,63f3cfca20052e4ae7554ebf,6453c885fb5d54228996df71,2023-05-04_17h01.00.769,ga_syllabified_check,2022.2.5,Win32,60.0240096,,,,,,,,,,,,,,./stim/p08_syllable_1_falutraigo_hit.wav,p08,falutraigo,hit,fa-lu-trai-go,fa-lu-trai-go,fa-lu-tra-i-go, ,-0.359953704,-0.108796296,1,0,0,1.835,text_option_1,,0,109,109,174,1
6106c0aecdc0c01341f2bf2d,63f3cfca20052e4ae7554ebf,6453c885fb5d54228996df71,2023-05-04_17h01.00.769,ga_syllabified_check,2022.2.5,Win32,60.0240096,,,,,,,,,,,,,,./stim/p03_syllable_1_palumaisto_hit.wav,p03,palumaisto,hit,pa-lu-mais-to,pa-lu-mais-to,pa-lu-ma-is-to, ,-0.342592593,-0.115740741,1,0,0,1.133,text_option_1,,0,110,110,28,1
6106c0aecdc0c01341f2bf2d,63f3cfca20052e4ae7554ebf,6453c885fb5d54228996df71,2023-05-04_17h01.00.769,ga_syllabified_check,2022.2.5,Win32,60.0240096,,,,,,,,,,,,,,./stim/p06_syllable_1_lakabiaisto_hit.wav,p06,lakabiaisto,hit,la-ka-bia-is-to,la-ka-biais-to,la-ka-bi-ais-to,la-ka-bia-is-to,-0.042824074,-0.104166667,1,0,0,3.884,text_option_3,,0,111,111,108,1
6106c0aecdc0c01341f2bf2d,63f3cfca20052e4ae7554ebf,6453c885fb5d54228996df71,2023-05-04_17h01.00.769,ga_syllabified_check,2022.2.5,Win32,60.0240096,,,,,,,,,,,,,,./stim/p06_syllable_1_lakafiaisto_hit.wav,p06,lakafiaisto,hit,la-ka-fia-is-to,la-ka-fiais-to,la-ka-fi-ais-to,la-ka-fia-is-to,-0.043981481,-0.103009259,1,0,0,3.583,text_option_3,,0,112,112,112,1
6106c0aecdc0c01341f2bf2d,63f3cfca20052e4ae7554ebf,6453c885fb5d54228996df71,2023-05-04_17h01.00.769,ga_syllabified_check,2022.2.5,Win32,60.0240096,,,,,,,,,,,,,,./stim/p04_syllable_1_lakakiaisto_hit.wav,p04,lakakiaisto,hit,la-ka-kiais-to,la-ka-kiais-to,la-ka-ki-ais-to,la-ka-kia-is-to,0.017361111,-0.101851852,1,0,0,1.783,text_option_3,,0,113,113,48,1
6106c0aecdc0c01341f2bf2d,63f3cfca20052e4ae7554ebf,6453c885fb5d54228996df71,2023-05-04_17h01.00.769,ga_syllabified_check,2022.2.5,Win32,60.0240096,,,,,,,,,,,,,,./stim/p05_syllable_1_payielo_hit.wav,p05,payielo,hit,pai-yu-we-lo,pa-yie-lo,pa-yi-e-lo, ,-0.082175926,-0.303240741,1,0,0,3.117,text_option_other,pa-yue-lo,0,114,114,98,1
6106c0aecdc0c01341f2bf2d,63f3cfca20052e4ae7554ebf,6453c885fb5d54228996df71,2023-05-04_17h01.00.769,ga_syllabified_check,2022.2.5,Win32,60.0240096,,,,,,,,,,,,,,./stim/p03_syllable_1_lakakiaisto_hit.wav,p03,lakakiaisto,hit,la-ka-kiais-to,la-ka-kiais-to,la-ka-ki-ais-to,la-ka-kia-is-to,-0.344907407,-0.107638889,1,0,0,1.95,text_option_1,,0,115,115,14,1
6106c0aecdc0c01341f2bf2d,63f3cfca20052e4ae7554ebf,6453c885fb5d54228996df71,2023-05-04_17h01.00.769,ga_syllabified_check,2022.2.5,Win32,60.0240096,,,,,,,,,,,,,,./stim/p04_syllable_1_lakabiaisto_hit.wav,p04,lakabiaisto,hit,la-ka-biais-to,la-ka-biais-to,la-ka-bi-ais-to,la-ka-bia-is-to,-0.344907407,-0.107638889,1,0,0,0.633,text_option_1,,0,116,116,40,1
6106c0aecdc0c01341f2bf2d,63f3cfca20052e4ae7554ebf,6453c885fb5d54228996df71,2023-05-04_17h01.00.769,ga_syllabified_check,2022.2.5,Win32,60.0240096,,,,,,,,,,,,,,./stim/p03_syllable_1_lakakuaisto_hit.wav,p03,lakakuaisto,hit,la-ka-kuais-to,la-ka-kuais-to,la-ka-ku-ais-to,la-ka-kua-is-to,-0.344907407,-0.107638889,1,0,0,1.133,text_option_1,,0,117,117,15,1
6106c0aecdc0c01341f2bf2d,63f3cfca20052e4ae7554ebf,6453c885fb5d54228996df71,2023-05-04_17h01.00.769,ga_syllabified_check,2022.2.5,Win32,60.0240096,,,,,,,,,,,,,,./stim/p04_syllable_1_nhiape_hit.wav,p04,ñiape,hit,nhia-pe,ñia-pe,ñi-a-pe, ,-0.361111111,-0.105324074,1,0,0,0.884,text_option_1,,0,118,118,57,1
6106c0aecdc0c01341f2bf2d,63f3cfca20052e4ae7554ebf,6453c885fb5d54228996df71,2023-05-04_17h01.00.769,ga_syllabified_check,2022.2.5,Win32,60.0240096,,,,,,,,,,,,,,./stim/p07_syllable_1_tuliafo_hit.wav,p07,tuliafo,hit,tu-lia-fo,tu-lia-fo,tu-li-a-fo, ,-0.361111111,-0.105324074,1,0,0,0.385,text_option_1,,0,119,119,169,1
6106c0aecdc0c01341f2bf2d,63f3cfca20052e4ae7554ebf,6453c885fb5d54228996df71,2023-05-04_17h01.00.769,ga_syllabified_check,2022.2.5,Win32,60.0240096,,,,,,,,,,,,,,./stim/p04_syllable_1_lakafiaisto_hit.wav,p04,lakafiaisto,hit,la-ka-fiais-to,la-ka-fiais-to,la-ka-fi-ais-to,la-ka-fia-is-to,-0.353009259,-0.111111111,1,0,0,1.4,text_option_1,,0,120,120,44,1
6106c0aecdc0c01341f2bf2d,63f3cfca20052e4ae7554ebf,6453c885fb5d54228996df71,2023-05-04_17h01.00.769,ga_syllabified_check,2022.2.5,Win32,60.0240096,,,,,,,,,,,,,,./stim/p04_syllable_1_faluduako_hit.wav,p04,faluduako,hit,fa-lu-dua-ko,fa-lu-dua-ko,fa-lu-du-a-ko, ,-0.353009259,-0.111111111,1,0,0,1.266,text_option_1,,0,121,121,36,1
6106c0aecdc0c01341f2bf2d,63f3cfca20052e4ae7554ebf,6453c885fb5d54228996df71,2023-05-04_17h01.00.769,ga_syllabified_check,2022.2.5,Win32,60.0240096,,,,,,,,,,,,,,./stim/p06_syllable_1_lakaduaisto_hit.wav,p06,lakaduaisto,hit,la-ka-du-a-is,la-ka-duais-to,la-ka-du-ais-to,la-ka-dua-is-to,0.042824074,-0.107638889,1,0,0,2.917,text_option_3,,0,122,122,111,1
6106c0aecdc0c01341f2bf2d,63f3cfca20052e4ae7554ebf,6453c885fb5d54228996df71,2023-05-04_17h01.00.769,ga_syllabified_check,2022.2.5,Win32,60.0240096,,,,,,,,,,,,,,./stim/p08_syllable_1_lakapuaisto_hit.wav,p08,lakapuaisto,hit,la-ka-pu-as-to,la-ka-puais-to,la-ka-pu-ais-to,la-ka-pua-is-to,0.393518519,-0.115740741,1,0,0,3.4,text_option_2,,0,123,123,187,1
6106c0aecdc0c01341f2bf2d,63f3cfca20052e4ae7554ebf,6453c885fb5d54228996df71,2023-05-04_17h01.00.769,ga_syllabified_check,2022.2.5,Win32,60.0240096,,,,,,,,,,,,,,./stim/p07_syllable_1_lakakuaisto_hit.wav,p07,lakakuaisto,hit,la-ka-kuais-to,la-ka-kuais-to,la-ka-ku-ais-to,la-ka-kua-is-to,-0.373842593,-0.115740741,1,0,0,1.685,text_option_1,,0,124,124,151,1
6106c0aecdc0c01341f2bf2d,63f3cfca20052e4ae7554ebf,6453c885fb5d54228996df71,2023-05-04_17h01.00.769,ga_syllabified_check,2022.2.5,Win32,60.0240096,,,,,,,,,,,,,,./stim/p06_syllable_1_costonhialo_hit.wav,p06,costoñialo,hit,cos-to-nhia-lo,cos-to-ñia-lo,cos-to-ñi-a-lo, ,-0.373842593,-0.115740741,1,0,0,1.934,text_option_1,,0,125,125,103,1
6106c0aecdc0c01341f2bf2d,63f3cfca20052e4ae7554ebf,6453c885fb5d54228996df71,2023-05-04_17h01.00.769,ga_syllabified_check,2022.2.5,Win32,60.0240096,,,,,,,,,,,,,,./stim/p07_syllable_1_palutrauco_hit.wav,p07,palutrauco,hit,pa-lu-trau-co,pa-lu-trau-co,pa-lu-tra-u-co, ,-0.373842593,-0.115740741,1,0,0,1.951,text_option_1,,0,126,126,165,1
6106c0aecdc0c01341f2bf2d,63f3cfca20052e4ae7554ebf,6453c885fb5d54228996df71,2023-05-04_17h01.00.769,ga_syllabified_check,2022.2.5,Win32,60.0240096,,,,,,,,,,,,,,./stim/p03_syllable_1_costonhialo_hit.wav,p03,costoñialo,hit,cos-to-nhia-lo,cos-to-ñia-lo,cos-to-ñi-a-lo, ,-0.373842593,-0.115740741,1,0,0,1.184,text_option_1,,0,127,127,1,1
6106c0aecdc0c01341f2bf2d,63f3cfca20052e4ae7554ebf,6453c885fb5d54228996df71,2023-05-04_17h01.00.769,ga_syllabified_check,2022.2.5,Win32,60.0240096,,,,,,,,,,,,,,./stim/p04_syllable_1_ruyiola_hit.wav,p04,ruyiola,hit,ru-yio-la,ru-yio-la,ru-yi-o-la, ,-0.373842593,-0.115740741,1,0,0,0.683,text_option_1,,0,128,128,66,1
6106c0aecdc0c01341f2bf2d,63f3cfca20052e4ae7554ebf,6453c885fb5d54228996df71,2023-05-04_17h01.00.769,ga_syllabified_check,2022.2.5,Win32,60.0240096,,,,,,,,,,,,,,./stim/p03_syllable_1_lakaguaisto_hit.wav,p03,lakaguaisto,hit,la-ka-guais-to,la-ka-guais-to,la-ka-gu-ais-to,la-ka-gua-is-to,-0.373842593,-0.115740741,1,0,0,1.183,text_option_1,,0,129,129,13,1
6106c0aecdc0c01341f2bf2d,63f3cfca20052e4ae7554ebf,6453c885fb5d54228996df71,2023-05-04_17h01.00.769,ga_syllabified_check,2022.2.5,Win32,60.0240096,,,,,,,,,,,,,,./stim/p03_syllable_1_lakadiaisto_hit.wav,p03,lakadiaisto,hit,la-ka-diais-to,la-ka-diais-to,la-ka-di-ais-to,la-ka-dia-is-to,-0.373842593,-0.115740741,1,0,0,1.367,text_option_1,,0,130,130,8,1
6106c0aecdc0c01341f2bf2d,63f3cfca20052e4ae7554ebf,6453c885fb5d54228996df71,2023-05-04_17h01.00.769,ga_syllabified_check,2022.2.5,Win32,60.0240096,,,,,,,,,,,,,,./stim/p06_syllable_1_palumaisto_hit.wav,p06,palumaisto,hit,pa-lu-ma-is-to,pa-lu-mais-to,pa-lu-ma-is-to, ,0.450231481,-0.113425926,1,0,0,2.967,text_option_2,,0,131,131,130,1
6106c0aecdc0c01341f2bf2d,63f3cfca20052e4ae7554ebf,6453c885fb5d54228996df71,2023-05-04_17h01.00.769,ga_syllabified_check,2022.2.5,Win32,60.0240096,,,,,,,,,,,,,,./stim/p05_syllable_1_lakagiaisto_hit.wav,p05,lakagiaisto,hit,la-ka-ki-ais-to,la-ka-giais-to,la-ka-gi-ais-to,la-ka-gia-is-to,-0.331018519,-0.096064815,1,0,0,2.117,text_option_1,,0,132,132,80,1
6106c0aecdc0c01341f2bf2d,63f3cfca20052e4ae7554ebf,6453c885fb5d54228996df71,2023-05-04_17h01.00.769,ga_syllabified_check,2022.2.5,Win32,60.0240096,,,,,,,,,,,,,,./stim/p05_syllable_1_palumaisto_hit.wav,p05,palumaisto,hit,pa-lu-mais-to,pa-lu-mais-to,pa-lu-ma-is-to, ,-0.30787037,-0.112268519,1,0,0,1.1,text_option_1,,0,133,133,96,1
6106c0aecdc0c01341f2bf2d,63f3cfca20052e4ae7554ebf,6453c885fb5d54228996df71,2023-05-04_17h01.00.769,ga_syllabified_check,2022.2.5,Win32,60.0240096,,,,,,,,,,,,,,./stim/p05_syllable_1_lakakuaisto_hit.wav,p05,lakakuaisto,hit,la-ka-kais-to,la-ka-kuais-to,la-ka-ku-ais-to,la-ka-kua-is-to,0.358796296,-0.108796296,1,0,0,1.751,text_option_2,,0,134,134,83,1
6106c0aecdc0c01341f2bf2d,63f3cfca20052e4ae7554ebf,6453c885fb5d54228996df71,2023-05-04_17h01.00.769,ga_syllabified_check,2022.2.5,Win32,60.0240096,,,,,,,,,,,,,,./stim/p06_syllable_1_payielo_hit.wav,p06,payielo,hit,pa-yi-e-lo,pa-yie-lo,pa-yi-e-lo, ,0.434027778,-0.12037037,1,0,0,1.683,text_option_2,,0,135,135,132,1
6106c0aecdc0c01341f2bf2d,63f3cfca20052e4ae7554ebf,6453c885fb5d54228996df71,2023-05-04_17h01.00.769,ga_syllabified_check,2022.2.5,Win32,60.0240096,,,,,,,,,,,,,,./stim/p05_syllable_1_chiaba_hit.wav,p05,chiaba,hit,chia-ba,chia-ba,chi-a-ba, ,-0.381944444,-0.105324074,1,0,0,1.366,text_option_1,,0,136,136,68,1
6106c0aecdc0c01341f2bf2d,63f3cfca20052e4ae7554ebf,6453c885fb5d54228996df71,2023-05-04_17h01.00.769,ga_syllabified_check,2022.2.5,Win32,60.0240096,,,,,,,,,,,,,,./stim/p06_syllable_1_lakapiaisto_hit.wav,p06,lakapiaisto,hit,la-ka-pia-is-to,la-ka-piais-to,la-ka-pi-ais-to,la-ka-pia-is-to,0.020833333,-0.111111111,1,0,0,4.716,text_option_3,,0,137,137,118,1
6106c0aecdc0c01341f2bf2d,63f3cfca20052e4ae7554ebf,6453c885fb5d54228996df71,2023-05-04_17h01.00.769,ga_syllabified_check,2022.2.5,Win32,60.0240096,,,,,,,,,,,,,,./stim/p08_syllable_1_palufauto_hit.wav,p08,palufauto,hit,pa-lu-fau-to,pa-lu-fau-to,pa-lu-fa-u-to, ,-0.392361111,-0.115740741,1,0,0,2.967,text_option_1,,0,138,138,196,1
6106c0aecdc0c01341f2bf2d,63f3cfca20052e4ae7554ebf,6453c885fb5d54228996df71,2023-05-04_17h01.00.769,ga_syllabified_check,2022.2.5,Win32,60.0240096,,,,,,,,,,,,,,./stim/p08_syllable_1_lakagiaisto_hit.wav,p08,lakagiaisto,hit,la-ka-gi-jas-to,la-ka-giais-to,la-ka-gi-ais-to,la-ka-gia-is-to,-0.392361111,-0.115740741,1,0,0,2.417,text_option_1,,0,139,139,182,1
6106c0aecdc0c01341f2bf2d,63f3cfca20052e4ae7554ebf,6453c885fb5d54228996df71,2023-05-04_17h01.00.769,ga_syllabified_check,2022.2.5,Win32,60.0240096,,,,,,,,,,,,,,./stim/p07_syllable_1_lliape_hit.wav,p07,lliape,hit,lliai-pe,llia-pe,lli-a-pe, ,-0.400462963,-0.094907407,1,0,0,0.867,text_option_1,,0,140,140,156,1
6106c0aecdc0c01341f2bf2d,63f3cfca20052e4ae7554ebf,6453c885fb5d54228996df71,2023-05-04_17h01.00.769,ga_syllabified_check,2022.2.5,Win32,60.0240096,,,,,,,,,,,,,,./stim/p03_syllable_1_payielo_hit.wav,p03,payielo,hit,pa-yie-lo,pa-yie-lo,pa-yi-e-lo, ,-0.377314815,-0.107638889,1,0,0,0.284,text_option_1,,0,141,141,30,1
6106c0aecdc0c01341f2bf2d,63f3cfca20052e4ae7554ebf,6453c885fb5d54228996df71,2023-05-04_17h01.00.769,ga_syllabified_check,2022.2.5,Win32,60.0240096,,,,,,,,,,,,,,./stim/p05_syllable_1_lakabuaisto_hit.wav,p05,lakabuaisto,hit,la-ka-buais-to,la-ka-buais-to,la-ka-bu-ais-to,la-ka-bua-is-to,-0.377314815,-0.109953704,1,0,0,1.068,text_option_1,,0,142,142,75,1
6106c0aecdc0c01341f2bf2d,63f3cfca20052e4ae7554ebf,6453c885fb5d54228996df71,2023-05-04_17h01.00.769,ga_syllabified_check,2022.2.5,Win32,60.0240096,,,,,,,,,,,,,,./stim/p05_syllable_1_mebochiana_hit.wav,p05,mebochiana,hit,me-cho-chai-na,me-bo-chia-na,me-bo-chi-a-na, ,-0.377314815,-0.109953704,1,0,0,3.268,text_option_1,,0,143,143,90,1
6106c0aecdc0c01341f2bf2d,63f3cfca20052e4ae7554ebf,6453c885fb5d54228996df71,2023-05-04_17h01.00.769,ga_syllabified_check,2022.2.5,Win32,60.0240096,,,,,,,,,,,,,,./stim/p07_syllable_1_paluguato_hit.wav,p07,paluguato,hit,pa-lu-gua-to,pa-lu-gua-to,pa-lu-gu-a-to, ,-0.377314815,-0.109953704,1,0,0,1,text_option_1,,0,144,144,163,1
6106c0aecdc0c01341f2bf2d,63f3cfca20052e4ae7554ebf,6453c885fb5d54228996df71,2023-05-04_17h01.00.769,ga_syllabified_check,2022.2.5,Win32,60.0240096,,,,,,,,,,,,,,./stim/p05_syllable_1_palufauro_hit.wav,p05,palufauro,hit,pa-lu-fau-ro,pa-lu-fau-ro,pa-lu-fa-u-ro, ,-0.377314815,-0.109953704,1,0,0,0.6,text_option_1,,0,145,145,93,1
6106c0aecdc0c01341f2bf2d,63f3cfca20052e4ae7554ebf,6453c885fb5d54228996df71,2023-05-04_17h01.00.769,ga_syllabified_check,2022.2.5,Win32,60.0240096,,,,,,,,,,,,,,./stim/p07_syllable_1_falufaisto_hit.wav,p07,falufaisto,hit,fa-lu-fais-to,fa-lu-fais-to,fa-lu-fa-is-to, ,0.400462963,-0.105324074,1,0,0,2.55,text_option_2,,0,146,146,139,1
6106c0aecdc0c01341f2bf2d,63f3cfca20052e4ae7554ebf,6453c885fb5d54228996df71,2023-05-04_17h01.00.769,ga_syllabified_check,2022.2.5,Win32,60.0240096,,,,,,,,,,,,,,./stim/p05_syllable_1_lakapiaisto_hit.wav,p05,lakapiaisto,hit,la-ka-pais-to,la-ka-piais-to,la-ka-pi-ais-to,la-ka-pia-is-to,-0.393518519,-0.099537037,1,0,0,1.75,text_option_1,,0,147,147,84,1
6106c0aecdc0c01341f2bf2d,63f3cfca20052e4ae7554ebf,6453c885fb5d54228996df71,2023-05-04_17h01.00.769,ga_syllabified_check,2022.2.5,Win32,60.0240096,,,,,,,,,,,,,,./stim/p08_syllable_1_palufauro_hit.wav,p08,palufauro,hit,pa-lu-fau-ro,pa-lu-fau-ro,pa-lu-fa-u-ro, ,-0.327546296,-0.107638889,1,0,0,2.5,text_option_1,,0,148,148,195,1
6106c0aecdc0c01341f2bf2d,63f3cfca20052e4ae7554ebf,6453c885fb5d54228996df71,2023-05-04_17h01.00.769,ga_syllabified_check,2022.2.5,Win32,60.0240096,,,,,,,,,,,,,,./stim/p08_syllable_1_lakafuaisto_hit.wav,p08,lakafuaisto,hit,la-ka-fju-ais-to,la-ka-fuais-to,la-ka-fu-ais-to,la-ka-fua-is-to,-0.423611111,-0.091435185,1,0,0,3.168,text_option_1,,0,149,149,181,1
6106c0aecdc0c01341f2bf2d,63f3cfca20052e4ae7554ebf,6453c885fb5d54228996df71,2023-05-04_17h01.00.769,ga_syllabified_check,2022.2.5,Win32,60.0240096,,,,,,,,,,,,,,./stim/p04_syllable_1_palumaisto_hit.wav,p04,palumaisto,hit,pa-lu-mais-to,pa-lu-mais-to,pa-lu-ma-is-to, ,-0.377314815,-0.111111111,1,0,0,1.65,text_option_1,,0,150,150,62,1
6106c0aecdc0c01341f2bf2d,63f3cfca20052e4ae7554ebf,6453c885fb5d54228996df71,2023-05-04_17h01.00.769,ga_syllabified_check,2022.2.5,Win32,60.0240096,,,,,,,,,,,,,,./stim/p07_syllable_1_rausto_hit.wav,p07,rausto,hit,raus-to,raus-to,ra-us-to, ,-0.377314815,-0.111111111,1,0,0,0.183,text_option_1,,0,151,151,167,1
6106c0aecdc0c01341f2bf2d,63f3cfca20052e4ae7554ebf,6453c885fb5d54228996df71,2023-05-04_17h01.00.769,ga_syllabified_check,2022.2.5,Win32,60.0240096,,,,,,,,,,,,,,./stim/p06_syllable_1_lakaguaisto_hit.wav,p06,lakaguaisto,hit,la-ka-gu-a-is,la-ka-guais-to,la-ka-gu-ais-to,la-ka-gua-is-to,0.351851852,-0.118055556,1,0,0,4.234,text_option_2,,0,152,152,115,1
6106c0aecdc0c01341f2bf2d,63f3cfca20052e4ae7554ebf,6453c885fb5d54228996df71,2023-05-04_17h01.00.769,ga_syllabified_check,2022.2.5,Win32,60.0240096,,,,,,,,,,,,,,./stim/p06_syllable_1_chiaba_hit.wav,p06,chiaba,hit,chi-a-ba,chia-ba,chi-a-ba, ,0.385416667,-0.107638889,1,0,0,1.1,text_option_2,,0,153,153,102,1
6106c0aecdc0c01341f2bf2d,63f3cfca20052e4ae7554ebf,6453c885fb5d54228996df71,2023-05-04_17h01.00.769,ga_syllabified_check,2022.2.5,Win32,60.0240096,,,,,,,,,,,,,,./stim/p05_syllable_1_flauro_hit.wav,p05,flauro,hit,fa-lu-ro,flau-ro,fla-u-ro, ,0.030092593,-0.310185185,1,0,0,2.367,text_option_other,fa-lu-ro,0,154,154,73,1
6106c0aecdc0c01341f2bf2d,63f3cfca20052e4ae7554ebf,6453c885fb5d54228996df71,2023-05-04_17h01.00.769,ga_syllabified_check,2022.2.5,Win32,60.0240096,,,,,,,,,,,,,,./stim/p07_syllable_1_costonhialo_hit.wav,p07,costoñialo,hit,cos-to-nhia-lo,cos-to-ñia-lo,cos-to-ñi-a-lo, ,-0.403935185,-0.094907407,1,0,0,2.901,text_option_1,,0,155,155,137,1
6106c0aecdc0c01341f2bf2d,63f3cfca20052e4ae7554ebf,6453c885fb5d54228996df71,2023-05-04_17h01.00.769,ga_syllabified_check,2022.2.5,Win32,60.0240096,,,,,,,,,,,,,,./stim/p05_syllable_1_lakakiaisto_hit.wav,p05,lakakiaisto,hit,la-ka-ki-ais-to,la-ka-kiais-to,la-ka-ki-ais-to,la-ka-kia-is-to,0.037037037,-0.113425926,1,0,0,6.001,text_option_3,,0,156,156,82,1
6106c0aecdc0c01341f2bf2d,63f3cfca20052e4ae7554ebf,6453c885fb5d54228996df71,2023-05-04_17h01.00.769,ga_syllabified_check,2022.2.5,Win32,60.0240096,,,,,,,,,,,,,,./stim/p03_syllable_1_lakafuaisto_hit.wav,p03,lakafuaisto,hit,la-ka-fuais-to,la-ka-fuais-to,la-ka-fu-ais-to,la-ka-fua-is-to,-0.314814815,-0.104166667,1,0,0,1.067,text_option_1,,0,157,157,11,1
6106c0aecdc0c01341f2bf2d,63f3cfca20052e4ae7554ebf,6453c885fb5d54228996df71,2023-05-04_17h01.00.769,ga_syllabified_check,2022.2.5,Win32,60.0240096,,,,,,,,,,,,,,./stim/p04_syllable_1_falufaisto_hit.wav,p04,falufaisto,hit,fa-lu-fais-to,fa-lu-fais-to,fa-lu-fa-is-to, ,-0.326388889,-0.104166667,1,0,0,1.235,text_option_1,,0,158,158,37,1
6106c0aecdc0c01341f2bf2d,63f3cfca20052e4ae7554ebf,6453c885fb5d54228996df71,2023-05-04_17h01.00.769,ga_syllabified_check,2022.2.5,Win32,60.0240096,,,,,,,,,,,,,,./stim/p08_syllable_1_palutrauco_hit.wav,p08,palutrauco,hit,pa-lu-trau-ko,pa-lu-trau-co,pa-lu-tra-u-co, ,0.342592593,-0.096064815,1,0,0,2.816,text_option_2,,0,159,159,199,1
6106c0aecdc0c01341f2bf2d,63f3cfca20052e4ae7554ebf,6453c885fb5d54228996df71,2023-05-04_17h01.00.769,ga_syllabified_check,2022.2.5,Win32,60.0240096,,,,,,,,,,,,,,./stim/p06_syllable_1_mebochiana_hit.wav,p06,mebochiana,hit,me-bo-shi-a-na,me-bo-chia-na,me-bo-chi-a-na, ,-0.347222222,-0.116898148,1,0,0,4.334,text_option_1,,0,160,160,124,1
6106c0aecdc0c01341f2bf2d,63f3cfca20052e4ae7554ebf,6453c885fb5d54228996df71,2023-05-04_17h01.00.769,ga_syllabified_check,2022.2.5,Win32,60.0240096,,,,,,,,,,,,,,./stim/p06_syllable_1_manhiala_hit.wav,p06,mañiala,hit,ma-nhi-a-la,ma-ñia-la,ma-ñi-a-la, ,0.386574074,-0.115740741,1,0,0,1.3,text_option_2,,0,161,161,123,1
6106c0aecdc0c01341f2bf2d,63f3cfca20052e4ae7554ebf,6453c885fb5d54228996df71,2023-05-04_17h01.00.769,ga_syllabified_check,2022.2.5,Win32,60.0240096,,,,,,,,,,,,,,./stim/p08_syllable_1_tuliafo_hit.wav,p08,tuliafo,hit,tu-li-a-fo,tu-lia-fo,tu-li-a-fo, ,0.383101852,-0.115740741,1,0,0,1.233,text_option_2,,0,162,162,203,1
6106c0aecdc0c01341f2bf2d,63f3cfca20052e4ae7554ebf,6453c885fb5d54228996df71,2023-05-04_17h01.00.769,ga_syllabified_check,2022.2.5,Win32,60.0240096,,,,,,,,,,,,,,./stim/p04_syllable_1_palufauto_hit.wav,p04,palufauto,hit,pa-lu-fau-to,pa-lu-fau-to,pa-lu-fa-u-to, ,0.383101852,-0.115740741,1,0,0,1.868,text_option_2,,0,163,163,60,1
6106c0aecdc0c01341f2bf2d,63f3cfca20052e4ae7554ebf,6453c885fb5d54228996df71,2023-05-04_17h01.00.769,ga_syllabified_check,2022.2.5,Win32,60.0240096,,,,,,,,,,,,,,./stim/p08_syllable_1_flauro_hit.wav,p08,flauro,hit,flau-ro,flau-ro,fla-u-ro, ,0.383101852,-0.115740741,1,0,0,0.55,text_option_2,,0,164,164,175,1
6106c0aecdc0c01341f2bf2d,63f3cfca20052e4ae7554ebf,6453c885fb5d54228996df71,2023-05-04_17h01.00.769,ga_syllabified_check,2022.2.5,Win32,60.0240096,,,,,,,,,,,,,,./stim/p04_syllable_1_lakadiaisto_hit.wav,p04,lakadiaisto,hit,la-ka-dias-to,la-ka-diais-to,la-ka-di-ais-to,la-ka-dia-is-to,-0.354166667,-0.113425926,1,0,0,2.45,text_option_1,,0,165,165,42,1
6106c0aecdc0c01341f2bf2d,63f3cfca20052e4ae7554ebf,6453c885fb5d54228996df71,2023-05-04_17h01.00.769,ga_syllabified_check,2022.2.5,Win32,60.0240096,,,,,,,,,,,,,,./stim/p05_syllable_1_lakafiaisto_hit.wav,p05,lakafiaisto,hit,la-ka-fi-ais-to,la-ka-fiais-to,la-ka-fi-ais-to,la-ka-fia-is-to,-0.354166667,-0.113425926,1,0,0,1.885,text_option_1,,0,166,166,78,1
6106c0aecdc0c01341f2bf2d,63f3cfca20052e4ae7554ebf,6453c885fb5d54228996df71,2023-05-04_17h01.00.769,ga_syllabified_check,2022.2.5,Win32,60.0240096,,,,,,,,,,,,,,./stim/p03_syllable_1_rausto_hit.wav,p03,rausto,hit,raus-to,raus-to,ra-us-to, ,-0.354166667,-0.113425926,1,0,0,1.817,text_option_1,,0,167,167,31,1
6106c0aecdc0c01341f2bf2d,63f3cfca20052e4ae7554ebf,6453c885fb5d54228996df71,2023-05-04_17h01.00.769,ga_syllabified_check,2022.2.5,Win32,60.0240096,,,,,,,,,,,,,,./stim/p05_syllable_1_lakafuaisto_hit.wav,p05,lakafuaisto,hit,la-ka-fais-to,la-ka-fuais-to,la-ka-fu-ais-to,la-ka-fua-is-to,-0.354166667,-0.113425926,1,0,0,1.05,text_option_1,,0,168,168,79,1
6106c0aecdc0c01341f2bf2d,63f3cfca20052e4ae7554ebf,6453c885fb5d54228996df71,2023-05-04_17h01.00.769,ga_syllabified_check,2022.2.5,Win32,60.0240096,,,,,,,,,,,,,,./stim/p07_syllable_1_lakapuaisto_hit.wav,p07,lakapuaisto,hit,la-ka-puais-to,la-ka-puais-to,la-ka-pu-ais-to,la-ka-pua-is-to,-0.354166667,-0.113425926,1,0,0,1.833,text_option_1,,0,169,169,153,1
6106c0aecdc0c01341f2bf2d,63f3cfca20052e4ae7554ebf,6453c885fb5d54228996df71,2023-05-04_17h01.00.769,ga_syllabified_check,2022.2.5,Win32,60.0240096,,,,,,,,,,,,,,./stim/p07_syllable_1_mebochiana_hit.wav,p07,mebochiana,hit,me-bo-chia-na,me-bo-chia-na,me-bo-chi-a-na, ,-0.354166667,-0.113425926,1,0,0,1.434,text_option_1,,0,170,170,158,1
6106c0aecdc0c01341f2bf2d,63f3cfca20052e4ae7554ebf,6453c885fb5d54228996df71,2023-05-04_17h01.00.769,ga_syllabified_check,2022.2.5,Win32,60.0240096,,,,,,,,,,,,,,./stim/p03_syllable_1_lakabuaisto_hit.wav,p03,lakabuaisto,hit,la-ka-buais-to,la-ka-buais-to,la-ka-bu-ais-to,la-ka-bua-is-to,-0.354166667,-0.113425926,1,0,0,1.316,text_option_1,,0,171,171,7,1
6106c0aecdc0c01341f2bf2d,63f3cfca20052e4ae7554ebf,6453c885fb5d54228996df71,2023-05-04_17h01.00.769,ga_syllabified_check,2022.2.5,Win32,60.0240096,,,,,,,,,,,,,,./stim/p07_syllable_1_lakakiaisto_hit.wav,p07,lakakiaisto,hit,la-ka-kais-to,la-ka-kiais-to,la-ka-ki-ais-to,la-ka-kia-is-to,-0.354166667,-0.113425926,1,0,0,2.05,text_option_1,,0,172,172,150,1
6106c0aecdc0c01341f2bf2d,63f3cfca20052e4ae7554ebf,6453c885fb5d54228996df71,2023-05-04_17h01.00.769,ga_syllabified_check,2022.2.5,Win32,60.0240096,,,,,,,,,,,,,,./stim/p08_syllable_1_costonhialo_hit.wav,p08,costoñialo,hit,cos-to-nhia-lo,cos-to-ñia-lo,cos-to-ñi-a-lo, ,0.483796296,-0.118055556,1,0,0,1.966,text_option_2,,0,173,173,171,1
6106c0aecdc0c01341f2bf2d,63f3cfca20052e4ae7554ebf,6453c885fb5d54228996df71,2023-05-04_17h01.00.769,ga_syllabified_check,2022.2.5,Win32,60.0240096,,,,,,,,,,,,,,./stim/p07_syllable_1_lakadiaisto_hit.wav,p07,lakadiaisto,hit,la-ka-dia-is-to,la-ka-diais-to,la-ka-di-ais-to,la-ka-dia-is-to,0.447916667,-0.107638889,1,0,0,3.533,text_option_2,,0,174,174,144,1
6106c0aecdc0c01341f2bf2d,63f3cfca20052e4ae7554ebf,6453c885fb5d54228996df71,2023-05-04_17h01.00.769,ga_syllabified_check,2022.2.5,Win32,60.0240096,,,,,,,,,,,,,,./stim/p03_syllable_1_pachialo_hit.wav,p03,pachialo,hit,pa-chia-lo,pa-chia-lo,pa-chi-a-lo, ,-0.409722222,-0.101851852,1,0,0,1.15,text_option_1,,0,175,175,24,1
6106c0aecdc0c01341f2bf2d,63f3cfca20052e4ae7554ebf,6453c885fb5d54228996df71,2023-05-04_17h01.00.769,ga_syllabified_check,2022.2.5,Win32,60.0240096,,,,,,,,,,,,,,./stim/p05_syllable_1_lakabiaisto_hit.wav,p05,lakabiaisto,hit,la-ka-bi-ais-to,la-ka-biais-to,la-ka-bi-ais-to,la-ka-bia-is-to,-0.344907407,-0.113425926,1,0,0,1.385,text_option_1,,0,176,176,74,1
6106c0aecdc0c01341f2bf2d,63f3cfca20052e4ae7554ebf,6453c885fb5d54228996df71,2023-05-04_17h01.00.769,ga_syllabified_check,2022.2.5,Win32,60.0240096,,,,,,,,,,,,,,./stim/p03_syllable_1_lakatiaisto_hit.wav,p03,lakatiaisto,hit,la-ka-tiais-to,la-ka-tiais-to,la-ka-ti-ais-to,la-ka-tia-is-to,-0.344907407,-0.113425926,1,0,0,1.251,text_option_1,,0,177,177,18,1
6106c0aecdc0c01341f2bf2d,63f3cfca20052e4ae7554ebf,6453c885fb5d54228996df71,2023-05-04_17h01.00.769,ga_syllabified_check,2022.2.5,Win32,60.0240096,,,,,,,,,,,,,,./stim/p04_syllable_1_lakapiaisto_hit.wav,p04,lakapiaisto,hit,la-ka-piais-to,la-ka-piais-to,la-ka-pi-ais-to,la-ka-pia-is-to,-0.331018519,-0.111111111,1,0,0,2.884,text_option_1,,0,178,178,50,1
6106c0aecdc0c01341f2bf2d,63f3cfca20052e4ae7554ebf,6453c885fb5d54228996df71,2023-05-04_17h01.00.769,ga_syllabified_check,2022.2.5,Win32,60.0240096,,,,,,,,,,,,,,./stim/p06_syllable_1_faluduako_hit.wav,p06,faluduako,hit,fa-lu-dua-ko,fa-lu-dua-ko,fa-lu-du-a-ko, ,0.447916667,-0.099537037,1,0,0,3.067,text_option_2,,0,179,179,104,1
6106c0aecdc0c01341f2bf2d,63f3cfca20052e4ae7554ebf,6453c885fb5d54228996df71,2023-05-04_17h01.00.769,ga_syllabified_check,2022.2.5,Win32,60.0240096,,,,,,,,,,,,,,./stim/p06_syllable_1_palutrauco_hit.wav,p06,palutrauco,hit,pa-lu-tra-u-co,pa-lu-trau-co,pa-lu-tra-u-co, ,0.420138889,-0.106481481,1,0,0,2.55,text_option_2,,0,180,180,131,1
6106c0aecdc0c01341f2bf2d,63f3cfca20052e4ae7554ebf,6453c885fb5d54228996df71,2023-05-04_17h01.00.769,ga_syllabified_check,2022.2.5,Win32,60.0240096,,,,,,,,,,,,,,./stim/p08_syllable_1_payielo_hit.wav,p08,payielo,hit,pa-yie-lo,pa-yie-lo,pa-yi-e-lo, ,-0.394675926,-0.113425926,1,0,0,1.016,text_option_1,,0,181,181,200,1
6106c0aecdc0c01341f2bf2d,63f3cfca20052e4ae7554ebf,6453c885fb5d54228996df71,2023-05-04_17h01.00.769,ga_syllabified_check,2022.2.5,Win32,60.0240096,,,,,,,,,,,,,,./stim/p08_syllable_1_lakatuaisto_hit.wav,p08,lakatuaisto,hit,la-ka-tu-i-jis,la-ka-tuais-to,la-ka-tu-ais-to,la-ka-tua-is-to,0.0625,-0.112268519,1,0,0,2.599,text_option_3,,0,182,182,189,1
6106c0aecdc0c01341f2bf2d,63f3cfca20052e4ae7554ebf,6453c885fb5d54228996df71,2023-05-04_17h01.00.769,ga_syllabified_check,2022.2.5,Win32,60.0240096,,,,,,,,,,,,,,./stim/p06_syllable_1_tuliafo_hit.wav,p06,tuliafo,hit,tu-li-a-fo,tu-lia-fo,tu-li-a-fo, ,0.400462963,-0.105324074,1,0,0,1.318,text_option_2,,0,183,183,135,1
6106c0aecdc0c01341f2bf2d,63f3cfca20052e4ae7554ebf,6453c885fb5d54228996df71,2023-05-04_17h01.00.769,ga_syllabified_check,2022.2.5,Win32,60.0240096,,,,,,,,,,,,,,./stim/p04_syllable_1_lakaduaisto_hit.wav,p04,lakaduaisto,hit,la-ka-duais-to,la-ka-duais-to,la-ka-du-ais-to,la-ka-dua-is-to,-0.469907407,-0.08912037,1,0,0,1.1,text_option_1,,0,184,184,43,1
6106c0aecdc0c01341f2bf2d,63f3cfca20052e4ae7554ebf,6453c885fb5d54228996df71,2023-05-04_17h01.00.769,ga_syllabified_check,2022.2.5,Win32,60.0240096,,,,,,,,,,,,,,./stim/p05_syllable_1_pachialo_hit.wav,p05,pachialo,hit,pan-chia-lo,pa-chia-lo,pa-chi-a-lo, ,0.02662037,-0.313657407,1,0,0,1.668,text_option_other,pan-chi-a-lo,0,185,185,92,1
6106c0aecdc0c01341f2bf2d,63f3cfca20052e4ae7554ebf,6453c885fb5d54228996df71,2023-05-04_17h01.00.769,ga_syllabified_check,2022.2.5,Win32,60.0240096,,,,,,,,,,,,,,./stim/p05_syllable_1_lakaduaisto_hit.wav,p05,lakaduaisto,hit,la-ka-dais-to,la-ka-duais-to,la-ka-du-ais-to,la-ka-dua-is-to,0.039351852,-0.30787037,1,0,0,2.434,text_option_other,la-ka-dais-to,0,186,186,77,1
6106c0aecdc0c01341f2bf2d,63f3cfca20052e4ae7554ebf,6453c885fb5d54228996df71,2023-05-04_17h01.00.769,ga_syllabified_check,2022.2.5,Win32,60.0240096,,,,,,,,,,,,,,./stim/p06_syllable_1_lakatuaisto_hit.wav,p06,lakatuaisto,hit,la-ka-tu-a-is,la-ka-tuais-to,la-ka-tu-ais-to,la-ka-tua-is-to,0.027777778,-0.09375,1,0,0,4.25,text_option_3,,0,187,187,121,1
6106c0aecdc0c01341f2bf2d,63f3cfca20052e4ae7554ebf,6453c885fb5d54228996df71,2023-05-04_17h01.00.769,ga_syllabified_check,2022.2.5,Win32,60.0240096,,,,,,,,,,,,,,./stim/p03_syllable_1_lakapuaisto_hit.wav,p03,lakapuaisto,hit,la-ka-puais-to,la-ka-puais-to,la-ka-pu-ais-to,la-ka-pua-is-to,-0.358796296,-0.118055556,1,0,0,1.367,text_option_1,,0,188,188,17,1
6106c0aecdc0c01341f2bf2d,63f3cfca20052e4ae7554ebf,6453c885fb5d54228996df71,2023-05-04_17h01.00.769,ga_syllabified_check,2022.2.5,Win32,60.0240096,,,,,,,,,,,,,,./stim/p04_syllable_1_falutraigo_hit.wav,p04,falutraigo,hit,fa-lu-trai-go,fa-lu-trai-go,fa-lu-tra-i-go, ,-0.358796296,-0.118055556,1,0,0,1.984,text_option_1,,0,189,189,38,1
6106c0aecdc0c01341f2bf2d,63f3cfca20052e4ae7554ebf,6453c885fb5d54228996df71,2023-05-04_17h01.00.769,ga_syllabified_check,2022.2.5,Win32,60.0240096,,,,,,,,,,,,,,./stim/p04_syllable_1_lliape_hit.wav,p04,lliape,hit,lia-pe,llia-pe,lli-a-pe, ,-0.358796296,-0.118055556,1,0,0,0.05,text_option_1,,0,190,190,54,1
6106c0aecdc0c01341f2bf2d,63f3cfca20052e4ae7554ebf,6453c885fb5d54228996df71,2023-05-04_17h01.00.769,ga_syllabified_check,2022.2.5,Win32,60.0240096,,,,,,,,,,,,,,./stim/p07_syllable_1_lakafuaisto_hit.wav,p07,lakafuaisto,hit,la-ka-fuais-to,la-ka-fuais-to,la-ka-fu-ais-to,la-ka-fua-is-to,-0.358796296,-0.118055556,1,0,0,1.267,text_option_1,,0,191,191,147,1
6106c0aecdc0c01341f2bf2d,63f3cfca20052e4ae7554ebf,6453c885fb5d54228996df71,2023-05-04_17h01.00.769,ga_syllabified_check,2022.2.5,Win32,60.0240096,,,,,,,,,,,,,,./stim/p04_syllable_1_lakatiaisto_hit.wav,p04,lakatiaisto,hit,la-ka-kiais-to,la-ka-tiais-to,la-ka-ti-ais-to,la-ka-tia-is-to,-0.357638889,-0.118055556,1,0,0,0.666,text_option_1,,0,192,192,52,1
6106c0aecdc0c01341f2bf2d,63f3cfca20052e4ae7554ebf,6453c885fb5d54228996df71,2023-05-04_17h01.00.769,ga_syllabified_check,2022.2.5,Win32,60.0240096,,,,,,,,,,,,,,./stim/p04_syllable_1_manhiala_hit.wav,p04,mañiala,hit,ma-nhia-la,ma-ñia-la,ma-ñi-a-la, ,-0.357638889,-0.118055556,1,0,0,0.55,text_option_1,,0,193,193,55,1
6106c0aecdc0c01341f2bf2d,63f3cfca20052e4ae7554ebf,6453c885fb5d54228996df71,2023-05-04_17h01.00.769,ga_syllabified_check,2022.2.5,Win32,60.0240096,,,,,,,,,,,,,,./stim/p04_syllable_1_lakakuaisto_hit.wav,p04,lakakuaisto,hit,la-ka-kuais-to,la-ka-kuais-to,la-ka-ku-ais-to,la-ka-kua-is-to,0.00462963,-0.115740741,1,0,0,1.35,text_option_3,,0,194,194,49,1
6106c0aecdc0c01341f2bf2d,63f3cfca20052e4ae7554ebf,6453c885fb5d54228996df71,2023-05-04_17h01.00.769,ga_syllabified_check,2022.2.5,Win32,60.0240096,,,,,,,,,,,,,,./stim/p08_syllable_1_palumaisto_hit.wav,p08,palumaisto,hit,pa-lu-mais-to,pa-lu-mais-to,pa-lu-ma-is-to, ,-0.331018519,-0.111111111,1,0,0,1.834,text_option_1,,0,195,195,198,1
6106c0aecdc0c01341f2bf2d,63f3cfca20052e4ae7554ebf,6453c885fb5d54228996df71,2023-05-04_17h01.00.769,ga_syllabified_check,2022.2.5,Win32,60.0240096,,,,,,,,,,,,,,./stim/p08_syllable_1_ruyiola_hit.wav,p08,ruyiola,hit,ru-yio-la,ru-yio-la,ru-yi-o-la, ,-0.349537037,-0.112268519,1,0,0,0.951,text_option_1,,0,196,196,202,1
6106c0aecdc0c01341f2bf2d,63f3cfca20052e4ae7554ebf,6453c885fb5d54228996df71,2023-05-04_17h01.00.769,ga_syllabified_check,2022.2.5,Win32,60.0240096,,,,,,,,,,,,,,./stim/p08_syllable_1_pachialo_hit.wav,p08,pachialo,hit,pa-chi-ja-lo,pa-chia-lo,pa-chi-a-lo, ,0.33912037,-0.090277778,1,0,0,2.05,text_option_2,,0,197,197,194,1
6106c0aecdc0c01341f2bf2d,63f3cfca20052e4ae7554ebf,6453c885fb5d54228996df71,2023-05-04_17h01.00.769,ga_syllabified_check,2022.2.5,Win32,60.0240096,,,,,,,,,,,,,,./stim/p05_syllable_1_lakadiaisto_hit.wav,p05,lakadiaisto,hit,la-ka-di-ais-to,la-ka-diais-to,la-ka-di-ais-to,la-ka-dia-is-to,-0.356481481,-0.114583333,1,0,0,3.05,text_option_1,,0,198,198,76,1
6106c0aecdc0c01341f2bf2d,63f3cfca20052e4ae7554ebf,6453c885fb5d54228996df71,2023-05-04_17h01.00.769,ga_syllabified_check,2022.2.5,Win32,60.0240096,,,,,,,,,,,,,,./stim/p03_syllable_1_lliape_hit.wav,p03,lliape,hit,llia,llia-pe,lli-a-pe, ,-0.356481481,-0.114583333,1,0,0,0.549,text_option_1,,0,199,199,20,1
6106c0aecdc0c01341f2bf2d,63f3cfca20052e4ae7554ebf,6453c885fb5d54228996df71,2023-05-04_17h01.00.769,ga_syllabified_check,2022.2.5,Win32,60.0240096,,,,,,,,,,,,,,./stim/p08_syllable_1_rausto_hit.wav,p08,rausto,hit,raus-to,raus-to,ra-us-to, ,-0.354166667,-0.113425926,1,0,0,2.367,text_option_1,,0,200,200,201,1
6106c0aecdc0c01341f2bf2d,63f3cfca20052e4ae7554ebf,6453c885fb5d54228996df71,2023-05-04_17h01.00.769,ga_syllabified_check,2022.2.5,Win32,60.0240096,,,,,,,,,,,,,,./stim/p08_syllable_1_nhiape_hit.wav,p08,ñiape,hit,ni-a-pe,ñia-pe,ñi-a-pe, ,0.390046296,-0.108796296,1,0,0,1.867,text_option_2,,0,201,201,193,1
6106c0aecdc0c01341f2bf2d,63f3cfca20052e4ae7554ebf,6453c885fb5d54228996df71,2023-05-04_17h01.00.769,ga_syllabified_check,2022.2.5,Win32,60.0240096,,,,,,,,,,,,,,./stim/p07_syllable_1_lakabuaisto_hit.wav,p07,lakabuaisto,hit,la-ka-buais-to,la-ka-buais-to,la-ka-bu-ais-to,la-ka-bua-is-to,-0.392361111,-0.108796296,1,0,0,2.667,text_option_1,,0,202,202,143,1
6106c0aecdc0c01341f2bf2d,63f3cfca20052e4ae7554ebf,6453c885fb5d54228996df71,2023-05-04_17h01.00.769,ga_syllabified_check,2022.2.5,Win32,60.0240096,,,,,,,,,,,,,,./stim/p08_syllable_1_lakapiaisto_hit.wav,p08,lakapiaisto,hit,la-ka-pi-as-to,la-ka-piais-to,la-ka-pi-ais-to,la-ka-pia-is-to,0.001157407,-0.085648148,1,0,0,2.384,text_option_3,,0,203,203,186,1
6106c0aecdc0c01341f2bf2d,63f3cfca20052e4ae7554ebf,6453c885fb5d54228996df71,2023-05-04_17h01.00.769,ga_syllabified_check,2022.2.5,Win32,60.0240096,,,,,,,,,,,,,,,,,,,,,,,,,,,,,,,,,,
