participant,study,session,date,expName,psychopyVersion,OS,frameRate,mouse_practice.x,mouse_practice.y,mouse_practice.leftButton,mouse_practice.midButton,mouse_practice.rightButton,mouse_practice.time,mouse_practice.clicked_name,textbox_followup_practice.text,trials_practice.thisRepN,trials_practice.thisTrialN,trials_practice.thisN,trials_practice.thisIndex,trials_practice.ran,file_path,id,item,status,response,op1,op2,op3,mouse.x,mouse.y,mouse.leftButton,mouse.midButton,mouse.rightButton,mouse.time,mouse.clicked_name,textbox_followup.text,trials.thisRepN,trials.thisTrialN,trials.thisN,trials.thisIndex,trials.ran
610af163338ebe0cb91d1cee,63f3cfca20052e4ae7554ebf,6453cd88b28d94ced8a9c7a1,2023-05-04_17h22.45.103,ga_syllabified_check,2022.2.5,Win32,60.08532116,,,,,,,,,,,,,,,,,,,,,,,,,,,,,,,,,,
610af163338ebe0cb91d1cee,63f3cfca20052e4ae7554ebf,6453cd88b28d94ced8a9c7a1,2023-05-04_17h22.45.103,ga_syllabified_check,2022.2.5,Win32,60.08532116,-0.38671875,-0.10546875,1,0,0,2.8177,text_option_1_practice,,0,0,0,0,1,./stim/p03_syllable_1_liamo_hit.wav,p03,liamo,hit,lia-mo,lia-mo,li-a-mo, ,,,,,,,,,,,,,
610af163338ebe0cb91d1cee,63f3cfca20052e4ae7554ebf,6453cd88b28d94ced8a9c7a1,2023-05-04_17h22.45.103,ga_syllabified_check,2022.2.5,Win32,60.08532116,-0.38671875,-0.10546875,1,0,0,1.1179,text_option_1_practice,,0,1,1,1,1,./stim/p05_syllable_1_matio_hit.wav,p05,matio,hit,ma-tio,ma-tio,ma-ti-o, ,,,,,,,,,,,,,
610af163338ebe0cb91d1cee,63f3cfca20052e4ae7554ebf,6453cd88b28d94ced8a9c7a1,2023-05-04_17h22.45.103,ga_syllabified_check,2022.2.5,Win32,60.08532116,-0.361979167,-0.102864583,1,0,0,2.2171,text_option_1_practice,,0,2,2,2,1,./stim/p08_syllable_1_liamo_hit.wav,p08,liamo,hit,ja-mo,lia-mo,li-a-mo, ,,,,,,,,,,,,,
610af163338ebe0cb91d1cee,63f3cfca20052e4ae7554ebf,6453cd88b28d94ced8a9c7a1,2023-05-04_17h22.45.103,ga_syllabified_check,2022.2.5,Win32,60.08532116,,,,,,,,,,,,,,,,,,,,,,,,,,,,,,,,,,
610af163338ebe0cb91d1cee,63f3cfca20052e4ae7554ebf,6453cd88b28d94ced8a9c7a1,2023-05-04_17h22.45.103,ga_syllabified_check,2022.2.5,Win32,60.08532116,,,,,,,,,,,,,,./stim/p05_syllable_1_palufauto_hit.wav,p05,palufauto,hit,pa-lu-fau-to,pa-lu-fau-to,pa-lu-fa-u-to, ,-0.3671875,-0.110677083,1,0,0,2.6512,text_option_1,,0,0,0,94,1
610af163338ebe0cb91d1cee,63f3cfca20052e4ae7554ebf,6453cd88b28d94ced8a9c7a1,2023-05-04_17h22.45.103,ga_syllabified_check,2022.2.5,Win32,60.08532116,,,,,,,,,,,,,,./stim/p08_syllable_1_lakakiaisto_hit.wav,p08,lakakiaisto,hit,la-ka-ki-jas-to,la-ka-kiais-to,la-ka-ki-ais-to,la-ka-kia-is-to,0.412760417,-0.102864583,1,0,0,5.3677,text_option_2,,0,1,1,184,1
610af163338ebe0cb91d1cee,63f3cfca20052e4ae7554ebf,6453cd88b28d94ced8a9c7a1,2023-05-04_17h22.45.103,ga_syllabified_check,2022.2.5,Win32,60.08532116,,,,,,,,,,,,,,./stim/p03_syllable_1_lakafiaisto_hit.wav,p03,lakafiaisto,hit,la-ka-fiais-to,la-ka-fiais-to,la-ka-fi-ais-to,la-ka-fia-is-to,-0.348958333,-0.106770833,1,0,0,5.3464,text_option_1,,0,2,2,10,1
610af163338ebe0cb91d1cee,63f3cfca20052e4ae7554ebf,6453cd88b28d94ced8a9c7a1,2023-05-04_17h22.45.103,ga_syllabified_check,2022.2.5,Win32,60.08532116,,,,,,,,,,,,,,./stim/p07_syllable_1_ruyiola_hit.wav,p07,ruyiola,hit,ru-yio-la,ru-yio-la,ru-yi-o-la, ,-0.384114583,-0.104166667,1,0,0,3.869,text_option_1,,0,3,3,168,1
610af163338ebe0cb91d1cee,63f3cfca20052e4ae7554ebf,6453cd88b28d94ced8a9c7a1,2023-05-04_17h22.45.103,ga_syllabified_check,2022.2.5,Win32,60.08532116,,,,,,,,,,,,,,./stim/p05_syllable_1_lliape_hit.wav,p05,lliape,hit,liai-pe,llia-pe,lli-a-pe, ,0.0703125,-0.305989583,1,0,0,4.5996,text_option_other,LLIAIPE,0,4,4,88,1
610af163338ebe0cb91d1cee,63f3cfca20052e4ae7554ebf,6453cd88b28d94ced8a9c7a1,2023-05-04_17h22.45.103,ga_syllabified_check,2022.2.5,Win32,60.08532116,,,,,,,,,,,,,,./stim/p06_syllable_1_lliape_hit.wav,p06,lliape,hit,lli-lla-pe,llia-pe,lli-a-pe, ,0.358072917,-0.098958333,1,0,0,4.1016,text_option_2,,0,5,5,122,1
610af163338ebe0cb91d1cee,63f3cfca20052e4ae7554ebf,6453cd88b28d94ced8a9c7a1,2023-05-04_17h22.45.103,ga_syllabified_check,2022.2.5,Win32,60.08532116,,,,,,,,,,,,,,./stim/p05_syllable_1_mebochiana_hit.wav,p05,mebochiana,hit,me-cho-chai-na,me-bo-chia-na,me-bo-chi-a-na, ,-0.040364583,-0.299479167,1,0,0,3.1831,text_option_other,mechochana,0,6,6,90,1
610af163338ebe0cb91d1cee,63f3cfca20052e4ae7554ebf,6453cd88b28d94ced8a9c7a1,2023-05-04_17h22.45.103,ga_syllabified_check,2022.2.5,Win32,60.08532116,,,,,,,,,,,,,,./stim/p04_syllable_1_payielo_hit.wav,p04,payielo,hit,pa-yie-lo,pa-yie-lo,pa-yi-e-lo, ,-0.393229167,-0.1015625,1,0,0,3.4339,text_option_1,,0,7,7,64,1
610af163338ebe0cb91d1cee,63f3cfca20052e4ae7554ebf,6453cd88b28d94ced8a9c7a1,2023-05-04_17h22.45.103,ga_syllabified_check,2022.2.5,Win32,60.08532116,,,,,,,,,,,,,,./stim/p08_syllable_1_pachialo_hit.wav,p08,pachialo,hit,pa-chi-ja-lo,pa-chia-lo,pa-chi-a-lo, ,0.411458333,-0.1015625,1,0,0,3.3004,text_option_2,,0,8,8,194,1
610af163338ebe0cb91d1cee,63f3cfca20052e4ae7554ebf,6453cd88b28d94ced8a9c7a1,2023-05-04_17h22.45.103,ga_syllabified_check,2022.2.5,Win32,60.08532116,,,,,,,,,,,,,,./stim/p05_syllable_1_lakapuaisto_hit.wav,p05,lakapuaisto,hit,la-ka-pais-to,la-ka-puais-to,la-ka-pu-ais-to,la-ka-pua-is-to,0.00390625,-0.298177083,1,0,0,6.1839,text_option_other,la-kai-pais-to,0,9,9,85,1
610af163338ebe0cb91d1cee,63f3cfca20052e4ae7554ebf,6453cd88b28d94ced8a9c7a1,2023-05-04_17h22.45.103,ga_syllabified_check,2022.2.5,Win32,60.08532116,,,,,,,,,,,,,,./stim/p05_syllable_1_lakaduaisto_hit.wav,p05,lakaduaisto,hit,la-ka-dais-to,la-ka-duais-to,la-ka-du-ais-to,la-ka-dua-is-to,0.01953125,-0.302083333,1,0,0,2.2839,text_option_other,la-ka-tais-to,0,10,10,77,1
610af163338ebe0cb91d1cee,63f3cfca20052e4ae7554ebf,6453cd88b28d94ced8a9c7a1,2023-05-04_17h22.45.103,ga_syllabified_check,2022.2.5,Win32,60.08532116,,,,,,,,,,,,,,./stim/p04_syllable_1_lakakiaisto_hit.wav,p04,lakakiaisto,hit,la-ka-kiais-to,la-ka-kiais-to,la-ka-ki-ais-to,la-ka-kia-is-to,-0.348958333,-0.114583333,1,0,0,4.2505,text_option_1,,0,11,11,48,1
610af163338ebe0cb91d1cee,63f3cfca20052e4ae7554ebf,6453cd88b28d94ced8a9c7a1,2023-05-04_17h22.45.103,ga_syllabified_check,2022.2.5,Win32,60.08532116,,,,,,,,,,,,,,./stim/p07_syllable_1_lakafuaisto_hit.wav,p07,lakafuaisto,hit,la-ka-fuais-to,la-ka-fuais-to,la-ka-fu-ais-to,la-ka-fua-is-to,0.001302083,-0.305989583,1,0,0,2.383,text_option_other,la-ka-quais-to,0,12,12,147,1
610af163338ebe0cb91d1cee,63f3cfca20052e4ae7554ebf,6453cd88b28d94ced8a9c7a1,2023-05-04_17h22.45.103,ga_syllabified_check,2022.2.5,Win32,60.08532116,,,,,,,,,,,,,,./stim/p05_syllable_1_manhiala_hit.wav,p05,mañiala,hit,ma-nhia-la,ma-ñia-la,ma-ñi-a-la, ,-0.420572917,-0.098958333,1,0,0,2.9013,text_option_1,,0,13,13,89,1
610af163338ebe0cb91d1cee,63f3cfca20052e4ae7554ebf,6453cd88b28d94ced8a9c7a1,2023-05-04_17h22.45.103,ga_syllabified_check,2022.2.5,Win32,60.08532116,,,,,,,,,,,,,,./stim/p08_syllable_1_nhiape_hit.wav,p08,ñiape,hit,ni-a-pe,ñia-pe,ñi-a-pe, ,-0.365885417,-0.106770833,1,0,0,2.367,text_option_1,,0,14,14,193,1
610af163338ebe0cb91d1cee,63f3cfca20052e4ae7554ebf,6453cd88b28d94ced8a9c7a1,2023-05-04_17h22.45.103,ga_syllabified_check,2022.2.5,Win32,60.08532116,,,,,,,,,,,,,,./stim/p08_syllable_1_payielo_hit.wav,p08,payielo,hit,pa-yie-lo,pa-yie-lo,pa-yi-e-lo, ,-0.381510417,-0.106770833,1,0,0,2.9506,text_option_1,,0,15,15,200,1
610af163338ebe0cb91d1cee,63f3cfca20052e4ae7554ebf,6453cd88b28d94ced8a9c7a1,2023-05-04_17h22.45.103,ga_syllabified_check,2022.2.5,Win32,60.08532116,,,,,,,,,,,,,,./stim/p04_syllable_1_palutrauco_hit.wav,p04,palutrauco,hit,pa-lu-trau-co,pa-lu-trau-co,pa-lu-tra-u-co, ,-0.36328125,-0.096354167,1,0,0,2.4509,text_option_1,,0,16,16,63,1
610af163338ebe0cb91d1cee,63f3cfca20052e4ae7554ebf,6453cd88b28d94ced8a9c7a1,2023-05-04_17h22.45.103,ga_syllabified_check,2022.2.5,Win32,60.08532116,,,,,,,,,,,,,,./stim/p08_syllable_1_palufauro_hit.wav,p08,palufauro,hit,pa-lu-fau-ro,pa-lu-fau-ro,pa-lu-fa-u-ro, ,-0.329427083,-0.102864583,1,0,0,4.2331,text_option_1,,0,17,17,195,1
610af163338ebe0cb91d1cee,63f3cfca20052e4ae7554ebf,6453cd88b28d94ced8a9c7a1,2023-05-04_17h22.45.103,ga_syllabified_check,2022.2.5,Win32,60.08532116,,,,,,,,,,,,,,./stim/p07_syllable_1_paluguato_hit.wav,p07,paluguato,hit,pa-lu-gua-to,pa-lu-gua-to,pa-lu-gu-a-to, ,-0.38671875,-0.102864583,1,0,0,3.167,text_option_1,,0,18,18,163,1
610af163338ebe0cb91d1cee,63f3cfca20052e4ae7554ebf,6453cd88b28d94ced8a9c7a1,2023-05-04_17h22.45.103,ga_syllabified_check,2022.2.5,Win32,60.08532116,,,,,,,,,,,,,,./stim/p03_syllable_1_faluduako_hit.wav,p03,faluduako,hit,fa-lu-dua-ko,fa-lu-dua-ko,fa-lu-du-a-ko, ,0.069010417,-0.309895833,1,0,0,3.0673,text_option_other,fa-du-lua-ko,0,19,19,2,1
610af163338ebe0cb91d1cee,63f3cfca20052e4ae7554ebf,6453cd88b28d94ced8a9c7a1,2023-05-04_17h22.45.103,ga_syllabified_check,2022.2.5,Win32,60.08532116,,,,,,,,,,,,,,./stim/p08_syllable_1_lakabuaisto_hit.wav,p08,lakabuaisto,hit,la-ka-bu-ais-to,la-ka-buais-to,la-ka-bu-ais-to,la-ka-bua-is-to,0.46484375,-0.111979167,1,0,0,6.6344,text_option_2,,0,20,20,177,1
610af163338ebe0cb91d1cee,63f3cfca20052e4ae7554ebf,6453cd88b28d94ced8a9c7a1,2023-05-04_17h22.45.103,ga_syllabified_check,2022.2.5,Win32,60.08532116,,,,,,,,,,,,,,./stim/p07_syllable_1_palufauto_hit.wav,p07,palufauto,hit,pa-lu-fau-to,pa-lu-fau-to,pa-lu-fa-u-to, ,-0.346354167,-0.10546875,1,0,0,2.1502,text_option_1,,0,21,21,162,1
610af163338ebe0cb91d1cee,63f3cfca20052e4ae7554ebf,6453cd88b28d94ced8a9c7a1,2023-05-04_17h22.45.103,ga_syllabified_check,2022.2.5,Win32,60.08532116,,,,,,,,,,,,,,./stim/p07_syllable_1_costonhialo_hit.wav,p07,costoñialo,hit,cos-to-nhia-lo,cos-to-ñia-lo,cos-to-ñi-a-lo, ,-0.322916667,-0.091145833,1,0,0,2.5154,text_option_1,,0,22,22,137,1
610af163338ebe0cb91d1cee,63f3cfca20052e4ae7554ebf,6453cd88b28d94ced8a9c7a1,2023-05-04_17h22.45.103,ga_syllabified_check,2022.2.5,Win32,60.08532116,,,,,,,,,,,,,,./stim/p03_syllable_1_mebochiana_hit.wav,p03,mebochiana,hit,me-bo-chia-na,me-bo-chia-na,me-bo-chi-a-na, ,-0.30078125,-0.10546875,1,0,0,6.0508,text_option_1,,0,23,23,22,1
610af163338ebe0cb91d1cee,63f3cfca20052e4ae7554ebf,6453cd88b28d94ced8a9c7a1,2023-05-04_17h22.45.103,ga_syllabified_check,2022.2.5,Win32,60.08532116,,,,,,,,,,,,,,./stim/p08_syllable_1_lakagiaisto_hit.wav,p08,lakagiaisto,hit,la-ka-gi-jas-to,la-ka-giais-to,la-ka-gi-ais-to,la-ka-gia-is-to,0.395833333,-0.1171875,1,0,0,4.4318,text_option_2,,0,24,24,182,1
610af163338ebe0cb91d1cee,63f3cfca20052e4ae7554ebf,6453cd88b28d94ced8a9c7a1,2023-05-04_17h22.45.103,ga_syllabified_check,2022.2.5,Win32,60.08532116,,,,,,,,,,,,,,./stim/p08_syllable_1_falutraigo_hit.wav,p08,falutraigo,hit,fa-lu-trai-go,fa-lu-trai-go,fa-lu-tra-i-go, ,-0.341145833,-0.09765625,1,0,0,3.9004,text_option_1,,0,25,25,174,1
610af163338ebe0cb91d1cee,63f3cfca20052e4ae7554ebf,6453cd88b28d94ced8a9c7a1,2023-05-04_17h22.45.103,ga_syllabified_check,2022.2.5,Win32,60.08532116,,,,,,,,,,,,,,./stim/p06_syllable_1_lakatuaisto_hit.wav,p06,lakatuaisto,hit,la-ka-tu-a-is,la-ka-tuais-to,la-ka-tu-ais-to,la-ka-tua-is-to,-0.006510417,-0.3046875,1,0,0,9.032,text_option_other,la-ka-tu-ais-to,0,26,26,121,1
610af163338ebe0cb91d1cee,63f3cfca20052e4ae7554ebf,6453cd88b28d94ced8a9c7a1,2023-05-04_17h22.45.103,ga_syllabified_check,2022.2.5,Win32,60.08532116,,,,,,,,,,,,,,./stim/p03_syllable_1_lakakiaisto_hit.wav,p03,lakakiaisto,hit,la-ka-kiais-to,la-ka-kiais-to,la-ka-ki-ais-to,la-ka-kia-is-to,-0.346354167,-0.087239583,1,0,0,2.967,text_option_1,,0,27,27,14,1
610af163338ebe0cb91d1cee,63f3cfca20052e4ae7554ebf,6453cd88b28d94ced8a9c7a1,2023-05-04_17h22.45.103,ga_syllabified_check,2022.2.5,Win32,60.08532116,,,,,,,,,,,,,,./stim/p06_syllable_1_lakapuaisto_hit.wav,p06,lakapuaisto,hit,la-ka-pu-a-is,la-ka-puais-to,la-ka-pu-ais-to,la-ka-pua-is-to,0.411458333,-0.09765625,1,0,0,4.5335,text_option_2,,0,28,28,119,1
610af163338ebe0cb91d1cee,63f3cfca20052e4ae7554ebf,6453cd88b28d94ced8a9c7a1,2023-05-04_17h22.45.103,ga_syllabified_check,2022.2.5,Win32,60.08532116,,,,,,,,,,,,,,./stim/p03_syllable_1_costonhialo_hit.wav,p03,costoñialo,hit,cos-to-nhia-lo,cos-to-ñia-lo,cos-to-ñi-a-lo, ,-0.338541667,-0.09375,1,0,0,3.134,text_option_1,,0,29,29,1,1
610af163338ebe0cb91d1cee,63f3cfca20052e4ae7554ebf,6453cd88b28d94ced8a9c7a1,2023-05-04_17h22.45.103,ga_syllabified_check,2022.2.5,Win32,60.08532116,,,,,,,,,,,,,,./stim/p07_syllable_1_lakatiaisto_hit.wav,p07,lakatiaisto,hit,la-ka-tiai-sto,la-ka-tiais-to,la-ka-ti-ais-to,la-ka-tia-is-to,0.01953125,-0.100260417,1,0,0,4.58,text_option_3,,0,30,30,154,1
610af163338ebe0cb91d1cee,63f3cfca20052e4ae7554ebf,6453cd88b28d94ced8a9c7a1,2023-05-04_17h22.45.103,ga_syllabified_check,2022.2.5,Win32,60.08532116,,,,,,,,,,,,,,./stim/p03_syllable_1_rausto_hit.wav,p03,rausto,hit,raus-to,raus-to,ra-us-to, ,-0.3984375,-0.104166667,1,0,0,1.7005,text_option_1,,0,31,31,31,1
610af163338ebe0cb91d1cee,63f3cfca20052e4ae7554ebf,6453cd88b28d94ced8a9c7a1,2023-05-04_17h22.45.103,ga_syllabified_check,2022.2.5,Win32,60.08532116,,,,,,,,,,,,,,./stim/p08_syllable_1_chiaba_hit.wav,p08,chiaba,hit,chi-a-ba,chia-ba,chi-a-ba, ,0.373697917,-0.091145833,1,0,0,1.1169,text_option_2,,0,32,32,170,1
610af163338ebe0cb91d1cee,63f3cfca20052e4ae7554ebf,6453cd88b28d94ced8a9c7a1,2023-05-04_17h22.45.103,ga_syllabified_check,2022.2.5,Win32,60.08532116,,,,,,,,,,,,,,./stim/p08_syllable_1_palufauto_hit.wav,p08,palufauto,hit,pa-lu-fau-to,pa-lu-fau-to,pa-lu-fa-u-to, ,-0.358072917,-0.115885417,1,0,0,2.7669,text_option_1,,0,33,33,196,1
610af163338ebe0cb91d1cee,63f3cfca20052e4ae7554ebf,6453cd88b28d94ced8a9c7a1,2023-05-04_17h22.45.103,ga_syllabified_check,2022.2.5,Win32,60.08532116,,,,,,,,,,,,,,./stim/p04_syllable_1_lakafuaisto_hit.wav,p04,lakafuaisto,hit,la-ka-fuais-to,la-ka-fuais-to,la-ka-fu-ais-to,la-ka-fua-is-to,-0.337239583,-0.114583333,1,0,0,1.1497,text_option_1,,0,34,34,45,1
610af163338ebe0cb91d1cee,63f3cfca20052e4ae7554ebf,6453cd88b28d94ced8a9c7a1,2023-05-04_17h22.45.103,ga_syllabified_check,2022.2.5,Win32,60.08532116,,,,,,,,,,,,,,./stim/p07_syllable_1_lakabiaisto_hit.wav,p07,lakabiaisto,hit,la-ka-bais-to,la-ka-biais-to,la-ka-bi-ais-to,la-ka-bia-is-to,-0.065104167,-0.305989583,1,0,0,4.0339,text_option_other,la-ka-bais-to,0,35,35,142,1
610af163338ebe0cb91d1cee,63f3cfca20052e4ae7554ebf,6453cd88b28d94ced8a9c7a1,2023-05-04_17h22.45.103,ga_syllabified_check,2022.2.5,Win32,60.08532116,,,,,,,,,,,,,,./stim/p07_syllable_1_lakabuaisto_hit.wav,p07,lakabuaisto,hit,la-ka-buais-to,la-ka-buais-to,la-ka-bu-ais-to,la-ka-bua-is-to,-0.354166667,-0.098958333,1,0,0,3.3503,text_option_1,,0,36,36,143,1
610af163338ebe0cb91d1cee,63f3cfca20052e4ae7554ebf,6453cd88b28d94ced8a9c7a1,2023-05-04_17h22.45.103,ga_syllabified_check,2022.2.5,Win32,60.08532116,,,,,,,,,,,,,,./stim/p05_syllable_1_lakagiaisto_hit.wav,p05,lakagiaisto,hit,la-ka-ki-ais-to,la-ka-giais-to,la-ka-gi-ais-to,la-ka-gia-is-to,-0.3203125,-0.102864583,1,0,0,1.9503,text_option_1,,0,37,37,80,1
610af163338ebe0cb91d1cee,63f3cfca20052e4ae7554ebf,6453cd88b28d94ced8a9c7a1,2023-05-04_17h22.45.103,ga_syllabified_check,2022.2.5,Win32,60.08532116,,,,,,,,,,,,,,./stim/p07_syllable_1_mebochiana_hit.wav,p07,mebochiana,hit,me-bo-chia-na,me-bo-chia-na,me-bo-chi-a-na, ,-0.294270833,-0.102864583,1,0,0,1.934,text_option_1,,0,38,38,158,1
610af163338ebe0cb91d1cee,63f3cfca20052e4ae7554ebf,6453cd88b28d94ced8a9c7a1,2023-05-04_17h22.45.103,ga_syllabified_check,2022.2.5,Win32,60.08532116,,,,,,,,,,,,,,./stim/p04_syllable_1_lakagiaisto_hit.wav,p04,lakagiaisto,hit,la-ka-giais-to,la-ka-giais-to,la-ka-gi-ais-to,la-ka-gia-is-to,-0.32421875,-0.104166667,1,0,0,1.6496,text_option_1,,0,39,39,46,1
610af163338ebe0cb91d1cee,63f3cfca20052e4ae7554ebf,6453cd88b28d94ced8a9c7a1,2023-05-04_17h22.45.103,ga_syllabified_check,2022.2.5,Win32,60.08532116,,,,,,,,,,,,,,./stim/p05_syllable_1_lakaguaisto_hit.wav,p05,lakaguaisto,hit,la-ka-gais,la-ka-guais-to,la-ka-gu-ais-to,la-ka-gua-is-to,-0.0703125,-0.294270833,1,0,0,2.1011,text_option_other,la-ka-gais-to,0,40,40,81,1
610af163338ebe0cb91d1cee,63f3cfca20052e4ae7554ebf,6453cd88b28d94ced8a9c7a1,2023-05-04_17h22.45.103,ga_syllabified_check,2022.2.5,Win32,60.08532116,,,,,,,,,,,,,,./stim/p04_syllable_1_lakapiaisto_hit.wav,p04,lakapiaisto,hit,la-ka-piais-to,la-ka-piais-to,la-ka-pi-ais-to,la-ka-pia-is-to,-0.3359375,-0.1171875,1,0,0,2.167,text_option_1,,0,41,41,50,1
610af163338ebe0cb91d1cee,63f3cfca20052e4ae7554ebf,6453cd88b28d94ced8a9c7a1,2023-05-04_17h22.45.103,ga_syllabified_check,2022.2.5,Win32,60.08532116,,,,,,,,,,,,,,./stim/p03_syllable_1_manhiala_hit.wav,p03,mañiala,hit,ma-nhia-la,ma-ñia-la,ma-ñi-a-la, ,-0.342447917,-0.109375,1,0,0,1.5673,text_option_1,,0,42,42,21,1
610af163338ebe0cb91d1cee,63f3cfca20052e4ae7554ebf,6453cd88b28d94ced8a9c7a1,2023-05-04_17h22.45.103,ga_syllabified_check,2022.2.5,Win32,60.08532116,,,,,,,,,,,,,,./stim/p07_syllable_1_lakakiaisto_hit.wav,p07,lakakiaisto,hit,la-ka-kais-to,la-ka-kiais-to,la-ka-ki-ais-to,la-ka-kia-is-to,0.024739583,-0.290364583,1,0,0,3.5152,text_option_other,la-ka-kais-to,0,43,43,150,1
610af163338ebe0cb91d1cee,63f3cfca20052e4ae7554ebf,6453cd88b28d94ced8a9c7a1,2023-05-04_17h22.45.103,ga_syllabified_check,2022.2.5,Win32,60.08532116,,,,,,,,,,,,,,./stim/p03_syllable_1_chiaba_hit.wav,p03,chiaba,hit,chia-ba,chia-ba,chi-a-ba, ,-0.361979167,-0.100260417,1,0,0,1.9175,text_option_1,,0,44,44,0,1
610af163338ebe0cb91d1cee,63f3cfca20052e4ae7554ebf,6453cd88b28d94ced8a9c7a1,2023-05-04_17h22.45.103,ga_syllabified_check,2022.2.5,Win32,60.08532116,,,,,,,,,,,,,,./stim/p05_syllable_1_falufaisto_hit.wav,p05,falufaisto,hit,fa-lu-fais-to,fa-lu-fais-to,fa-lu-fa-is-to, ,0.395833333,-0.102864583,1,0,0,1.6657,text_option_2,,0,45,45,71,1
610af163338ebe0cb91d1cee,63f3cfca20052e4ae7554ebf,6453cd88b28d94ced8a9c7a1,2023-05-04_17h22.45.103,ga_syllabified_check,2022.2.5,Win32,60.08532116,,,,,,,,,,,,,,./stim/p03_syllable_1_lakadiaisto_hit.wav,p03,lakadiaisto,hit,la-ka-diais-to,la-ka-diais-to,la-ka-di-ais-to,la-ka-dia-is-to,-0.360677083,-0.10546875,1,0,0,2.7996,text_option_1,,0,46,46,8,1
610af163338ebe0cb91d1cee,63f3cfca20052e4ae7554ebf,6453cd88b28d94ced8a9c7a1,2023-05-04_17h22.45.103,ga_syllabified_check,2022.2.5,Win32,60.08532116,,,,,,,,,,,,,,./stim/p05_syllable_1_palufauro_hit.wav,p05,palufauro,hit,pa-lu-fau-ro,pa-lu-fau-ro,pa-lu-fa-u-ro, ,-0.33203125,-0.11328125,1,0,0,1.3001,text_option_1,,0,47,47,93,1
610af163338ebe0cb91d1cee,63f3cfca20052e4ae7554ebf,6453cd88b28d94ced8a9c7a1,2023-05-04_17h22.45.103,ga_syllabified_check,2022.2.5,Win32,60.08532116,,,,,,,,,,,,,,./stim/p05_syllable_1_payielo_hit.wav,p05,payielo,hit,pai-yu-we-lo,pa-yie-lo,pa-yi-e-lo, ,-0.005208333,-0.299479167,1,0,0,1.5835,text_option_other,pa-yue-lo,0,48,48,98,1
610af163338ebe0cb91d1cee,63f3cfca20052e4ae7554ebf,6453cd88b28d94ced8a9c7a1,2023-05-04_17h22.45.103,ga_syllabified_check,2022.2.5,Win32,60.08532116,,,,,,,,,,,,,,./stim/p04_syllable_1_rausto_hit.wav,p04,rausto,hit,raus-to,raus-to,ra-us-to, ,-0.3828125,-0.11328125,1,0,0,0.897,text_option_1,,0,49,49,65,1
610af163338ebe0cb91d1cee,63f3cfca20052e4ae7554ebf,6453cd88b28d94ced8a9c7a1,2023-05-04_17h22.45.103,ga_syllabified_check,2022.2.5,Win32,60.08532116,,,,,,,,,,,,,,./stim/p04_syllable_1_chiaba_hit.wav,p04,chiaba,hit,chia-ba,chia-ba,chi-a-ba, ,-0.375,-0.104166667,1,0,0,0.2005,text_option_1,,0,50,50,34,1
610af163338ebe0cb91d1cee,63f3cfca20052e4ae7554ebf,6453cd88b28d94ced8a9c7a1,2023-05-04_17h22.45.103,ga_syllabified_check,2022.2.5,Win32,60.08532116,,,,,,,,,,,,,,./stim/p06_syllable_1_lakabuaisto_hit.wav,p06,lakabuaisto,hit,la-ka-bu-a-is,la-ka-buais-to,la-ka-bu-ais-to,la-ka-bua-is-to,0.045572917,-0.3125,1,0,0,4.6668,text_option_other,la-ka-bu-a-is-to,0,51,51,109,1
610af163338ebe0cb91d1cee,63f3cfca20052e4ae7554ebf,6453cd88b28d94ced8a9c7a1,2023-05-04_17h22.45.103,ga_syllabified_check,2022.2.5,Win32,60.08532116,,,,,,,,,,,,,,./stim/p03_syllable_1_palufauro_hit.wav,p03,palufauro,hit,pa-lu-fau-ro,pa-lu-fau-ro,pa-lu-fa-u-ro, ,-0.388020833,-0.110677083,1,0,0,1.8838,text_option_1,,0,52,52,25,1
610af163338ebe0cb91d1cee,63f3cfca20052e4ae7554ebf,6453cd88b28d94ced8a9c7a1,2023-05-04_17h22.45.103,ga_syllabified_check,2022.2.5,Win32,60.08532116,,,,,,,,,,,,,,./stim/p05_syllable_1_flauro_hit.wav,p05,flauro,hit,fa-lu-ro,flau-ro,fla-u-ro, ,-0.024739583,-0.298177083,1,0,0,1.7504,text_option_other,fa-lu-ro,0,53,53,73,1
610af163338ebe0cb91d1cee,63f3cfca20052e4ae7554ebf,6453cd88b28d94ced8a9c7a1,2023-05-04_17h22.45.103,ga_syllabified_check,2022.2.5,Win32,60.08532116,,,,,,,,,,,,,,./stim/p07_syllable_1_palumaisto_hit.wav,p07,palumaisto,hit,pa-lu-mais-to,pa-lu-mais-to,pa-lu-ma-is-to, ,-0.02734375,-0.30859375,1,0,0,2.6668,text_option_other,,0,54,54,164,1
610af163338ebe0cb91d1cee,63f3cfca20052e4ae7554ebf,6453cd88b28d94ced8a9c7a1,2023-05-04_17h22.45.103,ga_syllabified_check,2022.2.5,Win32,60.08532116,,,,,,,,,,,,,,./stim/p07_syllable_1_palutrauco_hit.wav,p07,palutrauco,hit,pa-lu-trau-co,pa-lu-trau-co,pa-lu-tra-u-co, ,-0.334635417,-0.110677083,1,0,0,1.983,text_option_1,,0,55,55,165,1
610af163338ebe0cb91d1cee,63f3cfca20052e4ae7554ebf,6453cd88b28d94ced8a9c7a1,2023-05-04_17h22.45.103,ga_syllabified_check,2022.2.5,Win32,60.08532116,,,,,,,,,,,,,,./stim/p07_syllable_1_rausto_hit.wav,p07,rausto,hit,raus-to,raus-to,ra-us-to, ,-0.359375,-0.10546875,1,0,0,0.217,text_option_1,,0,56,56,167,1
610af163338ebe0cb91d1cee,63f3cfca20052e4ae7554ebf,6453cd88b28d94ced8a9c7a1,2023-05-04_17h22.45.103,ga_syllabified_check,2022.2.5,Win32,60.08532116,,,,,,,,,,,,,,./stim/p06_syllable_1_chiaba_hit.wav,p06,chiaba,hit,chi-a-ba,chia-ba,chi-a-ba, ,-0.359375,-0.11328125,1,0,0,2.2167,text_option_1,,0,57,57,102,1
610af163338ebe0cb91d1cee,63f3cfca20052e4ae7554ebf,6453cd88b28d94ced8a9c7a1,2023-05-04_17h22.45.103,ga_syllabified_check,2022.2.5,Win32,60.08532116,,,,,,,,,,,,,,./stim/p05_syllable_1_paluguato_hit.wav,p05,paluguato,hit,pa-lu-gau-to,pa-lu-gua-to,pa-lu-gu-a-to, ,0,-0.302083333,1,0,0,3.0675,text_option_other,pa-lu-cau-to,0,58,58,95,1
610af163338ebe0cb91d1cee,63f3cfca20052e4ae7554ebf,6453cd88b28d94ced8a9c7a1,2023-05-04_17h22.45.103,ga_syllabified_check,2022.2.5,Win32,60.08532116,,,,,,,,,,,,,,./stim/p06_syllable_1_palufauro_hit.wav,p06,palufauro,hit,pa-lu-fau-ro,pa-lu-fau-ro,pa-lu-fa-u-ro, ,0.3984375,-0.110677083,1,0,0,3.5829,text_option_2,,0,59,59,127,1
610af163338ebe0cb91d1cee,63f3cfca20052e4ae7554ebf,6453cd88b28d94ced8a9c7a1,2023-05-04_17h22.45.103,ga_syllabified_check,2022.2.5,Win32,60.08532116,,,,,,,,,,,,,,./stim/p04_syllable_1_nhiape_hit.wav,p04,ñiape,hit,nhia-pe,ñia-pe,ñi-a-pe, ,-0.453125,-0.1015625,1,0,0,0.5165,text_option_1,,0,60,60,57,1
610af163338ebe0cb91d1cee,63f3cfca20052e4ae7554ebf,6453cd88b28d94ced8a9c7a1,2023-05-04_17h22.45.103,ga_syllabified_check,2022.2.5,Win32,60.08532116,,,,,,,,,,,,,,./stim/p08_syllable_1_lakatuaisto_hit.wav,p08,lakatuaisto,hit,la-ka-tu-i-jis,la-ka-tuais-to,la-ka-tu-ais-to,la-ka-tua-is-to,0.356770833,-0.114583333,1,0,0,4.2166,text_option_2,,0,61,61,189,1
610af163338ebe0cb91d1cee,63f3cfca20052e4ae7554ebf,6453cd88b28d94ced8a9c7a1,2023-05-04_17h22.45.103,ga_syllabified_check,2022.2.5,Win32,60.08532116,,,,,,,,,,,,,,./stim/p06_syllable_1_manhiala_hit.wav,p06,mañiala,hit,ma-nhi-a-la,ma-ñia-la,ma-ñi-a-la, ,-0.391927083,-0.10546875,1,0,0,2.4332,text_option_1,,0,62,62,123,1
610af163338ebe0cb91d1cee,63f3cfca20052e4ae7554ebf,6453cd88b28d94ced8a9c7a1,2023-05-04_17h22.45.103,ga_syllabified_check,2022.2.5,Win32,60.08532116,,,,,,,,,,,,,,./stim/p06_syllable_1_faluduako_hit.wav,p06,faluduako,hit,fa-lu-dua-ko,fa-lu-dua-ko,fa-lu-du-a-ko, ,0.408854167,-0.104166667,1,0,0,3.4337,text_option_2,,0,63,63,104,1
610af163338ebe0cb91d1cee,63f3cfca20052e4ae7554ebf,6453cd88b28d94ced8a9c7a1,2023-05-04_17h22.45.103,ga_syllabified_check,2022.2.5,Win32,60.08532116,,,,,,,,,,,,,,./stim/p06_syllable_1_rausto_hit.wav,p06,rausto,hit,ra-us-to,raus-to,ra-us-to, ,0.403645833,-0.108072917,1,0,0,1.7506,text_option_2,,0,64,64,133,1
610af163338ebe0cb91d1cee,63f3cfca20052e4ae7554ebf,6453cd88b28d94ced8a9c7a1,2023-05-04_17h22.45.103,ga_syllabified_check,2022.2.5,Win32,60.08532116,,,,,,,,,,,,,,./stim/p07_syllable_1_pachialo_hit.wav,p07,pachialo,hit,pa-cha-lo,pa-chia-lo,pa-chi-a-lo, ,-0.411458333,-0.104166667,1,0,0,1.6002,text_option_1,,0,65,65,160,1
610af163338ebe0cb91d1cee,63f3cfca20052e4ae7554ebf,6453cd88b28d94ced8a9c7a1,2023-05-04_17h22.45.103,ga_syllabified_check,2022.2.5,Win32,60.08532116,,,,,,,,,,,,,,./stim/p03_syllable_1_lakapuaisto_hit.wav,p03,lakapuaisto,hit,la-ka-puais-to,la-ka-puais-to,la-ka-pu-ais-to,la-ka-pua-is-to,-0.34375,-0.088541667,1,0,0,3.4506,text_option_1,,0,66,66,17,1
610af163338ebe0cb91d1cee,63f3cfca20052e4ae7554ebf,6453cd88b28d94ced8a9c7a1,2023-05-04_17h22.45.103,ga_syllabified_check,2022.2.5,Win32,60.08532116,,,,,,,,,,,,,,./stim/p03_syllable_1_lakapiaisto_hit.wav,p03,lakapiaisto,hit,la-ka-piais-to,la-ka-piais-to,la-ka-pi-ais-to,la-ka-pia-is-to,-0.34765625,-0.100260417,1,0,0,1.4168,text_option_1,,0,67,67,16,1
610af163338ebe0cb91d1cee,63f3cfca20052e4ae7554ebf,6453cd88b28d94ced8a9c7a1,2023-05-04_17h22.45.103,ga_syllabified_check,2022.2.5,Win32,60.08532116,,,,,,,,,,,,,,./stim/p08_syllable_1_lakafuaisto_hit.wav,p08,lakafuaisto,hit,la-ka-fju-ais-to,la-ka-fuais-to,la-ka-fu-ais-to,la-ka-fua-is-to,0.37890625,-0.09375,1,0,0,5.5174,text_option_2,,0,68,68,181,1
610af163338ebe0cb91d1cee,63f3cfca20052e4ae7554ebf,6453cd88b28d94ced8a9c7a1,2023-05-04_17h22.45.103,ga_syllabified_check,2022.2.5,Win32,60.08532116,,,,,,,,,,,,,,./stim/p08_syllable_1_falufaisto_hit.wav,p08,falufaisto,hit,fa-lu-fais-to,fa-lu-fais-to,fa-lu-fa-is-to, ,-0.361979167,-0.1015625,1,0,0,1.9003,text_option_1,,0,69,69,173,1
610af163338ebe0cb91d1cee,63f3cfca20052e4ae7554ebf,6453cd88b28d94ced8a9c7a1,2023-05-04_17h22.45.103,ga_syllabified_check,2022.2.5,Win32,60.08532116,,,,,,,,,,,,,,./stim/p07_syllable_1_lakakuaisto_hit.wav,p07,lakakuaisto,hit,la-ka-kuais-to,la-ka-kuais-to,la-ka-ku-ais-to,la-ka-kua-is-to,-0.368489583,-0.11328125,1,0,0,4.935,text_option_1,,0,70,70,151,1
610af163338ebe0cb91d1cee,63f3cfca20052e4ae7554ebf,6453cd88b28d94ced8a9c7a1,2023-05-04_17h22.45.103,ga_syllabified_check,2022.2.5,Win32,60.08532116,,,,,,,,,,,,,,./stim/p05_syllable_1_palutrauco_hit.wav,p05,palutrauco,hit,pa-lu-trai-co,pa-lu-trau-co,pa-lu-tra-u-co, ,-0.049479167,-0.303385417,1,0,0,2.0994,text_option_other,pa-lu-trai-co,0,71,71,97,1
610af163338ebe0cb91d1cee,63f3cfca20052e4ae7554ebf,6453cd88b28d94ced8a9c7a1,2023-05-04_17h22.45.103,ga_syllabified_check,2022.2.5,Win32,60.08532116,,,,,,,,,,,,,,./stim/p07_syllable_1_palufauro_hit.wav,p07,palufauro,hit,pa-lu-fau-ro,pa-lu-fau-ro,pa-lu-fa-u-ro, ,-0.358072917,-0.1015625,1,0,0,3.1005,text_option_1,,0,72,72,161,1
610af163338ebe0cb91d1cee,63f3cfca20052e4ae7554ebf,6453cd88b28d94ced8a9c7a1,2023-05-04_17h22.45.103,ga_syllabified_check,2022.2.5,Win32,60.08532116,,,,,,,,,,,,,,./stim/p06_syllable_1_payielo_hit.wav,p06,payielo,hit,pa-yi-e-lo,pa-yie-lo,pa-yi-e-lo, ,0.427083333,-0.091145833,1,0,0,2.5844,text_option_2,,0,73,73,132,1
610af163338ebe0cb91d1cee,63f3cfca20052e4ae7554ebf,6453cd88b28d94ced8a9c7a1,2023-05-04_17h22.45.103,ga_syllabified_check,2022.2.5,Win32,60.08532116,,,,,,,,,,,,,,./stim/p04_syllable_1_lliape_hit.wav,p04,lliape,hit,lia-pe,llia-pe,lli-a-pe, ,-0.421875,-0.0859375,1,0,0,1.7002,text_option_1,,0,74,74,54,1
610af163338ebe0cb91d1cee,63f3cfca20052e4ae7554ebf,6453cd88b28d94ced8a9c7a1,2023-05-04_17h22.45.103,ga_syllabified_check,2022.2.5,Win32,60.08532116,,,,,,,,,,,,,,./stim/p05_syllable_1_costonhialo_hit.wav,p05,costoñialo,hit,cos-to-nhia-lo,cos-to-ñia-lo,cos-to-ñi-a-lo, ,-0.325520833,-0.111979167,1,0,0,4.4504,text_option_1,,0,75,75,69,1
610af163338ebe0cb91d1cee,63f3cfca20052e4ae7554ebf,6453cd88b28d94ced8a9c7a1,2023-05-04_17h22.45.103,ga_syllabified_check,2022.2.5,Win32,60.08532116,,,,,,,,,,,,,,./stim/p08_syllable_1_lakatiaisto_hit.wav,p08,lakatiaisto,hit,la-ka-ti-as-to,la-ka-tiais-to,la-ka-ti-ais-to,la-ka-tia-is-to,0.033854167,-0.298177083,1,0,0,5.9011,text_option_other,la-ka-tias-to,0,76,76,188,1
610af163338ebe0cb91d1cee,63f3cfca20052e4ae7554ebf,6453cd88b28d94ced8a9c7a1,2023-05-04_17h22.45.103,ga_syllabified_check,2022.2.5,Win32,60.08532116,,,,,,,,,,,,,,./stim/p07_syllable_1_tuliafo_hit.wav,p07,tuliafo,hit,tu-lia-fo,tu-lia-fo,tu-li-a-fo, ,-0.352864583,-0.11328125,1,0,0,0.7819,text_option_1,,0,77,77,169,1
610af163338ebe0cb91d1cee,63f3cfca20052e4ae7554ebf,6453cd88b28d94ced8a9c7a1,2023-05-04_17h22.45.103,ga_syllabified_check,2022.2.5,Win32,60.08532116,,,,,,,,,,,,,,./stim/p03_syllable_1_lakabiaisto_hit.wav,p03,lakabiaisto,hit,la-ka-biais-to,la-ka-biais-to,la-ka-bi-ais-to,la-ka-bia-is-to,-0.337239583,-0.088541667,1,0,0,2.4169,text_option_1,,0,78,78,6,1
610af163338ebe0cb91d1cee,63f3cfca20052e4ae7554ebf,6453cd88b28d94ced8a9c7a1,2023-05-04_17h22.45.103,ga_syllabified_check,2022.2.5,Win32,60.08532116,,,,,,,,,,,,,,./stim/p04_syllable_1_palumaisto_hit.wav,p04,palumaisto,hit,pa-lu-mais-to,pa-lu-mais-to,pa-lu-ma-is-to, ,-0.328125,-0.111979167,1,0,0,1.0672,text_option_1,,0,79,79,62,1
610af163338ebe0cb91d1cee,63f3cfca20052e4ae7554ebf,6453cd88b28d94ced8a9c7a1,2023-05-04_17h22.45.103,ga_syllabified_check,2022.2.5,Win32,60.08532116,,,,,,,,,,,,,,./stim/p04_syllable_1_lakadiaisto_hit.wav,p04,lakadiaisto,hit,la-ka-dias-to,la-ka-diais-to,la-ka-di-ais-to,la-ka-dia-is-to,-0.30859375,-0.087239583,1,0,0,0.9348,text_option_1,,0,80,80,42,1
610af163338ebe0cb91d1cee,63f3cfca20052e4ae7554ebf,6453cd88b28d94ced8a9c7a1,2023-05-04_17h22.45.103,ga_syllabified_check,2022.2.5,Win32,60.08532116,,,,,,,,,,,,,,./stim/p04_syllable_1_pachialo_hit.wav,p04,pachialo,hit,pa-chia-lo,pa-chia-lo,pa-chi-a-lo, ,-0.345052083,-0.09375,1,0,0,0.6327,text_option_1,,0,81,81,58,1
610af163338ebe0cb91d1cee,63f3cfca20052e4ae7554ebf,6453cd88b28d94ced8a9c7a1,2023-05-04_17h22.45.103,ga_syllabified_check,2022.2.5,Win32,60.08532116,,,,,,,,,,,,,,./stim/p03_syllable_1_payielo_hit.wav,p03,payielo,hit,pa-yie-lo,pa-yie-lo,pa-yi-e-lo, ,-0.330729167,-0.095052083,1,0,0,0.6495,text_option_1,,0,82,82,30,1
610af163338ebe0cb91d1cee,63f3cfca20052e4ae7554ebf,6453cd88b28d94ced8a9c7a1,2023-05-04_17h22.45.103,ga_syllabified_check,2022.2.5,Win32,60.08532116,,,,,,,,,,,,,,./stim/p08_syllable_1_palutrauco_hit.wav,p08,palutrauco,hit,pa-lu-trau-ko,pa-lu-trau-co,pa-lu-tra-u-co, ,-0.337239583,-0.100260417,1,0,0,1.9671,text_option_1,,0,83,83,199,1
610af163338ebe0cb91d1cee,63f3cfca20052e4ae7554ebf,6453cd88b28d94ced8a9c7a1,2023-05-04_17h22.45.103,ga_syllabified_check,2022.2.5,Win32,60.08532116,,,,,,,,,,,,,,./stim/p05_syllable_1_lakabuaisto_hit.wav,p05,lakabuaisto,hit,la-ka-buais-to,la-ka-buais-to,la-ka-bu-ais-to,la-ka-bua-is-to,-0.3203125,-0.08984375,1,0,0,1.2003,text_option_1,,0,84,84,75,1
610af163338ebe0cb91d1cee,63f3cfca20052e4ae7554ebf,6453cd88b28d94ced8a9c7a1,2023-05-04_17h22.45.103,ga_syllabified_check,2022.2.5,Win32,60.08532116,,,,,,,,,,,,,,./stim/p06_syllable_1_falutraigo_hit.wav,p06,falutraigo,hit,fa-lu-tra-i-go,fa-lu-trai-go,fa-lu-tra-i-go, ,0.40234375,-0.109375,1,0,0,3.7508,text_option_2,,0,85,85,106,1
610af163338ebe0cb91d1cee,63f3cfca20052e4ae7554ebf,6453cd88b28d94ced8a9c7a1,2023-05-04_17h22.45.103,ga_syllabified_check,2022.2.5,Win32,60.08532116,,,,,,,,,,,,,,./stim/p04_syllable_1_mebochiana_hit.wav,p04,mebochiana,hit,me-bo-chia-na,me-bo-chia-na,me-bo-chi-a-na, ,-0.385416667,-0.088541667,1,0,0,2.0502,text_option_1,,0,86,86,56,1
610af163338ebe0cb91d1cee,63f3cfca20052e4ae7554ebf,6453cd88b28d94ced8a9c7a1,2023-05-04_17h22.45.103,ga_syllabified_check,2022.2.5,Win32,60.08532116,,,,,,,,,,,,,,./stim/p04_syllable_1_faluduako_hit.wav,p04,faluduako,hit,fa-lu-dua-ko,fa-lu-dua-ko,fa-lu-du-a-ko, ,-0.315104167,-0.096354167,1,0,0,0.649,text_option_1,,0,87,87,36,1
610af163338ebe0cb91d1cee,63f3cfca20052e4ae7554ebf,6453cd88b28d94ced8a9c7a1,2023-05-04_17h22.45.103,ga_syllabified_check,2022.2.5,Win32,60.08532116,,,,,,,,,,,,,,./stim/p06_syllable_1_lakabiaisto_hit.wav,p06,lakabiaisto,hit,la-ka-bia-is-to,la-ka-biais-to,la-ka-bi-ais-to,la-ka-bia-is-to,-0.0234375,-0.096354167,1,0,0,4.1506,text_option_3,,0,88,88,108,1
610af163338ebe0cb91d1cee,63f3cfca20052e4ae7554ebf,6453cd88b28d94ced8a9c7a1,2023-05-04_17h22.45.103,ga_syllabified_check,2022.2.5,Win32,60.08532116,,,,,,,,,,,,,,./stim/p06_syllable_1_lakadiaisto_hit.wav,p06,lakadiaisto,hit,la-ka-dia-is-to,la-ka-diais-to,la-ka-di-ais-to,la-ka-dia-is-to,-0.01171875,-0.108072917,1,0,0,2.4339,text_option_3,,0,89,89,110,1
610af163338ebe0cb91d1cee,63f3cfca20052e4ae7554ebf,6453cd88b28d94ced8a9c7a1,2023-05-04_17h22.45.103,ga_syllabified_check,2022.2.5,Win32,60.08532116,,,,,,,,,,,,,,./stim/p06_syllable_1_ruyiola_hit.wav,p06,ruyiola,hit,ru-yi-o-la,ru-yio-la,ru-yi-o-la, ,0.39453125,-0.114583333,1,0,0,1.7004,text_option_2,,0,90,90,134,1
610af163338ebe0cb91d1cee,63f3cfca20052e4ae7554ebf,6453cd88b28d94ced8a9c7a1,2023-05-04_17h22.45.103,ga_syllabified_check,2022.2.5,Win32,60.08532116,,,,,,,,,,,,,,./stim/p05_syllable_1_rausto_hit.wav,p05,rausto,hit,raus-to,raus-to,ra-us-to, ,-0.412760417,-0.092447917,1,0,0,0.4482,text_option_1,,0,91,91,99,1
610af163338ebe0cb91d1cee,63f3cfca20052e4ae7554ebf,6453cd88b28d94ced8a9c7a1,2023-05-04_17h22.45.103,ga_syllabified_check,2022.2.5,Win32,60.08532116,,,,,,,,,,,,,,./stim/p06_syllable_1_lakakuaisto_hit.wav,p06,lakakuaisto,hit,la-ka-ku-a-is,la-ka-kuais-to,la-ka-ku-ais-to,la-ka-kua-is-to,0.3984375,-0.106770833,1,0,0,4.3837,text_option_2,,0,92,92,117,1
610af163338ebe0cb91d1cee,63f3cfca20052e4ae7554ebf,6453cd88b28d94ced8a9c7a1,2023-05-04_17h22.45.103,ga_syllabified_check,2022.2.5,Win32,60.08532116,,,,,,,,,,,,,,./stim/p08_syllable_1_flauro_hit.wav,p08,flauro,hit,flau-ro,flau-ro,fla-u-ro, ,-0.35546875,-0.109375,1,0,0,0.5492,text_option_1,,0,93,93,175,1
610af163338ebe0cb91d1cee,63f3cfca20052e4ae7554ebf,6453cd88b28d94ced8a9c7a1,2023-05-04_17h22.45.103,ga_syllabified_check,2022.2.5,Win32,60.08532116,,,,,,,,,,,,,,./stim/p08_syllable_1_tuliafo_hit.wav,p08,tuliafo,hit,tu-li-a-fo,tu-lia-fo,tu-li-a-fo, ,0.385416667,-0.096354167,1,0,0,1.5186,text_option_2,,0,94,94,203,1
610af163338ebe0cb91d1cee,63f3cfca20052e4ae7554ebf,6453cd88b28d94ced8a9c7a1,2023-05-04_17h22.45.103,ga_syllabified_check,2022.2.5,Win32,60.08532116,,,,,,,,,,,,,,./stim/p05_syllable_1_lakafuaisto_hit.wav,p05,lakafuaisto,hit,la-ka-fais-to,la-ka-fuais-to,la-ka-fu-ais-to,la-ka-fua-is-to,0.0078125,-0.294270833,1,0,0,1.5157,text_option_other,la-ka-fais-to,0,95,95,79,1
610af163338ebe0cb91d1cee,63f3cfca20052e4ae7554ebf,6453cd88b28d94ced8a9c7a1,2023-05-04_17h22.45.103,ga_syllabified_check,2022.2.5,Win32,60.08532116,,,,,,,,,,,,,,./stim/p07_syllable_1_lakagiaisto_hit.wav,p07,lakagiaisto,hit,la-ka-gais-to,la-ka-giais-to,la-ka-gi-ais-to,la-ka-gia-is-to,-0.381510417,-0.1015625,1,0,0,3.3341,text_option_1,,0,96,96,148,1
610af163338ebe0cb91d1cee,63f3cfca20052e4ae7554ebf,6453cd88b28d94ced8a9c7a1,2023-05-04_17h22.45.103,ga_syllabified_check,2022.2.5,Win32,60.08532116,,,,,,,,,,,,,,./stim/p04_syllable_1_lakabuaisto_hit.wav,p04,lakabuaisto,hit,la-ka-buais-to,la-ka-buais-to,la-ka-bu-ais-to,la-ka-bua-is-to,-0.311197917,-0.104166667,1,0,0,2.517,text_option_1,,0,97,97,41,1
610af163338ebe0cb91d1cee,63f3cfca20052e4ae7554ebf,6453cd88b28d94ced8a9c7a1,2023-05-04_17h22.45.103,ga_syllabified_check,2022.2.5,Win32,60.08532116,,,,,,,,,,,,,,./stim/p06_syllable_1_palumaisto_hit.wav,p06,palumaisto,hit,pa-lu-ma-is-to,pa-lu-mais-to,pa-lu-ma-is-to, ,0.458333333,-0.1015625,1,0,0,3.1173,text_option_2,,0,98,98,130,1
610af163338ebe0cb91d1cee,63f3cfca20052e4ae7554ebf,6453cd88b28d94ced8a9c7a1,2023-05-04_17h22.45.103,ga_syllabified_check,2022.2.5,Win32,60.08532116,,,,,,,,,,,,,,./stim/p03_syllable_1_palumaisto_hit.wav,p03,palumaisto,hit,pa-lu-mais-to,pa-lu-mais-to,pa-lu-ma-is-to, ,-0.3203125,-0.09765625,1,0,0,1.2668,text_option_1,,0,99,99,28,1
610af163338ebe0cb91d1cee,63f3cfca20052e4ae7554ebf,6453cd88b28d94ced8a9c7a1,2023-05-04_17h22.45.103,ga_syllabified_check,2022.2.5,Win32,60.08532116,,,,,,,,,,,,,,./stim/p03_syllable_1_palutrauco_hit.wav,p03,palutrauco,hit,pa-lu-trau-co,pa-lu-trau-co,pa-lu-tra-u-co, ,-0.313802083,-0.100260417,1,0,0,1.4824,text_option_1,,0,100,100,29,1
610af163338ebe0cb91d1cee,63f3cfca20052e4ae7554ebf,6453cd88b28d94ced8a9c7a1,2023-05-04_17h22.45.103,ga_syllabified_check,2022.2.5,Win32,60.08532116,,,,,,,,,,,,,,./stim/p08_syllable_1_lakabiaisto_hit.wav,p08,lakabiaisto,hit,la-ka-bi-as-to,la-ka-biais-to,la-ka-bi-ais-to,la-ka-bia-is-to,0.453125,-0.109375,1,0,0,4.5508,text_option_2,,0,101,101,176,1
610af163338ebe0cb91d1cee,63f3cfca20052e4ae7554ebf,6453cd88b28d94ced8a9c7a1,2023-05-04_17h22.45.103,ga_syllabified_check,2022.2.5,Win32,60.08532116,,,,,,,,,,,,,,./stim/p07_syllable_1_faluduako_hit.wav,p07,faluduako,hit,fa-lu-dua-ko,fa-lu-dua-ko,fa-lu-du-a-ko, ,-0.334635417,-0.102864583,1,0,0,2.0995,text_option_1,,0,102,102,138,1
610af163338ebe0cb91d1cee,63f3cfca20052e4ae7554ebf,6453cd88b28d94ced8a9c7a1,2023-05-04_17h22.45.103,ga_syllabified_check,2022.2.5,Win32,60.08532116,,,,,,,,,,,,,,./stim/p03_syllable_1_paluguato_hit.wav,p03,paluguato,hit,pa-lu-gua,pa-lu-gua-to,pa-lu-gu-a-to, ,-0.295572917,-0.098958333,1,0,0,0.7504,text_option_1,,0,103,103,27,1
610af163338ebe0cb91d1cee,63f3cfca20052e4ae7554ebf,6453cd88b28d94ced8a9c7a1,2023-05-04_17h22.45.103,ga_syllabified_check,2022.2.5,Win32,60.08532116,,,,,,,,,,,,,,./stim/p04_syllable_1_lakabiaisto_hit.wav,p04,lakabiaisto,hit,la-ka-biais-to,la-ka-biais-to,la-ka-bi-ais-to,la-ka-bia-is-to,-0.3515625,-0.1015625,1,0,0,1.6337,text_option_1,,0,104,104,40,1
610af163338ebe0cb91d1cee,63f3cfca20052e4ae7554ebf,6453cd88b28d94ced8a9c7a1,2023-05-04_17h22.45.103,ga_syllabified_check,2022.2.5,Win32,60.08532116,,,,,,,,,,,,,,./stim/p03_syllable_1_nhiape_hit.wav,p03,ñiape,hit,nhia-pe,ñia-pe,ñi-a-pe, ,-0.359375,-0.104166667,1,0,0,0.5497,text_option_1,,0,105,105,23,1
610af163338ebe0cb91d1cee,63f3cfca20052e4ae7554ebf,6453cd88b28d94ced8a9c7a1,2023-05-04_17h22.45.103,ga_syllabified_check,2022.2.5,Win32,60.08532116,,,,,,,,,,,,,,./stim/p06_syllable_1_lakafiaisto_hit.wav,p06,lakafiaisto,hit,la-ka-fia-is-to,la-ka-fiais-to,la-ka-fi-ais-to,la-ka-fia-is-to,0.045572917,-0.111979167,1,0,0,4.4171,text_option_3,,0,106,106,112,1
610af163338ebe0cb91d1cee,63f3cfca20052e4ae7554ebf,6453cd88b28d94ced8a9c7a1,2023-05-04_17h22.45.103,ga_syllabified_check,2022.2.5,Win32,60.08532116,,,,,,,,,,,,,,./stim/p07_syllable_1_lakaguaisto_hit.wav,p07,lakaguaisto,hit,la-ka-guais-to,la-ka-guais-to,la-ka-gu-ais-to,la-ka-gua-is-to,-0.37890625,-0.088541667,1,0,0,3.5337,text_option_1,,0,107,107,149,1
610af163338ebe0cb91d1cee,63f3cfca20052e4ae7554ebf,6453cd88b28d94ced8a9c7a1,2023-05-04_17h22.45.103,ga_syllabified_check,2022.2.5,Win32,60.08532116,,,,,,,,,,,,,,./stim/p05_syllable_1_falutraigo_hit.wav,p05,falutraigo,hit,fa-lu-trai-go,fa-lu-trai-go,fa-lu-tra-i-go, ,-0.333333333,-0.104166667,1,0,0,1.0647,text_option_1,,0,108,108,72,1
610af163338ebe0cb91d1cee,63f3cfca20052e4ae7554ebf,6453cd88b28d94ced8a9c7a1,2023-05-04_17h22.45.103,ga_syllabified_check,2022.2.5,Win32,60.08532116,,,,,,,,,,,,,,./stim/p05_syllable_1_chiaba_hit.wav,p05,chiaba,hit,chia-ba,chia-ba,chi-a-ba, ,-0.403645833,-0.106770833,1,0,0,2.4829,text_option_1,,0,109,109,68,1
610af163338ebe0cb91d1cee,63f3cfca20052e4ae7554ebf,6453cd88b28d94ced8a9c7a1,2023-05-04_17h22.45.103,ga_syllabified_check,2022.2.5,Win32,60.08532116,,,,,,,,,,,,,,./stim/p08_syllable_1_lakapuaisto_hit.wav,p08,lakapuaisto,hit,la-ka-pu-as-to,la-ka-puais-to,la-ka-pu-ais-to,la-ka-pua-is-to,0.01171875,-0.295572917,1,0,0,4.1325,text_option_other,la-ka-pu-as-to,0,110,110,187,1
610af163338ebe0cb91d1cee,63f3cfca20052e4ae7554ebf,6453cd88b28d94ced8a9c7a1,2023-05-04_17h22.45.103,ga_syllabified_check,2022.2.5,Win32,60.08532116,,,,,,,,,,,,,,./stim/p05_syllable_1_lakakiaisto_hit.wav,p05,lakakiaisto,hit,la-ka-ki-ais-to,la-ka-kiais-to,la-ka-ki-ais-to,la-ka-kia-is-to,-0.317708333,-0.102864583,1,0,0,2.1499,text_option_1,,0,111,111,82,1
610af163338ebe0cb91d1cee,63f3cfca20052e4ae7554ebf,6453cd88b28d94ced8a9c7a1,2023-05-04_17h22.45.103,ga_syllabified_check,2022.2.5,Win32,60.08532116,,,,,,,,,,,,,,./stim/p05_syllable_1_pachialo_hit.wav,p05,pachialo,hit,pan-chia-lo,pa-chia-lo,pa-chi-a-lo, ,-0.381510417,-0.098958333,1,0,0,1.5828,text_option_1,,0,112,112,92,1
610af163338ebe0cb91d1cee,63f3cfca20052e4ae7554ebf,6453cd88b28d94ced8a9c7a1,2023-05-04_17h22.45.103,ga_syllabified_check,2022.2.5,Win32,60.08532116,,,,,,,,,,,,,,./stim/p06_syllable_1_palufauto_hit.wav,p06,palufauto,hit,pa-lu-fau-to,pa-lu-fau-to,pa-lu-fa-u-to, ,-0.33984375,-0.109375,1,0,0,2.9505,text_option_1,,0,113,113,128,1
610af163338ebe0cb91d1cee,63f3cfca20052e4ae7554ebf,6453cd88b28d94ced8a9c7a1,2023-05-04_17h22.45.103,ga_syllabified_check,2022.2.5,Win32,60.08532116,,,,,,,,,,,,,,./stim/p07_syllable_1_lliape_hit.wav,p07,lliape,hit,lliai-pe,llia-pe,lli-a-pe, ,-0.373697917,-0.108072917,1,0,0,2.2152,text_option_1,,0,114,114,156,1
610af163338ebe0cb91d1cee,63f3cfca20052e4ae7554ebf,6453cd88b28d94ced8a9c7a1,2023-05-04_17h22.45.103,ga_syllabified_check,2022.2.5,Win32,60.08532116,,,,,,,,,,,,,,./stim/p03_syllable_1_lakatuaisto_hit.wav,p03,lakatuaisto,hit,la-ka-tuais-to,la-ka-tuais-to,la-ka-tu-ais-to,la-ka-tua-is-to,-0.330729167,-0.098958333,1,0,0,1.1172,text_option_1,,0,115,115,19,1
610af163338ebe0cb91d1cee,63f3cfca20052e4ae7554ebf,6453cd88b28d94ced8a9c7a1,2023-05-04_17h22.45.103,ga_syllabified_check,2022.2.5,Win32,60.08532116,,,,,,,,,,,,,,./stim/p04_syllable_1_manhiala_hit.wav,p04,mañiala,hit,ma-nhia-la,ma-ñia-la,ma-ñi-a-la, ,-0.37109375,-0.102864583,1,0,0,1.3171,text_option_1,,0,116,116,55,1
610af163338ebe0cb91d1cee,63f3cfca20052e4ae7554ebf,6453cd88b28d94ced8a9c7a1,2023-05-04_17h22.45.103,ga_syllabified_check,2022.2.5,Win32,60.08532116,,,,,,,,,,,,,,./stim/p07_syllable_1_nhiape_hit.wav,p07,ñiape,hit,nhia-pe,ñia-pe,ñi-a-pe, ,-0.377604167,-0.108072917,1,0,0,0.583,text_option_1,,0,117,117,159,1
610af163338ebe0cb91d1cee,63f3cfca20052e4ae7554ebf,6453cd88b28d94ced8a9c7a1,2023-05-04_17h22.45.103,ga_syllabified_check,2022.2.5,Win32,60.08532116,,,,,,,,,,,,,,./stim/p04_syllable_1_lakapuaisto_hit.wav,p04,lakapuaisto,hit,la-ka-puais-to,la-ka-puais-to,la-ka-pu-ais-to,la-ka-pua-is-to,-0.350260417,-0.10546875,1,0,0,0.6323,text_option_1,,0,118,118,51,1
610af163338ebe0cb91d1cee,63f3cfca20052e4ae7554ebf,6453cd88b28d94ced8a9c7a1,2023-05-04_17h22.45.103,ga_syllabified_check,2022.2.5,Win32,60.08532116,,,,,,,,,,,,,,./stim/p08_syllable_1_lakaguaisto_hit.wav,p08,lakaguaisto,hit,la-ka-gu-ais-to,la-ka-guais-to,la-ka-gu-ais-to,la-ka-gua-is-to,0.466145833,-0.102864583,1,0,0,4.3003,text_option_2,,0,119,119,183,1
610af163338ebe0cb91d1cee,63f3cfca20052e4ae7554ebf,6453cd88b28d94ced8a9c7a1,2023-05-04_17h22.45.103,ga_syllabified_check,2022.2.5,Win32,60.08532116,,,,,,,,,,,,,,./stim/p03_syllable_1_lakabuaisto_hit.wav,p03,lakabuaisto,hit,la-ka-buais-to,la-ka-buais-to,la-ka-bu-ais-to,la-ka-bua-is-to,-0.31640625,-0.115885417,1,0,0,1.984,text_option_1,,0,120,120,7,1
610af163338ebe0cb91d1cee,63f3cfca20052e4ae7554ebf,6453cd88b28d94ced8a9c7a1,2023-05-04_17h22.45.103,ga_syllabified_check,2022.2.5,Win32,60.08532116,,,,,,,,,,,,,,./stim/p04_syllable_1_palufauto_hit.wav,p04,palufauto,hit,pa-lu-fau-to,pa-lu-fau-to,pa-lu-fa-u-to, ,-0.3671875,-0.110677083,1,0,0,2.8835,text_option_1,,0,121,121,60,1
610af163338ebe0cb91d1cee,63f3cfca20052e4ae7554ebf,6453cd88b28d94ced8a9c7a1,2023-05-04_17h22.45.103,ga_syllabified_check,2022.2.5,Win32,60.08532116,,,,,,,,,,,,,,./stim/p03_syllable_1_palufauto_hit.wav,p03,palufauto,hit,pa-lu-fau,pa-lu-fau-to,pa-lu-fa-u-to, ,-0.385416667,-0.106770833,1,0,0,1.4669,text_option_1,,0,122,122,26,1
610af163338ebe0cb91d1cee,63f3cfca20052e4ae7554ebf,6453cd88b28d94ced8a9c7a1,2023-05-04_17h22.45.103,ga_syllabified_check,2022.2.5,Win32,60.08532116,,,,,,,,,,,,,,./stim/p06_syllable_1_lakagiaisto_hit.wav,p06,lakagiaisto,hit,la-ka-gia-is-to,la-ka-giais-to,la-ka-gi-ais-to,la-ka-gia-is-to,-0.00390625,-0.108072917,1,0,0,3.7668,text_option_3,,0,123,123,114,1
610af163338ebe0cb91d1cee,63f3cfca20052e4ae7554ebf,6453cd88b28d94ced8a9c7a1,2023-05-04_17h22.45.103,ga_syllabified_check,2022.2.5,Win32,60.08532116,,,,,,,,,,,,,,./stim/p07_syllable_1_lakaduaisto_hit.wav,p07,lakaduaisto,hit,la-ka-duais-to,la-ka-duais-to,la-ka-du-ais-to,la-ka-dua-is-to,-0.326822917,-0.114583333,1,0,0,3.2167,text_option_1,,0,124,124,145,1
610af163338ebe0cb91d1cee,63f3cfca20052e4ae7554ebf,6453cd88b28d94ced8a9c7a1,2023-05-04_17h22.45.103,ga_syllabified_check,2022.2.5,Win32,60.08532116,,,,,,,,,,,,,,./stim/p05_syllable_1_lakabiaisto_hit.wav,p05,lakabiaisto,hit,la-ka-bi-ais-to,la-ka-biais-to,la-ka-bi-ais-to,la-ka-bia-is-to,-0.322916667,-0.104166667,1,0,0,1.3503,text_option_1,,0,125,125,74,1
610af163338ebe0cb91d1cee,63f3cfca20052e4ae7554ebf,6453cd88b28d94ced8a9c7a1,2023-05-04_17h22.45.103,ga_syllabified_check,2022.2.5,Win32,60.08532116,,,,,,,,,,,,,,./stim/p07_syllable_1_payielo_hit.wav,p07,payielo,hit,pa-yie-lo,pa-yie-lo,pa-yi-e-lo, ,-0.34765625,-0.104166667,1,0,0,0.4798,text_option_1,,0,126,126,166,1
610af163338ebe0cb91d1cee,63f3cfca20052e4ae7554ebf,6453cd88b28d94ced8a9c7a1,2023-05-04_17h22.45.103,ga_syllabified_check,2022.2.5,Win32,60.08532116,,,,,,,,,,,,,,./stim/p06_syllable_1_nhiape_hit.wav,p06,ñiape,hit,nhi-a-pe,ñia-pe,ñi-a-pe, ,0.393229167,-0.088541667,1,0,0,1.6501,text_option_2,,0,127,127,125,1
610af163338ebe0cb91d1cee,63f3cfca20052e4ae7554ebf,6453cd88b28d94ced8a9c7a1,2023-05-04_17h22.45.103,ga_syllabified_check,2022.2.5,Win32,60.08532116,,,,,,,,,,,,,,./stim/p06_syllable_1_lakatiaisto_hit.wav,p06,lakatiaisto,hit,la-ka-pia-is-to,la-ka-tiais-to,la-ka-ti-ais-to,la-ka-tia-is-to,-0.048177083,-0.305989583,1,0,0,11.9676,text_option_other,la-ka-bia-is-to,0,128,128,120,1
610af163338ebe0cb91d1cee,63f3cfca20052e4ae7554ebf,6453cd88b28d94ced8a9c7a1,2023-05-04_17h22.45.103,ga_syllabified_check,2022.2.5,Win32,60.08532116,,,,,,,,,,,,,,./stim/p04_syllable_1_tuliafo_hit.wav,p04,tuliafo,hit,tu-lia-fo,tu-lia-fo,tu-li-a-fo, ,-0.368489583,-0.108072917,1,0,0,0.4157,text_option_1,,0,129,129,67,1
610af163338ebe0cb91d1cee,63f3cfca20052e4ae7554ebf,6453cd88b28d94ced8a9c7a1,2023-05-04_17h22.45.103,ga_syllabified_check,2022.2.5,Win32,60.08532116,,,,,,,,,,,,,,./stim/p05_syllable_1_palumaisto_hit.wav,p05,palumaisto,hit,pa-lu-mais-to,pa-lu-mais-to,pa-lu-ma-is-to, ,-0.388020833,-0.09765625,1,0,0,0.4485,text_option_1,,0,130,130,96,1
610af163338ebe0cb91d1cee,63f3cfca20052e4ae7554ebf,6453cd88b28d94ced8a9c7a1,2023-05-04_17h22.45.103,ga_syllabified_check,2022.2.5,Win32,60.08532116,,,,,,,,,,,,,,./stim/p08_syllable_1_costonhialo_hit.wav,p08,costoñialo,hit,cos-to-nhia-lo,cos-to-ñia-lo,cos-to-ñi-a-lo, ,-0.326822917,-0.109375,1,0,0,2.6504,text_option_1,,0,131,131,171,1
610af163338ebe0cb91d1cee,63f3cfca20052e4ae7554ebf,6453cd88b28d94ced8a9c7a1,2023-05-04_17h22.45.103,ga_syllabified_check,2022.2.5,Win32,60.08532116,,,,,,,,,,,,,,./stim/p08_syllable_1_paluguato_hit.wav,p08,paluguato,hit,pa-lu-gua-to,pa-lu-gua-to,pa-lu-gu-a-to, ,-0.338541667,-0.11328125,1,0,0,1.9002,text_option_1,,0,132,132,197,1
610af163338ebe0cb91d1cee,63f3cfca20052e4ae7554ebf,6453cd88b28d94ced8a9c7a1,2023-05-04_17h22.45.103,ga_syllabified_check,2022.2.5,Win32,60.08532116,,,,,,,,,,,,,,./stim/p06_syllable_1_pachialo_hit.wav,p06,pachialo,hit,pa-shi-a-lo,pa-chia-lo,pa-chi-a-lo, ,0.37109375,-0.11328125,1,0,0,1.1,text_option_2,,0,133,133,126,1
610af163338ebe0cb91d1cee,63f3cfca20052e4ae7554ebf,6453cd88b28d94ced8a9c7a1,2023-05-04_17h22.45.103,ga_syllabified_check,2022.2.5,Win32,60.08532116,,,,,,,,,,,,,,./stim/p07_syllable_1_lakapiaisto_hit.wav,p07,lakapiaisto,hit,la-ka-pia-sto,la-ka-piais-to,la-ka-pi-ais-to,la-ka-pia-is-to,-0.3671875,-0.1015625,1,0,0,5.0003,text_option_1,,0,134,134,152,1
610af163338ebe0cb91d1cee,63f3cfca20052e4ae7554ebf,6453cd88b28d94ced8a9c7a1,2023-05-04_17h22.45.103,ga_syllabified_check,2022.2.5,Win32,60.08532116,,,,,,,,,,,,,,./stim/p03_syllable_1_ruyiola_hit.wav,p03,ruyiola,hit,ru-yio-la,ru-yio-la,ru-yi-o-la, ,-0.375,-0.104166667,1,0,0,0.6321,text_option_1,,0,135,135,32,1
610af163338ebe0cb91d1cee,63f3cfca20052e4ae7554ebf,6453cd88b28d94ced8a9c7a1,2023-05-04_17h22.45.103,ga_syllabified_check,2022.2.5,Win32,60.08532116,,,,,,,,,,,,,,./stim/p03_syllable_1_lakafuaisto_hit.wav,p03,lakafuaisto,hit,la-ka-fuais-to,la-ka-fuais-to,la-ka-fu-ais-to,la-ka-fua-is-to,-0.325520833,-0.11328125,1,0,0,1.1998,text_option_1,,0,136,136,11,1
610af163338ebe0cb91d1cee,63f3cfca20052e4ae7554ebf,6453cd88b28d94ced8a9c7a1,2023-05-04_17h22.45.103,ga_syllabified_check,2022.2.5,Win32,60.08532116,,,,,,,,,,,,,,./stim/p05_syllable_1_lakatuaisto_hit.wav,p05,lakatuaisto,hit,la-ka-tais-to,la-ka-tuais-to,la-ka-tu-ais-to,la-ka-tua-is-to,-0.361979167,-0.102864583,1,0,0,3.0506,text_option_1,,0,137,137,87,1
610af163338ebe0cb91d1cee,63f3cfca20052e4ae7554ebf,6453cd88b28d94ced8a9c7a1,2023-05-04_17h22.45.103,ga_syllabified_check,2022.2.5,Win32,60.08532116,,,,,,,,,,,,,,./stim/p06_syllable_1_falufaisto_hit.wav,p06,falufaisto,hit,fa-lu-fa-is-to,fa-lu-fais-to,fa-lu-fa-is-to, ,0.384114583,-0.110677083,1,0,0,2.7338,text_option_2,,0,138,138,105,1
610af163338ebe0cb91d1cee,63f3cfca20052e4ae7554ebf,6453cd88b28d94ced8a9c7a1,2023-05-04_17h22.45.103,ga_syllabified_check,2022.2.5,Win32,60.08532116,,,,,,,,,,,,,,./stim/p08_syllable_1_rausto_hit.wav,p08,rausto,hit,raus-to,raus-to,ra-us-to, ,-0.368489583,-0.114583333,1,0,0,0.4645,text_option_1,,0,139,139,201,1
610af163338ebe0cb91d1cee,63f3cfca20052e4ae7554ebf,6453cd88b28d94ced8a9c7a1,2023-05-04_17h22.45.103,ga_syllabified_check,2022.2.5,Win32,60.08532116,,,,,,,,,,,,,,./stim/p07_syllable_1_flauro_hit.wav,p07,flauro,hit,flau-ro,flau-ro,fla-u-ro, ,-0.381510417,-0.104166667,1,0,0,0.1336,text_option_1,,0,140,140,141,1
610af163338ebe0cb91d1cee,63f3cfca20052e4ae7554ebf,6453cd88b28d94ced8a9c7a1,2023-05-04_17h22.45.103,ga_syllabified_check,2022.2.5,Win32,60.08532116,,,,,,,,,,,,,,./stim/p05_syllable_1_nhiape_hit.wav,p05,ñiape,hit,nhia-pe,ñia-pe,ñi-a-pe, ,-0.37890625,-0.09765625,1,0,0,0.215,text_option_1,,0,141,141,91,1
610af163338ebe0cb91d1cee,63f3cfca20052e4ae7554ebf,6453cd88b28d94ced8a9c7a1,2023-05-04_17h22.45.103,ga_syllabified_check,2022.2.5,Win32,60.08532116,,,,,,,,,,,,,,./stim/p08_syllable_1_ruyiola_hit.wav,p08,ruyiola,hit,ru-yio-la,ru-yio-la,ru-yi-o-la, ,-0.354166667,-0.106770833,1,0,0,0.999,text_option_1,,0,142,142,202,1
610af163338ebe0cb91d1cee,63f3cfca20052e4ae7554ebf,6453cd88b28d94ced8a9c7a1,2023-05-04_17h22.45.103,ga_syllabified_check,2022.2.5,Win32,60.08532116,,,,,,,,,,,,,,./stim/p07_syllable_1_lakadiaisto_hit.wav,p07,lakadiaisto,hit,la-ka-dia-is-to,la-ka-diais-to,la-ka-di-ais-to,la-ka-dia-is-to,-0.0625,-0.095052083,1,0,0,2.4317,text_option_3,,0,143,143,144,1
610af163338ebe0cb91d1cee,63f3cfca20052e4ae7554ebf,6453cd88b28d94ced8a9c7a1,2023-05-04_17h22.45.103,ga_syllabified_check,2022.2.5,Win32,60.08532116,,,,,,,,,,,,,,./stim/p03_syllable_1_lliape_hit.wav,p03,lliape,hit,llia,llia-pe,lli-a-pe, ,-0.385416667,-0.106770833,1,0,0,2.2505,text_option_1,,0,144,144,20,1
610af163338ebe0cb91d1cee,63f3cfca20052e4ae7554ebf,6453cd88b28d94ced8a9c7a1,2023-05-04_17h22.45.103,ga_syllabified_check,2022.2.5,Win32,60.08532116,,,,,,,,,,,,,,./stim/p04_syllable_1_lakakuaisto_hit.wav,p04,lakakuaisto,hit,la-ka-kuais-to,la-ka-kuais-to,la-ka-ku-ais-to,la-ka-kua-is-to,-0.368489583,-0.108072917,1,0,0,0.8853,text_option_1,,0,145,145,49,1
610af163338ebe0cb91d1cee,63f3cfca20052e4ae7554ebf,6453cd88b28d94ced8a9c7a1,2023-05-04_17h22.45.103,ga_syllabified_check,2022.2.5,Win32,60.08532116,,,,,,,,,,,,,,./stim/p07_syllable_1_manhiala_hit.wav,p07,mañiala,hit,ma-nhia-la,ma-ñia-la,ma-ñi-a-la, ,-0.3671875,-0.114583333,1,0,0,0.6502,text_option_1,,0,146,146,157,1
610af163338ebe0cb91d1cee,63f3cfca20052e4ae7554ebf,6453cd88b28d94ced8a9c7a1,2023-05-04_17h22.45.103,ga_syllabified_check,2022.2.5,Win32,60.08532116,,,,,,,,,,,,,,./stim/p06_syllable_1_lakaduaisto_hit.wav,p06,lakaduaisto,hit,la-ka-du-a-is,la-ka-duais-to,la-ka-du-ais-to,la-ka-dua-is-to,0.463541667,-0.096354167,1,0,0,2.7503,text_option_2,,0,147,147,111,1
610af163338ebe0cb91d1cee,63f3cfca20052e4ae7554ebf,6453cd88b28d94ced8a9c7a1,2023-05-04_17h22.45.103,ga_syllabified_check,2022.2.5,Win32,60.08532116,,,,,,,,,,,,,,./stim/p03_syllable_1_flauro_hit.wav,p03,flauro,hit,flau-ro,flau-ro,fla-u-ro, ,-0.3671875,-0.115885417,1,0,0,0.2824,text_option_1,,0,148,148,5,1
610af163338ebe0cb91d1cee,63f3cfca20052e4ae7554ebf,6453cd88b28d94ced8a9c7a1,2023-05-04_17h22.45.103,ga_syllabified_check,2022.2.5,Win32,60.08532116,,,,,,,,,,,,,,./stim/p08_syllable_1_palumaisto_hit.wav,p08,palumaisto,hit,pa-lu-mais-to,pa-lu-mais-to,pa-lu-ma-is-to, ,-0.34765625,-0.111979167,1,0,0,1.4004,text_option_1,,0,149,149,198,1
610af163338ebe0cb91d1cee,63f3cfca20052e4ae7554ebf,6453cd88b28d94ced8a9c7a1,2023-05-04_17h22.45.103,ga_syllabified_check,2022.2.5,Win32,60.08532116,,,,,,,,,,,,,,./stim/p03_syllable_1_lakaguaisto_hit.wav,p03,lakaguaisto,hit,la-ka-guais-to,la-ka-guais-to,la-ka-gu-ais-to,la-ka-gua-is-to,-0.302083333,-0.1171875,1,0,0,0.9339,text_option_1,,0,150,150,13,1
610af163338ebe0cb91d1cee,63f3cfca20052e4ae7554ebf,6453cd88b28d94ced8a9c7a1,2023-05-04_17h22.45.103,ga_syllabified_check,2022.2.5,Win32,60.08532116,,,,,,,,,,,,,,./stim/p07_syllable_1_lakapuaisto_hit.wav,p07,lakapuaisto,hit,la-ka-puais-to,la-ka-puais-to,la-ka-pu-ais-to,la-ka-pua-is-to,-0.334635417,-0.110677083,1,0,0,1.6491,text_option_1,,0,151,151,153,1
610af163338ebe0cb91d1cee,63f3cfca20052e4ae7554ebf,6453cd88b28d94ced8a9c7a1,2023-05-04_17h22.45.103,ga_syllabified_check,2022.2.5,Win32,60.08532116,,,,,,,,,,,,,,./stim/p07_syllable_1_lakafiaisto_hit.wav,p07,lakafiaisto,hit,la-ka-fiais-to,la-ka-fiais-to,la-ka-fi-ais-to,la-ka-fia-is-to,-0.338541667,-0.10546875,1,0,0,1.1169,text_option_1,,0,152,152,146,1
610af163338ebe0cb91d1cee,63f3cfca20052e4ae7554ebf,6453cd88b28d94ced8a9c7a1,2023-05-04_17h22.45.103,ga_syllabified_check,2022.2.5,Win32,60.08532116,,,,,,,,,,,,,,./stim/p06_syllable_1_tuliafo_hit.wav,p06,tuliafo,hit,tu-li-a-fo,tu-lia-fo,tu-li-a-fo, ,0.43359375,-0.111979167,1,0,0,1.3001,text_option_2,,0,153,153,135,1
610af163338ebe0cb91d1cee,63f3cfca20052e4ae7554ebf,6453cd88b28d94ced8a9c7a1,2023-05-04_17h22.45.103,ga_syllabified_check,2022.2.5,Win32,60.08532116,,,,,,,,,,,,,,./stim/p03_syllable_1_falutraigo_hit.wav,p03,falutraigo,hit,fa-lu-trai-go,fa-lu-trai-go,fa-lu-tra-i-go, ,-0.368489583,-0.104166667,1,0,0,0.9824,text_option_1,,0,154,154,4,1
610af163338ebe0cb91d1cee,63f3cfca20052e4ae7554ebf,6453cd88b28d94ced8a9c7a1,2023-05-04_17h22.45.103,ga_syllabified_check,2022.2.5,Win32,60.08532116,,,,,,,,,,,,,,./stim/p03_syllable_1_lakaduaisto_hit.wav,p03,lakaduaisto,hit,la-ka-duais-to,la-ka-duais-to,la-ka-du-ais-to,la-ka-dua-is-to,-0.34375,-0.106770833,1,0,0,1.1995,text_option_1,,0,155,155,9,1
610af163338ebe0cb91d1cee,63f3cfca20052e4ae7554ebf,6453cd88b28d94ced8a9c7a1,2023-05-04_17h22.45.103,ga_syllabified_check,2022.2.5,Win32,60.08532116,,,,,,,,,,,,,,./stim/p03_syllable_1_lakatiaisto_hit.wav,p03,lakatiaisto,hit,la-ka-tiais-to,la-ka-tiais-to,la-ka-ti-ais-to,la-ka-tia-is-to,-0.35546875,-0.119791667,1,0,0,1.3846,text_option_1,,0,156,156,18,1
610af163338ebe0cb91d1cee,63f3cfca20052e4ae7554ebf,6453cd88b28d94ced8a9c7a1,2023-05-04_17h22.45.103,ga_syllabified_check,2022.2.5,Win32,60.08532116,,,,,,,,,,,,,,./stim/p08_syllable_1_lliape_hit.wav,p08,lliape,hit,li-a-pe,llia-pe,lli-a-pe, ,0.37109375,-0.100260417,1,0,0,0.8494,text_option_2,,0,157,157,190,1
610af163338ebe0cb91d1cee,63f3cfca20052e4ae7554ebf,6453cd88b28d94ced8a9c7a1,2023-05-04_17h22.45.103,ga_syllabified_check,2022.2.5,Win32,60.08532116,,,,,,,,,,,,,,./stim/p05_syllable_1_tuliafo_hit.wav,p05,tuliafo,hit,tu-lai-fo,tu-lia-fo,tu-li-a-fo, ,-0.018229167,-0.302083333,1,0,0,1.7341,text_option_other,tu-lai-fo,0,158,158,101,1
610af163338ebe0cb91d1cee,63f3cfca20052e4ae7554ebf,6453cd88b28d94ced8a9c7a1,2023-05-04_17h22.45.103,ga_syllabified_check,2022.2.5,Win32,60.08532116,,,,,,,,,,,,,,./stim/p08_syllable_1_lakafiaisto_hit.wav,p08,lakafiaisto,hit,la-ka-fi-as-to,la-ka-fiais-to,la-ka-fi-ais-to,la-ka-fia-is-to,0.02734375,-0.315104167,1,0,0,5.0164,text_option_other,la-ka-fi-as-to,0,159,159,180,1
610af163338ebe0cb91d1cee,63f3cfca20052e4ae7554ebf,6453cd88b28d94ced8a9c7a1,2023-05-04_17h22.45.103,ga_syllabified_check,2022.2.5,Win32,60.08532116,,,,,,,,,,,,,,./stim/p08_syllable_1_manhiala_hit.wav,p08,mañiala,hit,ma-nhia-la,ma-ñia-la,ma-ñi-a-la, ,-0.364583333,-0.096354167,1,0,0,2.3003,text_option_1,,0,160,160,191,1
610af163338ebe0cb91d1cee,63f3cfca20052e4ae7554ebf,6453cd88b28d94ced8a9c7a1,2023-05-04_17h22.45.103,ga_syllabified_check,2022.2.5,Win32,60.08532116,,,,,,,,,,,,,,./stim/p04_syllable_1_palufauro_hit.wav,p04,palufauro,hit,pa-lu-fau-ro,pa-lu-fau-ro,pa-lu-fa-u-ro, ,-0.3359375,-0.108072917,1,0,0,1.1168,text_option_1,,0,161,161,59,1
610af163338ebe0cb91d1cee,63f3cfca20052e4ae7554ebf,6453cd88b28d94ced8a9c7a1,2023-05-04_17h22.45.103,ga_syllabified_check,2022.2.5,Win32,60.08532116,,,,,,,,,,,,,,./stim/p04_syllable_1_falutraigo_hit.wav,p04,falutraigo,hit,fa-lu-trai-go,fa-lu-trai-go,fa-lu-tra-i-go, ,-0.345052083,-0.109375,1,0,0,0.6505,text_option_1,,0,162,162,38,1
610af163338ebe0cb91d1cee,63f3cfca20052e4ae7554ebf,6453cd88b28d94ced8a9c7a1,2023-05-04_17h22.45.103,ga_syllabified_check,2022.2.5,Win32,60.08532116,,,,,,,,,,,,,,./stim/p03_syllable_1_pachialo_hit.wav,p03,pachialo,hit,pa-chia-lo,pa-chia-lo,pa-chi-a-lo, ,-0.352864583,-0.115885417,1,0,0,1.1002,text_option_1,,0,163,163,24,1
610af163338ebe0cb91d1cee,63f3cfca20052e4ae7554ebf,6453cd88b28d94ced8a9c7a1,2023-05-04_17h22.45.103,ga_syllabified_check,2022.2.5,Win32,60.08532116,,,,,,,,,,,,,,./stim/p05_syllable_1_lakatiaisto_hit.wav,p05,lakatiaisto,hit,la-ka-ti-ais-to,la-ka-tiais-to,la-ka-ti-ais-to,la-ka-tia-is-to,-0.3515625,-0.115885417,1,0,0,2.067,text_option_1,,0,164,164,86,1
610af163338ebe0cb91d1cee,63f3cfca20052e4ae7554ebf,6453cd88b28d94ced8a9c7a1,2023-05-04_17h22.45.103,ga_syllabified_check,2022.2.5,Win32,60.08532116,,,,,,,,,,,,,,./stim/p06_syllable_1_mebochiana_hit.wav,p06,mebochiana,hit,me-bo-shi-a-na,me-bo-chia-na,me-bo-chi-a-na, ,0.404947917,-0.114583333,1,0,0,2.4497,text_option_2,,0,165,165,124,1
610af163338ebe0cb91d1cee,63f3cfca20052e4ae7554ebf,6453cd88b28d94ced8a9c7a1,2023-05-04_17h22.45.103,ga_syllabified_check,2022.2.5,Win32,60.08532116,,,,,,,,,,,,,,./stim/p04_syllable_1_lakatiaisto_hit.wav,p04,lakatiaisto,hit,la-ka-kiais-to,la-ka-tiais-to,la-ka-ti-ais-to,la-ka-tia-is-to,-0.315104167,-0.110677083,1,0,0,0.7515,text_option_1,,0,166,166,52,1
610af163338ebe0cb91d1cee,63f3cfca20052e4ae7554ebf,6453cd88b28d94ced8a9c7a1,2023-05-04_17h22.45.103,ga_syllabified_check,2022.2.5,Win32,60.08532116,,,,,,,,,,,,,,./stim/p06_syllable_1_costonhialo_hit.wav,p06,costoñialo,hit,cos-to-nhia-lo,cos-to-ñia-lo,cos-to-ñi-a-lo, ,-0.3515625,-0.1171875,1,0,0,1.6169,text_option_1,,0,167,167,103,1
610af163338ebe0cb91d1cee,63f3cfca20052e4ae7554ebf,6453cd88b28d94ced8a9c7a1,2023-05-04_17h22.45.103,ga_syllabified_check,2022.2.5,Win32,60.08532116,,,,,,,,,,,,,,./stim/p05_syllable_1_lakapiaisto_hit.wav,p05,lakapiaisto,hit,la-ka-pais-to,la-ka-piais-to,la-ka-pi-ais-to,la-ka-pia-is-to,-0.319010417,-0.118489583,1,0,0,1.4987,text_option_1,,0,168,168,84,1
610af163338ebe0cb91d1cee,63f3cfca20052e4ae7554ebf,6453cd88b28d94ced8a9c7a1,2023-05-04_17h22.45.103,ga_syllabified_check,2022.2.5,Win32,60.08532116,,,,,,,,,,,,,,./stim/p08_syllable_1_lakakuaisto_hit.wav,p08,lakakuaisto,hit,la-ka-ku-ais-to,la-ka-kuais-to,la-ka-ku-ais-to,la-ka-kua-is-to,0.41796875,-0.09375,1,0,0,2.9305,text_option_2,,0,169,169,185,1
610af163338ebe0cb91d1cee,63f3cfca20052e4ae7554ebf,6453cd88b28d94ced8a9c7a1,2023-05-04_17h22.45.103,ga_syllabified_check,2022.2.5,Win32,60.08532116,,,,,,,,,,,,,,./stim/p07_syllable_1_lakatuaisto_hit.wav,p07,lakatuaisto,hit,la-ka-tuais-to,la-ka-tuais-to,la-ka-tu-ais-to,la-ka-tua-is-to,-0.33984375,-0.119791667,1,0,0,1.6503,text_option_1,,0,170,170,155,1
610af163338ebe0cb91d1cee,63f3cfca20052e4ae7554ebf,6453cd88b28d94ced8a9c7a1,2023-05-04_17h22.45.103,ga_syllabified_check,2022.2.5,Win32,60.08532116,,,,,,,,,,,,,,./stim/p08_syllable_1_lakaduaisto_hit.wav,p08,lakaduaisto,hit,la-ka-du-ais-to,la-ka-duais-to,la-ka-du-ais-to,la-ka-dua-is-to,0.361979167,-0.095052083,1,0,0,3.8002,text_option_2,,0,171,171,179,1
610af163338ebe0cb91d1cee,63f3cfca20052e4ae7554ebf,6453cd88b28d94ced8a9c7a1,2023-05-04_17h22.45.103,ga_syllabified_check,2022.2.5,Win32,60.08532116,,,,,,,,,,,,,,./stim/p03_syllable_1_lakagiaisto_hit.wav,p03,lakagiaisto,hit,la-ka-giais-to,la-ka-giais-to,la-ka-gi-ais-to,la-ka-gia-is-to,0.397135417,-0.091145833,1,0,0,4.6323,text_option_2,,0,172,172,12,1
610af163338ebe0cb91d1cee,63f3cfca20052e4ae7554ebf,6453cd88b28d94ced8a9c7a1,2023-05-04_17h22.45.103,ga_syllabified_check,2022.2.5,Win32,60.08532116,,,,,,,,,,,,,,./stim/p04_syllable_1_lakaduaisto_hit.wav,p04,lakaduaisto,hit,la-ka-duais-to,la-ka-duais-to,la-ka-du-ais-to,la-ka-dua-is-to,-0.384114583,-0.110677083,1,0,0,0.466,text_option_1,,0,173,173,43,1
610af163338ebe0cb91d1cee,63f3cfca20052e4ae7554ebf,6453cd88b28d94ced8a9c7a1,2023-05-04_17h22.45.103,ga_syllabified_check,2022.2.5,Win32,60.08532116,,,,,,,,,,,,,,./stim/p06_syllable_1_lakafuaisto_hit.wav,p06,lakafuaisto,hit,la-ka-fu-a-is,la-ka-fuais-to,la-ka-fu-ais-to,la-ka-fua-is-to,0.399739583,-0.100260417,1,0,0,2.316,text_option_2,,0,174,174,113,1
610af163338ebe0cb91d1cee,63f3cfca20052e4ae7554ebf,6453cd88b28d94ced8a9c7a1,2023-05-04_17h22.45.103,ga_syllabified_check,2022.2.5,Win32,60.08532116,,,,,,,,,,,,,,./stim/p06_syllable_1_palutrauco_hit.wav,p06,palutrauco,hit,pa-lu-tra-u-co,pa-lu-trau-co,pa-lu-tra-u-co, ,0.430989583,-0.09375,1,0,0,2.0497,text_option_2,,0,175,175,131,1
610af163338ebe0cb91d1cee,63f3cfca20052e4ae7554ebf,6453cd88b28d94ced8a9c7a1,2023-05-04_17h22.45.103,ga_syllabified_check,2022.2.5,Win32,60.08532116,,,,,,,,,,,,,,./stim/p04_syllable_1_falufaisto_hit.wav,p04,falufaisto,hit,fa-lu-fais-to,fa-lu-fais-to,fa-lu-fa-is-to, ,-0.365885417,-0.109375,1,0,0,1.231,text_option_1,,0,176,176,37,1
610af163338ebe0cb91d1cee,63f3cfca20052e4ae7554ebf,6453cd88b28d94ced8a9c7a1,2023-05-04_17h22.45.103,ga_syllabified_check,2022.2.5,Win32,60.08532116,,,,,,,,,,,,,,./stim/p04_syllable_1_flauro_hit.wav,p04,flauro,hit,flau-ro,flau-ro,fla-u-ro, ,-0.360677083,-0.111979167,1,0,0,0.1002,text_option_1,,0,177,177,39,1
610af163338ebe0cb91d1cee,63f3cfca20052e4ae7554ebf,6453cd88b28d94ced8a9c7a1,2023-05-04_17h22.45.103,ga_syllabified_check,2022.2.5,Win32,60.08532116,,,,,,,,,,,,,,./stim/p08_syllable_1_lakadiaisto_hit.wav,p08,lakadiaisto,hit,la-ka-di-jas-to,la-ka-diais-to,la-ka-di-ais-to,la-ka-dia-is-to,0.037760417,-0.295572917,1,0,0,3.8167,text_option_other,la-ka-dias-to,0,178,178,178,1
610af163338ebe0cb91d1cee,63f3cfca20052e4ae7554ebf,6453cd88b28d94ced8a9c7a1,2023-05-04_17h22.45.103,ga_syllabified_check,2022.2.5,Win32,60.08532116,,,,,,,,,,,,,,./stim/p06_syllable_1_lakakiaisto_hit.wav,p06,lakakiaisto,hit,la-ka-kia-is-to,la-ka-kiais-to,la-ka-ki-ais-to,la-ka-kia-is-to,0.0078125,-0.10546875,1,0,0,3.7996,text_option_3,,0,179,179,116,1
610af163338ebe0cb91d1cee,63f3cfca20052e4ae7554ebf,6453cd88b28d94ced8a9c7a1,2023-05-04_17h22.45.103,ga_syllabified_check,2022.2.5,Win32,60.08532116,,,,,,,,,,,,,,./stim/p05_syllable_1_lakakuaisto_hit.wav,p05,lakakuaisto,hit,la-ka-kais-to,la-ka-kuais-to,la-ka-ku-ais-to,la-ka-kua-is-to,-0.010416667,-0.31640625,1,0,0,2.3337,text_option_other,la-ka-kai-sto,0,180,180,83,1
610af163338ebe0cb91d1cee,63f3cfca20052e4ae7554ebf,6453cd88b28d94ced8a9c7a1,2023-05-04_17h22.45.103,ga_syllabified_check,2022.2.5,Win32,60.08532116,,,,,,,,,,,,,,./stim/p07_syllable_1_falufaisto_hit.wav,p07,falufaisto,hit,fa-lu-fais-to,fa-lu-fais-to,fa-lu-fa-is-to, ,-0.33984375,-0.11328125,1,0,0,1.1004,text_option_1,,0,181,181,139,1
610af163338ebe0cb91d1cee,63f3cfca20052e4ae7554ebf,6453cd88b28d94ced8a9c7a1,2023-05-04_17h22.45.103,ga_syllabified_check,2022.2.5,Win32,60.08532116,,,,,,,,,,,,,,./stim/p08_syllable_1_faluduako_hit.wav,p08,faluduako,hit,fa-lu-duai-ko,fa-lu-dua-ko,fa-lu-du-a-ko, ,-0.372395833,-0.109375,1,0,0,1.4502,text_option_1,,0,182,182,172,1
610af163338ebe0cb91d1cee,63f3cfca20052e4ae7554ebf,6453cd88b28d94ced8a9c7a1,2023-05-04_17h22.45.103,ga_syllabified_check,2022.2.5,Win32,60.08532116,,,,,,,,,,,,,,./stim/p05_syllable_1_lakafiaisto_hit.wav,p05,lakafiaisto,hit,la-ka-fi-ais-to,la-ka-fiais-to,la-ka-fi-ais-to,la-ka-fia-is-to,0.05859375,-0.115885417,1,0,0,1.1998,text_option_3,,0,183,183,78,1
610af163338ebe0cb91d1cee,63f3cfca20052e4ae7554ebf,6453cd88b28d94ced8a9c7a1,2023-05-04_17h22.45.103,ga_syllabified_check,2022.2.5,Win32,60.08532116,,,,,,,,,,,,,,./stim/p06_syllable_1_paluguato_hit.wav,p06,paluguato,hit,pa-lu-gua-to,pa-lu-gua-to,pa-lu-gu-a-to, ,-0.315104167,-0.104166667,1,0,0,1.8664,text_option_1,,0,184,184,129,1
610af163338ebe0cb91d1cee,63f3cfca20052e4ae7554ebf,6453cd88b28d94ced8a9c7a1,2023-05-04_17h22.45.103,ga_syllabified_check,2022.2.5,Win32,60.08532116,,,,,,,,,,,,,,./stim/p05_syllable_1_faluduako_hit.wav,p05,faluduako,hit,fa-lu-ba-ko,fa-lu-dua-ko,fa-lu-du-a-ko, ,-0.337239583,-0.100260417,1,0,0,0.9156,text_option_1,,0,185,185,70,1
610af163338ebe0cb91d1cee,63f3cfca20052e4ae7554ebf,6453cd88b28d94ced8a9c7a1,2023-05-04_17h22.45.103,ga_syllabified_check,2022.2.5,Win32,60.08532116,,,,,,,,,,,,,,./stim/p05_syllable_1_lakadiaisto_hit.wav,p05,lakadiaisto,hit,la-ka-di-ais-to,la-ka-diais-to,la-ka-di-ais-to,la-ka-dia-is-to,-0.32421875,-0.106770833,1,0,0,1.0659,text_option_1,,0,186,186,76,1
610af163338ebe0cb91d1cee,63f3cfca20052e4ae7554ebf,6453cd88b28d94ced8a9c7a1,2023-05-04_17h22.45.103,ga_syllabified_check,2022.2.5,Win32,60.08532116,,,,,,,,,,,,,,./stim/p08_syllable_1_mebochiana_hit.wav,p08,mebochiana,hit,me-bo-chi-a-na,me-bo-chia-na,me-bo-chi-a-na, ,0.37890625,-0.106770833,1,0,0,1.7341,text_option_2,,0,187,187,192,1
610af163338ebe0cb91d1cee,63f3cfca20052e4ae7554ebf,6453cd88b28d94ced8a9c7a1,2023-05-04_17h22.45.103,ga_syllabified_check,2022.2.5,Win32,60.08532116,,,,,,,,,,,,,,./stim/p05_syllable_1_ruyiola_hit.wav,p05,ruyiola,hit,ru-yio-la,ru-yio-la,ru-yi-o-la, ,0.438802083,-0.08203125,1,0,0,1.5159,text_option_2,,0,188,188,100,1
610af163338ebe0cb91d1cee,63f3cfca20052e4ae7554ebf,6453cd88b28d94ced8a9c7a1,2023-05-04_17h22.45.103,ga_syllabified_check,2022.2.5,Win32,60.08532116,,,,,,,,,,,,,,./stim/p07_syllable_1_chiaba_hit.wav,p07,chiaba,hit,chia-ba,chia-ba,chi-a-ba, ,-0.40234375,-0.108072917,1,0,0,0.3155,text_option_1,,0,189,189,136,1
610af163338ebe0cb91d1cee,63f3cfca20052e4ae7554ebf,6453cd88b28d94ced8a9c7a1,2023-05-04_17h22.45.103,ga_syllabified_check,2022.2.5,Win32,60.08532116,,,,,,,,,,,,,,./stim/p04_syllable_1_ruyiola_hit.wav,p04,ruyiola,hit,ru-yio-la,ru-yio-la,ru-yi-o-la, ,0.438802083,-0.087239583,1,0,0,0.767,text_option_2,,0,190,190,66,1
610af163338ebe0cb91d1cee,63f3cfca20052e4ae7554ebf,6453cd88b28d94ced8a9c7a1,2023-05-04_17h22.45.103,ga_syllabified_check,2022.2.5,Win32,60.08532116,,,,,,,,,,,,,,./stim/p03_syllable_1_falufaisto_hit.wav,p03,falufaisto,hit,fa-lu-fais-to,fa-lu-fais-to,fa-lu-fa-is-to, ,-0.36328125,-0.111979167,1,0,0,0.9504,text_option_1,,0,191,191,3,1
610af163338ebe0cb91d1cee,63f3cfca20052e4ae7554ebf,6453cd88b28d94ced8a9c7a1,2023-05-04_17h22.45.103,ga_syllabified_check,2022.2.5,Win32,60.08532116,,,,,,,,,,,,,,./stim/p04_syllable_1_lakatuaisto_hit.wav,p04,lakatuaisto,hit,la-ka-kuais-to,la-ka-tuais-to,la-ka-tu-ais-to,la-ka-tua-is-to,-0.350260417,-0.110677083,1,0,0,0.5171,text_option_1,,0,192,192,53,1
610af163338ebe0cb91d1cee,63f3cfca20052e4ae7554ebf,6453cd88b28d94ced8a9c7a1,2023-05-04_17h22.45.103,ga_syllabified_check,2022.2.5,Win32,60.08532116,,,,,,,,,,,,,,./stim/p03_syllable_1_tuliafo_hit.wav,p03,tuliafo,hit,tu-lia-fo,tu-lia-fo,tu-li-a-fo, ,-0.36328125,-0.109375,1,0,0,0.2839,text_option_1,,0,193,193,33,1
610af163338ebe0cb91d1cee,63f3cfca20052e4ae7554ebf,6453cd88b28d94ced8a9c7a1,2023-05-04_17h22.45.103,ga_syllabified_check,2022.2.5,Win32,60.08532116,,,,,,,,,,,,,,./stim/p04_syllable_1_lakafiaisto_hit.wav,p04,lakafiaisto,hit,la-ka-fiais-to,la-ka-fiais-to,la-ka-fi-ais-to,la-ka-fia-is-to,-0.31640625,-0.110677083,1,0,0,0.7987,text_option_1,,0,194,194,44,1
610af163338ebe0cb91d1cee,63f3cfca20052e4ae7554ebf,6453cd88b28d94ced8a9c7a1,2023-05-04_17h22.45.103,ga_syllabified_check,2022.2.5,Win32,60.08532116,,,,,,,,,,,,,,./stim/p08_syllable_1_lakapiaisto_hit.wav,p08,lakapiaisto,hit,la-ka-pi-as-to,la-ka-piais-to,la-ka-pi-ais-to,la-ka-pia-is-to,0.069010417,-0.11328125,1,0,0,2.0169,text_option_3,,0,195,195,186,1
610af163338ebe0cb91d1cee,63f3cfca20052e4ae7554ebf,6453cd88b28d94ced8a9c7a1,2023-05-04_17h22.45.103,ga_syllabified_check,2022.2.5,Win32,60.08532116,,,,,,,,,,,,,,./stim/p04_syllable_1_costonhialo_hit.wav,p04,costoñialo,hit,cos-to-nhia-lo,cos-to-ñia-lo,cos-to-ñi-a-lo, ,-0.337239583,-0.110677083,1,0,0,1.1002,text_option_1,,0,196,196,35,1
610af163338ebe0cb91d1cee,63f3cfca20052e4ae7554ebf,6453cd88b28d94ced8a9c7a1,2023-05-04_17h22.45.103,ga_syllabified_check,2022.2.5,Win32,60.08532116,,,,,,,,,,,,,,./stim/p07_syllable_1_falutraigo_hit.wav,p07,falutraigo,hit,fa-lu-trai-go,fa-lu-trai-go,fa-lu-tra-i-go, ,-0.32421875,-0.1171875,1,0,0,0.9657,text_option_1,,0,197,197,140,1
610af163338ebe0cb91d1cee,63f3cfca20052e4ae7554ebf,6453cd88b28d94ced8a9c7a1,2023-05-04_17h22.45.103,ga_syllabified_check,2022.2.5,Win32,60.08532116,,,,,,,,,,,,,,./stim/p04_syllable_1_lakaguaisto_hit.wav,p04,lakaguaisto,hit,la-ka-guais-to,la-ka-guais-to,la-ka-gu-ais-to,la-ka-gua-is-to,-0.32421875,-0.114583333,1,0,0,0.717,text_option_1,,0,198,198,47,1
610af163338ebe0cb91d1cee,63f3cfca20052e4ae7554ebf,6453cd88b28d94ced8a9c7a1,2023-05-04_17h22.45.103,ga_syllabified_check,2022.2.5,Win32,60.08532116,,,,,,,,,,,,,,./stim/p06_syllable_1_flauro_hit.wav,p06,flauro,hit,fla-u-ro,flau-ro,fla-u-ro, ,0.38671875,-0.100260417,1,0,0,1.1504,text_option_2,,0,199,199,107,1
610af163338ebe0cb91d1cee,63f3cfca20052e4ae7554ebf,6453cd88b28d94ced8a9c7a1,2023-05-04_17h22.45.103,ga_syllabified_check,2022.2.5,Win32,60.08532116,,,,,,,,,,,,,,./stim/p06_syllable_1_lakapiaisto_hit.wav,p06,lakapiaisto,hit,la-ka-pia-is-to,la-ka-piais-to,la-ka-pi-ais-to,la-ka-pia-is-to,-0.33203125,-0.108072917,1,0,0,0.9336,text_option_1,,0,200,200,118,1
610af163338ebe0cb91d1cee,63f3cfca20052e4ae7554ebf,6453cd88b28d94ced8a9c7a1,2023-05-04_17h22.45.103,ga_syllabified_check,2022.2.5,Win32,60.08532116,,,,,,,,,,,,,,./stim/p06_syllable_1_lakaguaisto_hit.wav,p06,lakaguaisto,hit,la-ka-gu-a-is,la-ka-guais-to,la-ka-gu-ais-to,la-ka-gua-is-to,0.432291667,-0.110677083,1,0,0,4.3675,text_option_2,,0,201,201,115,1
610af163338ebe0cb91d1cee,63f3cfca20052e4ae7554ebf,6453cd88b28d94ced8a9c7a1,2023-05-04_17h22.45.103,ga_syllabified_check,2022.2.5,Win32,60.08532116,,,,,,,,,,,,,,./stim/p03_syllable_1_lakakuaisto_hit.wav,p03,lakakuaisto,hit,la-ka-kuais-to,la-ka-kuais-to,la-ka-ku-ais-to,la-ka-kua-is-to,-0.345052083,-0.10546875,1,0,0,1.149,text_option_1,,0,202,202,15,1
610af163338ebe0cb91d1cee,63f3cfca20052e4ae7554ebf,6453cd88b28d94ced8a9c7a1,2023-05-04_17h22.45.103,ga_syllabified_check,2022.2.5,Win32,60.08532116,,,,,,,,,,,,,,./stim/p04_syllable_1_paluguato_hit.wav,p04,paluguato,hit,pa-lu-gua,pa-lu-gua-to,pa-lu-gu-a-to, ,-0.329427083,-0.096354167,1,0,0,0.2328,text_option_1,,0,203,203,61,1
610af163338ebe0cb91d1cee,63f3cfca20052e4ae7554ebf,6453cd88b28d94ced8a9c7a1,2023-05-04_17h22.45.103,ga_syllabified_check,2022.2.5,Win32,60.08532116,,,,,,,,,,,,,,,,,,,,,,,,,,,,,,,,,,
