participant,study,session,date,expName,psychopyVersion,OS,frameRate,mouse_practice.x,mouse_practice.y,mouse_practice.leftButton,mouse_practice.midButton,mouse_practice.rightButton,mouse_practice.time,mouse_practice.clicked_name,textbox_followup_practice.text,trials_practice.thisRepN,trials_practice.thisTrialN,trials_practice.thisN,trials_practice.thisIndex,trials_practice.ran,file_path,id,item,status,response,op1,op2,op3,mouse.x,mouse.y,mouse.leftButton,mouse.midButton,mouse.rightButton,mouse.time,mouse.clicked_name,textbox_followup.text,trials.thisRepN,trials.thisTrialN,trials.thisN,trials.thisIndex,trials.ran
610a52647a452dee7ca89360,63f3cfca20052e4ae7554ebf,6453cc7fe5522ac61743334c,2023-05-04_17h21.27.106,ga_syllabified_check,2022.2.5,Win32,60.52536013,,,,,,,,,,,,,,,,,,,,,,,,,,,,,,,,,,
610a52647a452dee7ca89360,63f3cfca20052e4ae7554ebf,6453cc7fe5522ac61743334c,2023-05-04_17h21.27.106,ga_syllabified_check,2022.2.5,Win32,60.52536013,0.02962963,-0.310185185,1,0,0,6.6004,text_option_other_practice,le-a-mo,0,0,0,0,1,./stim/p03_syllable_1_liamo_hit.wav,p03,liamo,hit,lia-mo,lia-mo,li-a-mo, ,,,,,,,,,,,,,
610a52647a452dee7ca89360,63f3cfca20052e4ae7554ebf,6453cc7fe5522ac61743334c,2023-05-04_17h21.27.106,ga_syllabified_check,2022.2.5,Win32,60.52536013,-0.386111111,-0.108333333,1,0,0,2.3667,text_option_1_practice,,0,1,1,1,1,./stim/p05_syllable_1_matio_hit.wav,p05,matio,hit,ma-tio,ma-tio,ma-ti-o, ,,,,,,,,,,,,,
610a52647a452dee7ca89360,63f3cfca20052e4ae7554ebf,6453cc7fe5522ac61743334c,2023-05-04_17h21.27.106,ga_syllabified_check,2022.2.5,Win32,60.52536013,0.012962963,-0.307407407,1,0,0,2.016,text_option_other_practice,lla-mo,0,2,2,2,1,./stim/p08_syllable_1_liamo_hit.wav,p08,liamo,hit,ja-mo,lia-mo,li-a-mo, ,,,,,,,,,,,,,
610a52647a452dee7ca89360,63f3cfca20052e4ae7554ebf,6453cc7fe5522ac61743334c,2023-05-04_17h21.27.106,ga_syllabified_check,2022.2.5,Win32,60.52536013,,,,,,,,,,,,,,,,,,,,,,,,,,,,,,,,,,
610a52647a452dee7ca89360,63f3cfca20052e4ae7554ebf,6453cc7fe5522ac61743334c,2023-05-04_17h21.27.106,ga_syllabified_check,2022.2.5,Win32,60.52536013,,,,,,,,,,,,,,./stim/p07_syllable_1_ruyiola_hit.wav,p07,ruyiola,hit,ru-yio-la,ru-yio-la,ru-yi-o-la, ,-0.394444444,-0.102777778,1,0,0,3.5014,text_option_1,,0,0,0,168,1
610a52647a452dee7ca89360,63f3cfca20052e4ae7554ebf,6453cc7fe5522ac61743334c,2023-05-04_17h21.27.106,ga_syllabified_check,2022.2.5,Win32,60.52536013,,,,,,,,,,,,,,./stim/p06_syllable_1_lakafiaisto_hit.wav,p06,lakafiaisto,hit,la-ka-fia-is-to,la-ka-fiais-to,la-ka-fi-ais-to,la-ka-fia-is-to,-0.021296296,-0.103703704,1,0,0,11.2837,text_option_3,,0,1,1,112,1
610a52647a452dee7ca89360,63f3cfca20052e4ae7554ebf,6453cc7fe5522ac61743334c,2023-05-04_17h21.27.106,ga_syllabified_check,2022.2.5,Win32,60.52536013,,,,,,,,,,,,,,./stim/p04_syllable_1_lakapuaisto_hit.wav,p04,lakapuaisto,hit,la-ka-puais-to,la-ka-puais-to,la-ka-pu-ais-to,la-ka-pua-is-to,-0.042592593,-0.296296296,1,0,0,4.1666,text_option_other,laka-puais-to,0,2,2,51,1
610a52647a452dee7ca89360,63f3cfca20052e4ae7554ebf,6453cc7fe5522ac61743334c,2023-05-04_17h21.27.106,ga_syllabified_check,2022.2.5,Win32,60.52536013,,,,,,,,,,,,,,./stim/p04_syllable_1_palufauto_hit.wav,p04,palufauto,hit,pa-lu-fau-to,pa-lu-fau-to,pa-lu-fa-u-to, ,-0.382407407,-0.109259259,1,0,0,5.3329,text_option_1,,0,3,3,60,1
610a52647a452dee7ca89360,63f3cfca20052e4ae7554ebf,6453cc7fe5522ac61743334c,2023-05-04_17h21.27.106,ga_syllabified_check,2022.2.5,Win32,60.52536013,,,,,,,,,,,,,,./stim/p04_syllable_1_falufaisto_hit.wav,p04,falufaisto,hit,fa-lu-fais-to,fa-lu-fais-to,fa-lu-fa-is-to, ,-0.368518519,-0.100925926,1,0,0,4.8678,text_option_1,,0,4,4,37,1
610a52647a452dee7ca89360,63f3cfca20052e4ae7554ebf,6453cc7fe5522ac61743334c,2023-05-04_17h21.27.106,ga_syllabified_check,2022.2.5,Win32,60.52536013,,,,,,,,,,,,,,./stim/p04_syllable_1_lakaguaisto_hit.wav,p04,lakaguaisto,hit,la-ka-guais-to,la-ka-guais-to,la-ka-gu-ais-to,la-ka-gua-is-to,-0.421296296,-0.112962963,1,0,0,5.5008,text_option_1,,0,5,5,47,1
610a52647a452dee7ca89360,63f3cfca20052e4ae7554ebf,6453cc7fe5522ac61743334c,2023-05-04_17h21.27.106,ga_syllabified_check,2022.2.5,Win32,60.52536013,,,,,,,,,,,,,,./stim/p04_syllable_1_manhiala_hit.wav,p04,mañiala,hit,ma-nhia-la,ma-ñia-la,ma-ñi-a-la, ,-0.399074074,-0.101851852,1,0,0,2.6668,text_option_1,,0,6,6,55,1
610a52647a452dee7ca89360,63f3cfca20052e4ae7554ebf,6453cc7fe5522ac61743334c,2023-05-04_17h21.27.106,ga_syllabified_check,2022.2.5,Win32,60.52536013,,,,,,,,,,,,,,./stim/p06_syllable_1_lakabiaisto_hit.wav,p06,lakabiaisto,hit,la-ka-bia-is-to,la-ka-biais-to,la-ka-bi-ais-to,la-ka-bia-is-to,-0.018518519,-0.107407407,1,0,0,6.6004,text_option_3,,0,7,7,108,1
610a52647a452dee7ca89360,63f3cfca20052e4ae7554ebf,6453cc7fe5522ac61743334c,2023-05-04_17h21.27.106,ga_syllabified_check,2022.2.5,Win32,60.52536013,,,,,,,,,,,,,,./stim/p05_syllable_1_ruyiola_hit.wav,p05,ruyiola,hit,ru-yio-la,ru-yio-la,ru-yi-o-la, ,-0.394444444,-0.115740741,1,0,0,1.9006,text_option_1,,0,8,8,100,1
610a52647a452dee7ca89360,63f3cfca20052e4ae7554ebf,6453cc7fe5522ac61743334c,2023-05-04_17h21.27.106,ga_syllabified_check,2022.2.5,Win32,60.52536013,,,,,,,,,,,,,,./stim/p06_syllable_1_manhiala_hit.wav,p06,mañiala,hit,ma-nhi-a-la,ma-ñia-la,ma-ñi-a-la, ,0.4,-0.10462963,1,0,0,1.9004,text_option_2,,0,9,9,123,1
610a52647a452dee7ca89360,63f3cfca20052e4ae7554ebf,6453cc7fe5522ac61743334c,2023-05-04_17h21.27.106,ga_syllabified_check,2022.2.5,Win32,60.52536013,,,,,,,,,,,,,,./stim/p05_syllable_1_falufaisto_hit.wav,p05,falufaisto,hit,fa-lu-fais-to,fa-lu-fais-to,fa-lu-fa-is-to, ,-0.375925926,-0.106481481,1,0,0,3.334,text_option_1,,0,10,10,71,1
610a52647a452dee7ca89360,63f3cfca20052e4ae7554ebf,6453cc7fe5522ac61743334c,2023-05-04_17h21.27.106,ga_syllabified_check,2022.2.5,Win32,60.52536013,,,,,,,,,,,,,,./stim/p07_syllable_1_flauro_hit.wav,p07,flauro,hit,flau-ro,flau-ro,fla-u-ro, ,-0.399074074,-0.096296296,1,0,0,1.5506,text_option_1,,0,11,11,141,1
610a52647a452dee7ca89360,63f3cfca20052e4ae7554ebf,6453cc7fe5522ac61743334c,2023-05-04_17h21.27.106,ga_syllabified_check,2022.2.5,Win32,60.52536013,,,,,,,,,,,,,,./stim/p08_syllable_1_lakaduaisto_hit.wav,p08,lakaduaisto,hit,la-ka-du-ais-to,la-ka-duais-to,la-ka-du-ais-to,la-ka-dua-is-to,-0.016666667,-0.108333333,1,0,0,10.8333,text_option_3,,0,12,12,179,1
610a52647a452dee7ca89360,63f3cfca20052e4ae7554ebf,6453cc7fe5522ac61743334c,2023-05-04_17h21.27.106,ga_syllabified_check,2022.2.5,Win32,60.52536013,,,,,,,,,,,,,,./stim/p04_syllable_1_pachialo_hit.wav,p04,pachialo,hit,pa-chia-lo,pa-chia-lo,pa-chi-a-lo, ,-0.353703704,-0.107407407,1,0,0,6.8167,text_option_1,,0,13,13,58,1
610a52647a452dee7ca89360,63f3cfca20052e4ae7554ebf,6453cc7fe5522ac61743334c,2023-05-04_17h21.27.106,ga_syllabified_check,2022.2.5,Win32,60.52536013,,,,,,,,,,,,,,./stim/p06_syllable_1_falutraigo_hit.wav,p06,falutraigo,hit,fa-lu-tra-i-go,fa-lu-trai-go,fa-lu-tra-i-go, ,0.000925926,-0.287962963,1,0,0,8.1222,text_option_other,fa-lu tra-i-go,0,14,14,106,1
610a52647a452dee7ca89360,63f3cfca20052e4ae7554ebf,6453cc7fe5522ac61743334c,2023-05-04_17h21.27.106,ga_syllabified_check,2022.2.5,Win32,60.52536013,,,,,,,,,,,,,,./stim/p04_syllable_1_lakabiaisto_hit.wav,p04,lakabiaisto,hit,la-ka-biais-to,la-ka-biais-to,la-ka-bi-ais-to,la-ka-bia-is-to,-0.373148148,-0.106481481,1,0,0,5.7132,text_option_1,,0,15,15,40,1
610a52647a452dee7ca89360,63f3cfca20052e4ae7554ebf,6453cc7fe5522ac61743334c,2023-05-04_17h21.27.106,ga_syllabified_check,2022.2.5,Win32,60.52536013,,,,,,,,,,,,,,./stim/p04_syllable_1_lakafuaisto_hit.wav,p04,lakafuaisto,hit,la-ka-fuais-to,la-ka-fuais-to,la-ka-fu-ais-to,la-ka-fua-is-to,-0.375,-0.105555556,1,0,0,5.117,text_option_1,,0,16,16,45,1
610a52647a452dee7ca89360,63f3cfca20052e4ae7554ebf,6453cc7fe5522ac61743334c,2023-05-04_17h21.27.106,ga_syllabified_check,2022.2.5,Win32,60.52536013,,,,,,,,,,,,,,./stim/p03_syllable_1_mebochiana_hit.wav,p03,mebochiana,hit,me-bo-chia-na,me-bo-chia-na,me-bo-chi-a-na, ,-0.392592593,-0.10462963,1,0,0,4.3838,text_option_1,,0,17,17,22,1
610a52647a452dee7ca89360,63f3cfca20052e4ae7554ebf,6453cc7fe5522ac61743334c,2023-05-04_17h21.27.106,ga_syllabified_check,2022.2.5,Win32,60.52536013,,,,,,,,,,,,,,./stim/p06_syllable_1_palumaisto_hit.wav,p06,palumaisto,hit,pa-lu-ma-is-to,pa-lu-mais-to,pa-lu-ma-is-to, ,0.360185185,-0.106481481,1,0,0,2.749,text_option_2,,0,18,18,130,1
610a52647a452dee7ca89360,63f3cfca20052e4ae7554ebf,6453cc7fe5522ac61743334c,2023-05-04_17h21.27.106,ga_syllabified_check,2022.2.5,Win32,60.52536013,,,,,,,,,,,,,,./stim/p05_syllable_1_rausto_hit.wav,p05,rausto,hit,raus-to,raus-to,ra-us-to, ,-0.364814815,-0.106481481,1,0,0,1.9999,text_option_1,,0,19,19,99,1
610a52647a452dee7ca89360,63f3cfca20052e4ae7554ebf,6453cc7fe5522ac61743334c,2023-05-04_17h21.27.106,ga_syllabified_check,2022.2.5,Win32,60.52536013,,,,,,,,,,,,,,./stim/p08_syllable_1_lakapiaisto_hit.wav,p08,lakapiaisto,hit,la-ka-pi-as-to,la-ka-piais-to,la-ka-pi-ais-to,la-ka-pia-is-to,-0.063888889,-0.293518519,1,0,0,6.0172,text_option_other,la-ka-pi-as-to,0,20,20,186,1
610a52647a452dee7ca89360,63f3cfca20052e4ae7554ebf,6453cc7fe5522ac61743334c,2023-05-04_17h21.27.106,ga_syllabified_check,2022.2.5,Win32,60.52536013,,,,,,,,,,,,,,./stim/p06_syllable_1_flauro_hit.wav,p06,flauro,hit,fla-u-ro,flau-ro,fla-u-ro, ,0.384259259,-0.105555556,1,0,0,1.4001,text_option_2,,0,21,21,107,1
610a52647a452dee7ca89360,63f3cfca20052e4ae7554ebf,6453cc7fe5522ac61743334c,2023-05-04_17h21.27.106,ga_syllabified_check,2022.2.5,Win32,60.52536013,,,,,,,,,,,,,,./stim/p05_syllable_1_palufauro_hit.wav,p05,palufauro,hit,pa-lu-fau-ro,pa-lu-fau-ro,pa-lu-fa-u-ro, ,-0.374074074,-0.105555556,1,0,0,2.3004,text_option_1,,0,22,22,93,1
610a52647a452dee7ca89360,63f3cfca20052e4ae7554ebf,6453cc7fe5522ac61743334c,2023-05-04_17h21.27.106,ga_syllabified_check,2022.2.5,Win32,60.52536013,,,,,,,,,,,,,,./stim/p08_syllable_1_lakakiaisto_hit.wav,p08,lakakiaisto,hit,la-ka-ki-jas-to,la-ka-kiais-to,la-ka-ki-ais-to,la-ka-kia-is-to,-0.04537037,-0.302777778,1,0,0,4.7332,text_option_other,la-ka-ki-as-to,0,23,23,184,1
610a52647a452dee7ca89360,63f3cfca20052e4ae7554ebf,6453cc7fe5522ac61743334c,2023-05-04_17h21.27.106,ga_syllabified_check,2022.2.5,Win32,60.52536013,,,,,,,,,,,,,,./stim/p07_syllable_1_rausto_hit.wav,p07,rausto,hit,raus-to,raus-to,ra-us-to, ,-0.397222222,-0.105555556,1,0,0,2.3839,text_option_1,,0,24,24,167,1
610a52647a452dee7ca89360,63f3cfca20052e4ae7554ebf,6453cc7fe5522ac61743334c,2023-05-04_17h21.27.106,ga_syllabified_check,2022.2.5,Win32,60.52536013,,,,,,,,,,,,,,./stim/p03_syllable_1_paluguato_hit.wav,p03,paluguato,hit,pa-lu-gua,pa-lu-gua-to,pa-lu-gu-a-to, ,-0.391666667,-0.110185185,1,0,0,4.5528,text_option_1,,0,25,25,27,1
610a52647a452dee7ca89360,63f3cfca20052e4ae7554ebf,6453cc7fe5522ac61743334c,2023-05-04_17h21.27.106,ga_syllabified_check,2022.2.5,Win32,60.52536013,,,,,,,,,,,,,,./stim/p08_syllable_1_falutraigo_hit.wav,p08,falutraigo,hit,fa-lu-trai-go,fa-lu-trai-go,fa-lu-tra-i-go, ,-0.412962963,-0.099074074,1,0,0,3.4003,text_option_1,,0,26,26,174,1
610a52647a452dee7ca89360,63f3cfca20052e4ae7554ebf,6453cc7fe5522ac61743334c,2023-05-04_17h21.27.106,ga_syllabified_check,2022.2.5,Win32,60.52536013,,,,,,,,,,,,,,./stim/p06_syllable_1_falufaisto_hit.wav,p06,falufaisto,hit,fa-lu-fa-is-to,fa-lu-fais-to,fa-lu-fa-is-to, ,0.390740741,-0.096296296,1,0,0,2.4663,text_option_2,,0,27,27,105,1
610a52647a452dee7ca89360,63f3cfca20052e4ae7554ebf,6453cc7fe5522ac61743334c,2023-05-04_17h21.27.106,ga_syllabified_check,2022.2.5,Win32,60.52536013,,,,,,,,,,,,,,./stim/p07_syllable_1_palufauro_hit.wav,p07,palufauro,hit,pa-lu-fau-ro,pa-lu-fau-ro,pa-lu-fa-u-ro, ,-0.35,-0.112037037,1,0,0,3.3836,text_option_1,,0,28,28,161,1
610a52647a452dee7ca89360,63f3cfca20052e4ae7554ebf,6453cc7fe5522ac61743334c,2023-05-04_17h21.27.106,ga_syllabified_check,2022.2.5,Win32,60.52536013,,,,,,,,,,,,,,./stim/p03_syllable_1_pachialo_hit.wav,p03,pachialo,hit,pa-chia-lo,pa-chia-lo,pa-chi-a-lo, ,-0.355555556,-0.111111111,1,0,0,5.3823,text_option_1,,0,29,29,24,1
610a52647a452dee7ca89360,63f3cfca20052e4ae7554ebf,6453cc7fe5522ac61743334c,2023-05-04_17h21.27.106,ga_syllabified_check,2022.2.5,Win32,60.52536013,,,,,,,,,,,,,,./stim/p08_syllable_1_palufauto_hit.wav,p08,palufauto,hit,pa-lu-fau-to,pa-lu-fau-to,pa-lu-fa-u-to, ,0.385185185,-0.101851852,1,0,0,5.5487,text_option_2,,0,30,30,196,1
610a52647a452dee7ca89360,63f3cfca20052e4ae7554ebf,6453cc7fe5522ac61743334c,2023-05-04_17h21.27.106,ga_syllabified_check,2022.2.5,Win32,60.52536013,,,,,,,,,,,,,,./stim/p05_syllable_1_palutrauco_hit.wav,p05,palutrauco,hit,pa-lu-trai-co,pa-lu-trau-co,pa-lu-tra-u-co, ,0.001851852,-0.32037037,1,0,0,1.8006,text_option_other,pa-lu-trai-co,0,31,31,97,1
610a52647a452dee7ca89360,63f3cfca20052e4ae7554ebf,6453cc7fe5522ac61743334c,2023-05-04_17h21.27.106,ga_syllabified_check,2022.2.5,Win32,60.52536013,,,,,,,,,,,,,,./stim/p06_syllable_1_ruyiola_hit.wav,p06,ruyiola,hit,ru-yi-o-la,ru-yio-la,ru-yi-o-la, ,0.367592593,-0.102777778,1,0,0,1.7616,text_option_2,,0,32,32,134,1
610a52647a452dee7ca89360,63f3cfca20052e4ae7554ebf,6453cc7fe5522ac61743334c,2023-05-04_17h21.27.106,ga_syllabified_check,2022.2.5,Win32,60.52536013,,,,,,,,,,,,,,./stim/p05_syllable_1_chiaba_hit.wav,p05,chiaba,hit,chia-ba,chia-ba,chi-a-ba, ,-0.018518519,-0.30462963,1,0,0,1.029,text_option_other,cha-i-ba,0,33,33,68,1
610a52647a452dee7ca89360,63f3cfca20052e4ae7554ebf,6453cc7fe5522ac61743334c,2023-05-04_17h21.27.106,ga_syllabified_check,2022.2.5,Win32,60.52536013,,,,,,,,,,,,,,./stim/p06_syllable_1_paluguato_hit.wav,p06,paluguato,hit,pa-lu-gua-to,pa-lu-gua-to,pa-lu-gu-a-to, ,-0.367592593,-0.113888889,1,0,0,2.8699,text_option_1,,0,34,34,129,1
610a52647a452dee7ca89360,63f3cfca20052e4ae7554ebf,6453cc7fe5522ac61743334c,2023-05-04_17h21.27.106,ga_syllabified_check,2022.2.5,Win32,60.52536013,,,,,,,,,,,,,,./stim/p03_syllable_1_falutraigo_hit.wav,p03,falutraigo,hit,fa-lu-trai-go,fa-lu-trai-go,fa-lu-tra-i-go, ,-0.444444444,-0.10462963,1,0,0,1.9554,text_option_1,,0,35,35,4,1
610a52647a452dee7ca89360,63f3cfca20052e4ae7554ebf,6453cc7fe5522ac61743334c,2023-05-04_17h21.27.106,ga_syllabified_check,2022.2.5,Win32,60.52536013,,,,,,,,,,,,,,./stim/p06_syllable_1_lakagiaisto_hit.wav,p06,lakagiaisto,hit,la-ka-gia-is-to,la-ka-giais-to,la-ka-gi-ais-to,la-ka-gia-is-to,-0.04537037,-0.303703704,1,0,0,4.1673,text_option_other,la-ka-jia-is-to,0,36,36,114,1
610a52647a452dee7ca89360,63f3cfca20052e4ae7554ebf,6453cc7fe5522ac61743334c,2023-05-04_17h21.27.106,ga_syllabified_check,2022.2.5,Win32,60.52536013,,,,,,,,,,,,,,./stim/p07_syllable_1_costonhialo_hit.wav,p07,costoñialo,hit,cos-to-nhia-lo,cos-to-ñia-lo,cos-to-ñi-a-lo, ,-0.353703704,-0.110185185,1,0,0,4.6049,text_option_1,,0,37,37,137,1
610a52647a452dee7ca89360,63f3cfca20052e4ae7554ebf,6453cc7fe5522ac61743334c,2023-05-04_17h21.27.106,ga_syllabified_check,2022.2.5,Win32,60.52536013,,,,,,,,,,,,,,./stim/p03_syllable_1_palumaisto_hit.wav,p03,palumaisto,hit,pa-lu-mais-to,pa-lu-mais-to,pa-lu-ma-is-to, ,-0.347222222,-0.106481481,1,0,0,2.9339,text_option_1,,0,38,38,28,1
610a52647a452dee7ca89360,63f3cfca20052e4ae7554ebf,6453cc7fe5522ac61743334c,2023-05-04_17h21.27.106,ga_syllabified_check,2022.2.5,Win32,60.52536013,,,,,,,,,,,,,,./stim/p07_syllable_1_lakapiaisto_hit.wav,p07,lakapiaisto,hit,la-ka-pia-sto,la-ka-piais-to,la-ka-pi-ais-to,la-ka-pia-is-to,-0.028703704,-0.306481481,1,0,0,6.646,text_option_other,la-ka-pia-s-to,0,39,39,152,1
610a52647a452dee7ca89360,63f3cfca20052e4ae7554ebf,6453cc7fe5522ac61743334c,2023-05-04_17h21.27.106,ga_syllabified_check,2022.2.5,Win32,60.52536013,,,,,,,,,,,,,,./stim/p04_syllable_1_falutraigo_hit.wav,p04,falutraigo,hit,fa-lu-trai-go,fa-lu-trai-go,fa-lu-tra-i-go, ,-0.346296296,-0.105555556,1,0,0,2.7549,text_option_1,,0,40,40,38,1
610a52647a452dee7ca89360,63f3cfca20052e4ae7554ebf,6453cc7fe5522ac61743334c,2023-05-04_17h21.27.106,ga_syllabified_check,2022.2.5,Win32,60.52536013,,,,,,,,,,,,,,./stim/p07_syllable_1_payielo_hit.wav,p07,payielo,hit,pa-yie-lo,pa-yie-lo,pa-yi-e-lo, ,-0.407407407,-0.103703704,1,0,0,2.7175,text_option_1,,0,41,41,166,1
610a52647a452dee7ca89360,63f3cfca20052e4ae7554ebf,6453cc7fe5522ac61743334c,2023-05-04_17h21.27.106,ga_syllabified_check,2022.2.5,Win32,60.52536013,,,,,,,,,,,,,,./stim/p08_syllable_1_payielo_hit.wav,p08,payielo,hit,pa-yie-lo,pa-yie-lo,pa-yi-e-lo, ,-0.361111111,-0.105555556,1,0,0,3.1667,text_option_1,,0,42,42,200,1
610a52647a452dee7ca89360,63f3cfca20052e4ae7554ebf,6453cc7fe5522ac61743334c,2023-05-04_17h21.27.106,ga_syllabified_check,2022.2.5,Win32,60.52536013,,,,,,,,,,,,,,./stim/p04_syllable_1_flauro_hit.wav,p04,flauro,hit,flau-ro,flau-ro,fla-u-ro, ,-0.392592593,-0.1,1,0,0,1.5328,text_option_1,,0,43,43,39,1
610a52647a452dee7ca89360,63f3cfca20052e4ae7554ebf,6453cc7fe5522ac61743334c,2023-05-04_17h21.27.106,ga_syllabified_check,2022.2.5,Win32,60.52536013,,,,,,,,,,,,,,./stim/p07_syllable_1_faluduako_hit.wav,p07,faluduako,hit,fa-lu-dua-ko,fa-lu-dua-ko,fa-lu-du-a-ko, ,-0.396296296,-0.10462963,1,0,0,3.5499,text_option_1,,0,44,44,138,1
610a52647a452dee7ca89360,63f3cfca20052e4ae7554ebf,6453cc7fe5522ac61743334c,2023-05-04_17h21.27.106,ga_syllabified_check,2022.2.5,Win32,60.52536013,,,,,,,,,,,,,,./stim/p05_syllable_1_flauro_hit.wav,p05,flauro,hit,fa-lu-ro,flau-ro,fla-u-ro, ,-0.010185185,-0.305555556,1,0,0,0.8342,text_option_other,fa-lu-do,0,45,45,73,1
610a52647a452dee7ca89360,63f3cfca20052e4ae7554ebf,6453cc7fe5522ac61743334c,2023-05-04_17h21.27.106,ga_syllabified_check,2022.2.5,Win32,60.52536013,,,,,,,,,,,,,,./stim/p08_syllable_1_lakabiaisto_hit.wav,p08,lakabiaisto,hit,la-ka-bi-as-to,la-ka-biais-to,la-ka-bi-ais-to,la-ka-bia-is-to,-0.023148148,-0.3,1,0,0,3.9501,text_option_other,la-ka-bi-as-to,0,46,46,176,1
610a52647a452dee7ca89360,63f3cfca20052e4ae7554ebf,6453cc7fe5522ac61743334c,2023-05-04_17h21.27.106,ga_syllabified_check,2022.2.5,Win32,60.52536013,,,,,,,,,,,,,,./stim/p08_syllable_1_paluguato_hit.wav,p08,paluguato,hit,pa-lu-gua-to,pa-lu-gua-to,pa-lu-gu-a-to, ,-0.397222222,-0.118518519,1,0,0,1.8337,text_option_1,,0,47,47,197,1
610a52647a452dee7ca89360,63f3cfca20052e4ae7554ebf,6453cc7fe5522ac61743334c,2023-05-04_17h21.27.106,ga_syllabified_check,2022.2.5,Win32,60.52536013,,,,,,,,,,,,,,./stim/p05_syllable_1_lakakuaisto_hit.wav,p05,lakakuaisto,hit,la-ka-kais-to,la-ka-kuais-to,la-ka-ku-ais-to,la-ka-kua-is-to,-0.064814815,-0.299074074,1,0,0,2.4502,text_option_other,la-ka-kais-to,0,48,48,83,1
610a52647a452dee7ca89360,63f3cfca20052e4ae7554ebf,6453cc7fe5522ac61743334c,2023-05-04_17h21.27.106,ga_syllabified_check,2022.2.5,Win32,60.52536013,,,,,,,,,,,,,,./stim/p03_syllable_1_rausto_hit.wav,p03,rausto,hit,raus-to,raus-to,ra-us-to, ,-0.425,-0.105555556,1,0,0,1.2169,text_option_1,,0,49,49,31,1
610a52647a452dee7ca89360,63f3cfca20052e4ae7554ebf,6453cc7fe5522ac61743334c,2023-05-04_17h21.27.106,ga_syllabified_check,2022.2.5,Win32,60.52536013,,,,,,,,,,,,,,./stim/p07_syllable_1_lakatiaisto_hit.wav,p07,lakatiaisto,hit,la-ka-tiai-sto,la-ka-tiais-to,la-ka-ti-ais-to,la-ka-tia-is-to,-0.059259259,-0.303703704,1,0,0,5.0005,text_option_other,la-ka-kiai-s-to,0,50,50,154,1
610a52647a452dee7ca89360,63f3cfca20052e4ae7554ebf,6453cc7fe5522ac61743334c,2023-05-04_17h21.27.106,ga_syllabified_check,2022.2.5,Win32,60.52536013,,,,,,,,,,,,,,./stim/p07_syllable_1_manhiala_hit.wav,p07,mañiala,hit,ma-nhia-la,ma-ñia-la,ma-ñi-a-la, ,-0.390740741,-0.105555556,1,0,0,1.6004,text_option_1,,0,51,51,157,1
610a52647a452dee7ca89360,63f3cfca20052e4ae7554ebf,6453cc7fe5522ac61743334c,2023-05-04_17h21.27.106,ga_syllabified_check,2022.2.5,Win32,60.52536013,,,,,,,,,,,,,,./stim/p06_syllable_1_payielo_hit.wav,p06,payielo,hit,pa-yi-e-lo,pa-yie-lo,pa-yi-e-lo, ,0.37037037,-0.111111111,1,0,0,2.2681,text_option_2,,0,52,52,132,1
610a52647a452dee7ca89360,63f3cfca20052e4ae7554ebf,6453cc7fe5522ac61743334c,2023-05-04_17h21.27.106,ga_syllabified_check,2022.2.5,Win32,60.52536013,,,,,,,,,,,,,,./stim/p08_syllable_1_lakafuaisto_hit.wav,p08,lakafuaisto,hit,la-ka-fju-ais-to,la-ka-fuais-to,la-ka-fu-ais-to,la-ka-fua-is-to,-0.043518519,-0.298148148,1,0,0,4.1536,text_option_other,la-ka-fiuais-to,0,53,53,181,1
610a52647a452dee7ca89360,63f3cfca20052e4ae7554ebf,6453cc7fe5522ac61743334c,2023-05-04_17h21.27.106,ga_syllabified_check,2022.2.5,Win32,60.52536013,,,,,,,,,,,,,,./stim/p04_syllable_1_nhiape_hit.wav,p04,ñiape,hit,nhia-pe,ñia-pe,ñi-a-pe, ,-0.399074074,-0.105555556,1,0,0,2.4504,text_option_1,,0,54,54,57,1
610a52647a452dee7ca89360,63f3cfca20052e4ae7554ebf,6453cc7fe5522ac61743334c,2023-05-04_17h21.27.106,ga_syllabified_check,2022.2.5,Win32,60.52536013,,,,,,,,,,,,,,./stim/p08_syllable_1_pachialo_hit.wav,p08,pachialo,hit,pa-chi-ja-lo,pa-chia-lo,pa-chi-a-lo, ,0.380555556,-0.106481481,1,0,0,2.6122,text_option_2,,0,55,55,194,1
610a52647a452dee7ca89360,63f3cfca20052e4ae7554ebf,6453cc7fe5522ac61743334c,2023-05-04_17h21.27.106,ga_syllabified_check,2022.2.5,Win32,60.52536013,,,,,,,,,,,,,,./stim/p06_syllable_1_lakatiaisto_hit.wav,p06,lakatiaisto,hit,la-ka-pia-is-to,la-ka-tiais-to,la-ka-ti-ais-to,la-ka-tia-is-to,0.031481481,-0.107407407,1,0,0,3.2712,text_option_3,,0,56,56,120,1
610a52647a452dee7ca89360,63f3cfca20052e4ae7554ebf,6453cc7fe5522ac61743334c,2023-05-04_17h21.27.106,ga_syllabified_check,2022.2.5,Win32,60.52536013,,,,,,,,,,,,,,./stim/p03_syllable_1_palufauto_hit.wav,p03,palufauto,hit,pa-lu-fau,pa-lu-fau-to,pa-lu-fa-u-to, ,0.365740741,-0.110185185,1,0,0,4.0999,text_option_2,,0,57,57,26,1
610a52647a452dee7ca89360,63f3cfca20052e4ae7554ebf,6453cc7fe5522ac61743334c,2023-05-04_17h21.27.106,ga_syllabified_check,2022.2.5,Win32,60.52536013,,,,,,,,,,,,,,./stim/p04_syllable_1_ruyiola_hit.wav,p04,ruyiola,hit,ru-yio-la,ru-yio-la,ru-yi-o-la, ,-0.412962963,-0.106481481,1,0,0,0.9547,text_option_1,,0,58,58,66,1
610a52647a452dee7ca89360,63f3cfca20052e4ae7554ebf,6453cc7fe5522ac61743334c,2023-05-04_17h21.27.106,ga_syllabified_check,2022.2.5,Win32,60.52536013,,,,,,,,,,,,,,./stim/p06_syllable_1_costonhialo_hit.wav,p06,costoñialo,hit,cos-to-nhia-lo,cos-to-ñia-lo,cos-to-ñi-a-lo, ,-0.4,-0.101851852,1,0,0,2.6672,text_option_1,,0,59,59,103,1
610a52647a452dee7ca89360,63f3cfca20052e4ae7554ebf,6453cc7fe5522ac61743334c,2023-05-04_17h21.27.106,ga_syllabified_check,2022.2.5,Win32,60.52536013,,,,,,,,,,,,,,./stim/p08_syllable_1_tuliafo_hit.wav,p08,tuliafo,hit,tu-li-a-fo,tu-lia-fo,tu-li-a-fo, ,0.417592593,-0.106481481,1,0,0,1.3992,text_option_2,,0,60,60,203,1
610a52647a452dee7ca89360,63f3cfca20052e4ae7554ebf,6453cc7fe5522ac61743334c,2023-05-04_17h21.27.106,ga_syllabified_check,2022.2.5,Win32,60.52536013,,,,,,,,,,,,,,./stim/p05_syllable_1_lakapuaisto_hit.wav,p05,lakapuaisto,hit,la-ka-pais-to,la-ka-puais-to,la-ka-pu-ais-to,la-ka-pua-is-to,-0.040740741,-0.296296296,1,0,0,2.3849,text_option_other,la-ka-pais-to,0,61,61,85,1
610a52647a452dee7ca89360,63f3cfca20052e4ae7554ebf,6453cc7fe5522ac61743334c,2023-05-04_17h21.27.106,ga_syllabified_check,2022.2.5,Win32,60.52536013,,,,,,,,,,,,,,./stim/p05_syllable_1_lakatiaisto_hit.wav,p05,lakatiaisto,hit,la-ka-ti-ais-to,la-ka-tiais-to,la-ka-ti-ais-to,la-ka-tia-is-to,-0.364814815,-0.103703704,1,0,0,5.2506,text_option_1,,0,62,62,86,1
610a52647a452dee7ca89360,63f3cfca20052e4ae7554ebf,6453cc7fe5522ac61743334c,2023-05-04_17h21.27.106,ga_syllabified_check,2022.2.5,Win32,60.52536013,,,,,,,,,,,,,,./stim/p07_syllable_1_chiaba_hit.wav,p07,chiaba,hit,chia-ba,chia-ba,chi-a-ba, ,-0.383333333,-0.09537037,1,0,0,0.879,text_option_1,,0,63,63,136,1
610a52647a452dee7ca89360,63f3cfca20052e4ae7554ebf,6453cc7fe5522ac61743334c,2023-05-04_17h21.27.106,ga_syllabified_check,2022.2.5,Win32,60.52536013,,,,,,,,,,,,,,./stim/p08_syllable_1_palufauro_hit.wav,p08,palufauro,hit,pa-lu-fau-ro,pa-lu-fau-ro,pa-lu-fa-u-ro, ,-0.388888889,-0.100925926,1,0,0,3.9677,text_option_1,,0,64,64,195,1
610a52647a452dee7ca89360,63f3cfca20052e4ae7554ebf,6453cc7fe5522ac61743334c,2023-05-04_17h21.27.106,ga_syllabified_check,2022.2.5,Win32,60.52536013,,,,,,,,,,,,,,./stim/p03_syllable_1_lakafuaisto_hit.wav,p03,lakafuaisto,hit,la-ka-fuais-to,la-ka-fuais-to,la-ka-fu-ais-to,la-ka-fua-is-to,-0.361111111,-0.107407407,1,0,0,3.1498,text_option_1,,0,65,65,11,1
610a52647a452dee7ca89360,63f3cfca20052e4ae7554ebf,6453cc7fe5522ac61743334c,2023-05-04_17h21.27.106,ga_syllabified_check,2022.2.5,Win32,60.52536013,,,,,,,,,,,,,,./stim/p04_syllable_1_palutrauco_hit.wav,p04,palutrauco,hit,pa-lu-trau-co,pa-lu-trau-co,pa-lu-tra-u-co, ,-0.387962963,-0.106481481,1,0,0,2.3168,text_option_1,,0,66,66,63,1
610a52647a452dee7ca89360,63f3cfca20052e4ae7554ebf,6453cc7fe5522ac61743334c,2023-05-04_17h21.27.106,ga_syllabified_check,2022.2.5,Win32,60.52536013,,,,,,,,,,,,,,./stim/p03_syllable_1_ruyiola_hit.wav,p03,ruyiola,hit,ru-yio-la,ru-yio-la,ru-yi-o-la, ,-0.363888889,-0.108333333,1,0,0,1.3356,text_option_1,,0,67,67,32,1
610a52647a452dee7ca89360,63f3cfca20052e4ae7554ebf,6453cc7fe5522ac61743334c,2023-05-04_17h21.27.106,ga_syllabified_check,2022.2.5,Win32,60.52536013,,,,,,,,,,,,,,./stim/p07_syllable_1_lakagiaisto_hit.wav,p07,lakagiaisto,hit,la-ka-gais-to,la-ka-giais-to,la-ka-gi-ais-to,la-ka-gia-is-to,-0.001851852,-0.306481481,1,0,0,1.9165,text_option_other,la-ka-gais-to,0,68,68,148,1
610a52647a452dee7ca89360,63f3cfca20052e4ae7554ebf,6453cc7fe5522ac61743334c,2023-05-04_17h21.27.106,ga_syllabified_check,2022.2.5,Win32,60.52536013,,,,,,,,,,,,,,./stim/p03_syllable_1_falufaisto_hit.wav,p03,falufaisto,hit,fa-lu-fais-to,fa-lu-fais-to,fa-lu-fa-is-to, ,-0.401851852,-0.103703704,1,0,0,2.8171,text_option_1,,0,69,69,3,1
610a52647a452dee7ca89360,63f3cfca20052e4ae7554ebf,6453cc7fe5522ac61743334c,2023-05-04_17h21.27.106,ga_syllabified_check,2022.2.5,Win32,60.52536013,,,,,,,,,,,,,,./stim/p08_syllable_1_chiaba_hit.wav,p08,chiaba,hit,chi-a-ba,chia-ba,chi-a-ba, ,0.376851852,-0.103703704,1,0,0,1.15,text_option_2,,0,70,70,170,1
610a52647a452dee7ca89360,63f3cfca20052e4ae7554ebf,6453cc7fe5522ac61743334c,2023-05-04_17h21.27.106,ga_syllabified_check,2022.2.5,Win32,60.52536013,,,,,,,,,,,,,,./stim/p06_syllable_1_lakapiaisto_hit.wav,p06,lakapiaisto,hit,la-ka-pia-is-to,la-ka-piais-to,la-ka-pi-ais-to,la-ka-pia-is-to,-0.02037037,-0.110185185,1,0,0,4.7654,text_option_3,,0,71,71,118,1
610a52647a452dee7ca89360,63f3cfca20052e4ae7554ebf,6453cc7fe5522ac61743334c,2023-05-04_17h21.27.106,ga_syllabified_check,2022.2.5,Win32,60.52536013,,,,,,,,,,,,,,./stim/p03_syllable_1_lakakuaisto_hit.wav,p03,lakakuaisto,hit,la-ka-kuais-to,la-ka-kuais-to,la-ka-ku-ais-to,la-ka-kua-is-to,-0.364814815,-0.108333333,1,0,0,2.5001,text_option_1,,0,72,72,15,1
610a52647a452dee7ca89360,63f3cfca20052e4ae7554ebf,6453cc7fe5522ac61743334c,2023-05-04_17h21.27.106,ga_syllabified_check,2022.2.5,Win32,60.52536013,,,,,,,,,,,,,,./stim/p03_syllable_1_lakatiaisto_hit.wav,p03,lakatiaisto,hit,la-ka-tiais-to,la-ka-tiais-to,la-ka-ti-ais-to,la-ka-tia-is-to,-0.344444444,-0.111111111,1,0,0,3.6833,text_option_1,,0,73,73,18,1
610a52647a452dee7ca89360,63f3cfca20052e4ae7554ebf,6453cc7fe5522ac61743334c,2023-05-04_17h21.27.106,ga_syllabified_check,2022.2.5,Win32,60.52536013,,,,,,,,,,,,,,./stim/p03_syllable_1_flauro_hit.wav,p03,flauro,hit,flau-ro,flau-ro,fla-u-ro, ,-0.388888889,-0.098148148,1,0,0,0.867,text_option_1,,0,74,74,5,1
610a52647a452dee7ca89360,63f3cfca20052e4ae7554ebf,6453cc7fe5522ac61743334c,2023-05-04_17h21.27.106,ga_syllabified_check,2022.2.5,Win32,60.52536013,,,,,,,,,,,,,,./stim/p08_syllable_1_lakabuaisto_hit.wav,p08,lakabuaisto,hit,la-ka-bu-ais-to,la-ka-buais-to,la-ka-bu-ais-to,la-ka-bua-is-to,0.389814815,-0.105555556,1,0,0,5.0506,text_option_2,,0,75,75,177,1
610a52647a452dee7ca89360,63f3cfca20052e4ae7554ebf,6453cc7fe5522ac61743334c,2023-05-04_17h21.27.106,ga_syllabified_check,2022.2.5,Win32,60.52536013,,,,,,,,,,,,,,./stim/p04_syllable_1_lakakiaisto_hit.wav,p04,lakakiaisto,hit,la-ka-kiais-to,la-ka-kiais-to,la-ka-ki-ais-to,la-ka-kia-is-to,-0.340740741,-0.1,1,0,0,3.8498,text_option_1,,0,76,76,48,1
610a52647a452dee7ca89360,63f3cfca20052e4ae7554ebf,6453cc7fe5522ac61743334c,2023-05-04_17h21.27.106,ga_syllabified_check,2022.2.5,Win32,60.52536013,,,,,,,,,,,,,,./stim/p05_syllable_1_palumaisto_hit.wav,p05,palumaisto,hit,pa-lu-mais-to,pa-lu-mais-to,pa-lu-ma-is-to, ,-0.35462963,-0.101851852,1,0,0,2.0664,text_option_1,,0,77,77,96,1
610a52647a452dee7ca89360,63f3cfca20052e4ae7554ebf,6453cc7fe5522ac61743334c,2023-05-04_17h21.27.106,ga_syllabified_check,2022.2.5,Win32,60.52536013,,,,,,,,,,,,,,./stim/p07_syllable_1_lakaguaisto_hit.wav,p07,lakaguaisto,hit,la-ka-guais-to,la-ka-guais-to,la-ka-gu-ais-to,la-ka-gua-is-to,-0.383333333,-0.106481481,1,0,0,5.2501,text_option_1,,0,78,78,149,1
610a52647a452dee7ca89360,63f3cfca20052e4ae7554ebf,6453cc7fe5522ac61743334c,2023-05-04_17h21.27.106,ga_syllabified_check,2022.2.5,Win32,60.52536013,,,,,,,,,,,,,,./stim/p03_syllable_1_lakabuaisto_hit.wav,p03,lakabuaisto,hit,la-ka-buais-to,la-ka-buais-to,la-ka-bu-ais-to,la-ka-bua-is-to,-0.352777778,-0.097222222,1,0,0,3.9344,text_option_1,,0,79,79,7,1
610a52647a452dee7ca89360,63f3cfca20052e4ae7554ebf,6453cc7fe5522ac61743334c,2023-05-04_17h21.27.106,ga_syllabified_check,2022.2.5,Win32,60.52536013,,,,,,,,,,,,,,./stim/p03_syllable_1_lakaguaisto_hit.wav,p03,lakaguaisto,hit,la-ka-guais-to,la-ka-guais-to,la-ka-gu-ais-to,la-ka-gua-is-to,-0.375,-0.101851852,1,0,0,3.7173,text_option_1,,0,80,80,13,1
610a52647a452dee7ca89360,63f3cfca20052e4ae7554ebf,6453cc7fe5522ac61743334c,2023-05-04_17h21.27.106,ga_syllabified_check,2022.2.5,Win32,60.52536013,,,,,,,,,,,,,,./stim/p07_syllable_1_palumaisto_hit.wav,p07,palumaisto,hit,pa-lu-mais-to,pa-lu-mais-to,pa-lu-ma-is-to, ,-0.334259259,-0.108333333,1,0,0,2.4996,text_option_1,,0,81,81,164,1
610a52647a452dee7ca89360,63f3cfca20052e4ae7554ebf,6453cc7fe5522ac61743334c,2023-05-04_17h21.27.106,ga_syllabified_check,2022.2.5,Win32,60.52536013,,,,,,,,,,,,,,./stim/p04_syllable_1_lakatiaisto_hit.wav,p04,lakatiaisto,hit,la-ka-kiais-to,la-ka-tiais-to,la-ka-ti-ais-to,la-ka-tia-is-to,-0.32962963,-0.107407407,1,0,0,1.9843,text_option_1,,0,82,82,52,1
610a52647a452dee7ca89360,63f3cfca20052e4ae7554ebf,6453cc7fe5522ac61743334c,2023-05-04_17h21.27.106,ga_syllabified_check,2022.2.5,Win32,60.52536013,,,,,,,,,,,,,,./stim/p07_syllable_1_palufauto_hit.wav,p07,palufauto,hit,pa-lu-fau-to,pa-lu-fau-to,pa-lu-fa-u-to, ,-0.37037037,-0.097222222,1,0,0,1.7341,text_option_1,,0,83,83,162,1
610a52647a452dee7ca89360,63f3cfca20052e4ae7554ebf,6453cc7fe5522ac61743334c,2023-05-04_17h21.27.106,ga_syllabified_check,2022.2.5,Win32,60.52536013,,,,,,,,,,,,,,./stim/p04_syllable_1_lakabuaisto_hit.wav,p04,lakabuaisto,hit,la-ka-buais-to,la-ka-buais-to,la-ka-bu-ais-to,la-ka-bua-is-to,-0.352777778,-0.103703704,1,0,0,4.8337,text_option_1,,0,84,84,41,1
610a52647a452dee7ca89360,63f3cfca20052e4ae7554ebf,6453cc7fe5522ac61743334c,2023-05-04_17h21.27.106,ga_syllabified_check,2022.2.5,Win32,60.52536013,,,,,,,,,,,,,,./stim/p03_syllable_1_lakadiaisto_hit.wav,p03,lakadiaisto,hit,la-ka-diais-to,la-ka-diais-to,la-ka-di-ais-to,la-ka-dia-is-to,-0.408333333,-0.100925926,1,0,0,2.0161,text_option_1,,0,85,85,8,1
610a52647a452dee7ca89360,63f3cfca20052e4ae7554ebf,6453cc7fe5522ac61743334c,2023-05-04_17h21.27.106,ga_syllabified_check,2022.2.5,Win32,60.52536013,,,,,,,,,,,,,,./stim/p07_syllable_1_pachialo_hit.wav,p07,pachialo,hit,pa-cha-lo,pa-chia-lo,pa-chi-a-lo, ,0.031481481,-0.299074074,1,0,0,1.6339,text_option_other,pa-cha-lo,0,86,86,160,1
610a52647a452dee7ca89360,63f3cfca20052e4ae7554ebf,6453cc7fe5522ac61743334c,2023-05-04_17h21.27.106,ga_syllabified_check,2022.2.5,Win32,60.52536013,,,,,,,,,,,,,,./stim/p05_syllable_1_lakabuaisto_hit.wav,p05,lakabuaisto,hit,la-ka-buais-to,la-ka-buais-to,la-ka-bu-ais-to,la-ka-bua-is-to,-0.026851852,-0.30462963,1,0,0,2.3662,text_option_other,la-ka-bais-to,0,87,87,75,1
610a52647a452dee7ca89360,63f3cfca20052e4ae7554ebf,6453cc7fe5522ac61743334c,2023-05-04_17h21.27.106,ga_syllabified_check,2022.2.5,Win32,60.52536013,,,,,,,,,,,,,,./stim/p03_syllable_1_chiaba_hit.wav,p03,chiaba,hit,chia-ba,chia-ba,chi-a-ba, ,-0.377777778,-0.101851852,1,0,0,0.7712,text_option_1,,0,88,88,0,1
610a52647a452dee7ca89360,63f3cfca20052e4ae7554ebf,6453cc7fe5522ac61743334c,2023-05-04_17h21.27.106,ga_syllabified_check,2022.2.5,Win32,60.52536013,,,,,,,,,,,,,,./stim/p08_syllable_1_ruyiola_hit.wav,p08,ruyiola,hit,ru-yio-la,ru-yio-la,ru-yi-o-la, ,-0.411111111,-0.106481481,1,0,0,3.3884,text_option_1,,0,89,89,202,1
610a52647a452dee7ca89360,63f3cfca20052e4ae7554ebf,6453cc7fe5522ac61743334c,2023-05-04_17h21.27.106,ga_syllabified_check,2022.2.5,Win32,60.52536013,,,,,,,,,,,,,,./stim/p04_syllable_1_palufauro_hit.wav,p04,palufauro,hit,pa-lu-fau-ro,pa-lu-fau-ro,pa-lu-fa-u-ro, ,-0.390740741,-0.112962963,1,0,0,4.8004,text_option_1,,0,90,90,59,1
610a52647a452dee7ca89360,63f3cfca20052e4ae7554ebf,6453cc7fe5522ac61743334c,2023-05-04_17h21.27.106,ga_syllabified_check,2022.2.5,Win32,60.52536013,,,,,,,,,,,,,,./stim/p04_syllable_1_costonhialo_hit.wav,p04,costoñialo,hit,cos-to-nhia-lo,cos-to-ñia-lo,cos-to-ñi-a-lo, ,-0.42037037,-0.109259259,1,0,0,1.6381,text_option_1,,0,91,91,35,1
610a52647a452dee7ca89360,63f3cfca20052e4ae7554ebf,6453cc7fe5522ac61743334c,2023-05-04_17h21.27.106,ga_syllabified_check,2022.2.5,Win32,60.52536013,,,,,,,,,,,,,,./stim/p05_syllable_1_costonhialo_hit.wav,p05,costoñialo,hit,cos-to-nhia-lo,cos-to-ñia-lo,cos-to-ñi-a-lo, ,-0.387037037,-0.102777778,1,0,0,2.4619,text_option_1,,0,92,92,69,1
610a52647a452dee7ca89360,63f3cfca20052e4ae7554ebf,6453cc7fe5522ac61743334c,2023-05-04_17h21.27.106,ga_syllabified_check,2022.2.5,Win32,60.52536013,,,,,,,,,,,,,,./stim/p05_syllable_1_lakaduaisto_hit.wav,p05,lakaduaisto,hit,la-ka-dais-to,la-ka-duais-to,la-ka-du-ais-to,la-ka-dua-is-to,-0.036111111,-0.296296296,1,0,0,1.2116,text_option_other,la-ka-tais-to,0,93,93,77,1
610a52647a452dee7ca89360,63f3cfca20052e4ae7554ebf,6453cc7fe5522ac61743334c,2023-05-04_17h21.27.106,ga_syllabified_check,2022.2.5,Win32,60.52536013,,,,,,,,,,,,,,./stim/p06_syllable_1_lakakuaisto_hit.wav,p06,lakakuaisto,hit,la-ka-ku-a-is,la-ka-kuais-to,la-ka-ku-ais-to,la-ka-kua-is-to,-0.073148148,-0.307407407,1,0,0,9.9335,text_option_other,la-ka-ku-a-is-to,0,94,94,117,1
610a52647a452dee7ca89360,63f3cfca20052e4ae7554ebf,6453cc7fe5522ac61743334c,2023-05-04_17h21.27.106,ga_syllabified_check,2022.2.5,Win32,60.52536013,,,,,,,,,,,,,,./stim/p06_syllable_1_faluduako_hit.wav,p06,faluduako,hit,fa-lu-dua-ko,fa-lu-dua-ko,fa-lu-du-a-ko, ,-0.362962963,-0.108333333,1,0,0,3.0175,text_option_1,,0,95,95,104,1
610a52647a452dee7ca89360,63f3cfca20052e4ae7554ebf,6453cc7fe5522ac61743334c,2023-05-04_17h21.27.106,ga_syllabified_check,2022.2.5,Win32,60.52536013,,,,,,,,,,,,,,./stim/p06_syllable_1_lliape_hit.wav,p06,lliape,hit,lli-lla-pe,llia-pe,lli-a-pe, ,-0.063888889,-0.299074074,1,0,0,5.4003,text_option_other,i-lia-pe,0,96,96,122,1
610a52647a452dee7ca89360,63f3cfca20052e4ae7554ebf,6453cc7fe5522ac61743334c,2023-05-04_17h21.27.106,ga_syllabified_check,2022.2.5,Win32,60.52536013,,,,,,,,,,,,,,./stim/p05_syllable_1_lakadiaisto_hit.wav,p05,lakadiaisto,hit,la-ka-di-ais-to,la-ka-diais-to,la-ka-di-ais-to,la-ka-dia-is-to,-0.362962963,-0.106481481,1,0,0,2.3711,text_option_1,,0,97,97,76,1
610a52647a452dee7ca89360,63f3cfca20052e4ae7554ebf,6453cc7fe5522ac61743334c,2023-05-04_17h21.27.106,ga_syllabified_check,2022.2.5,Win32,60.52536013,,,,,,,,,,,,,,./stim/p08_syllable_1_lakadiaisto_hit.wav,p08,lakadiaisto,hit,la-ka-di-jas-to,la-ka-diais-to,la-ka-di-ais-to,la-ka-dia-is-to,-0.022222222,-0.29537037,1,0,0,3.5716,text_option_other,la-ka-dias-to,0,98,98,178,1
610a52647a452dee7ca89360,63f3cfca20052e4ae7554ebf,6453cc7fe5522ac61743334c,2023-05-04_17h21.27.106,ga_syllabified_check,2022.2.5,Win32,60.52536013,,,,,,,,,,,,,,./stim/p03_syllable_1_lakagiaisto_hit.wav,p03,lakagiaisto,hit,la-ka-giais-to,la-ka-giais-to,la-ka-gi-ais-to,la-ka-gia-is-to,-0.336111111,-0.108333333,1,0,0,2.7166,text_option_1,,0,99,99,12,1
610a52647a452dee7ca89360,63f3cfca20052e4ae7554ebf,6453cc7fe5522ac61743334c,2023-05-04_17h21.27.106,ga_syllabified_check,2022.2.5,Win32,60.52536013,,,,,,,,,,,,,,./stim/p03_syllable_1_payielo_hit.wav,p03,payielo,hit,pa-yie-lo,pa-yie-lo,pa-yi-e-lo, ,-0.037962963,-0.298148148,1,0,0,1.5216,text_option_other,pa-ye-lo,0,100,100,30,1
610a52647a452dee7ca89360,63f3cfca20052e4ae7554ebf,6453cc7fe5522ac61743334c,2023-05-04_17h21.27.106,ga_syllabified_check,2022.2.5,Win32,60.52536013,,,,,,,,,,,,,,./stim/p04_syllable_1_payielo_hit.wav,p04,payielo,hit,pa-yie-lo,pa-yie-lo,pa-yi-e-lo, ,-0.371296296,-0.109259259,1,0,0,2.9832,text_option_1,,0,101,101,64,1
610a52647a452dee7ca89360,63f3cfca20052e4ae7554ebf,6453cc7fe5522ac61743334c,2023-05-04_17h21.27.106,ga_syllabified_check,2022.2.5,Win32,60.52536013,,,,,,,,,,,,,,./stim/p06_syllable_1_mebochiana_hit.wav,p06,mebochiana,hit,me-bo-shi-a-na,me-bo-chia-na,me-bo-chi-a-na, ,0.424074074,-0.107407407,1,0,0,3.2549,text_option_2,,0,102,102,124,1
610a52647a452dee7ca89360,63f3cfca20052e4ae7554ebf,6453cc7fe5522ac61743334c,2023-05-04_17h21.27.106,ga_syllabified_check,2022.2.5,Win32,60.52536013,,,,,,,,,,,,,,./stim/p08_syllable_1_lakakuaisto_hit.wav,p08,lakakuaisto,hit,la-ka-ku-ais-to,la-ka-kuais-to,la-ka-ku-ais-to,la-ka-kua-is-to,0.344444444,-0.100925926,1,0,0,3.8172,text_option_2,,0,103,103,185,1
610a52647a452dee7ca89360,63f3cfca20052e4ae7554ebf,6453cc7fe5522ac61743334c,2023-05-04_17h21.27.106,ga_syllabified_check,2022.2.5,Win32,60.52536013,,,,,,,,,,,,,,./stim/p08_syllable_1_manhiala_hit.wav,p08,mañiala,hit,ma-nhia-la,ma-ñia-la,ma-ñi-a-la, ,-0.378703704,-0.108333333,1,0,0,2.3507,text_option_1,,0,104,104,191,1
610a52647a452dee7ca89360,63f3cfca20052e4ae7554ebf,6453cc7fe5522ac61743334c,2023-05-04_17h21.27.106,ga_syllabified_check,2022.2.5,Win32,60.52536013,,,,,,,,,,,,,,./stim/p04_syllable_1_chiaba_hit.wav,p04,chiaba,hit,chia-ba,chia-ba,chi-a-ba, ,-0.387962963,-0.105555556,1,0,0,1.0998,text_option_1,,0,105,105,34,1
610a52647a452dee7ca89360,63f3cfca20052e4ae7554ebf,6453cc7fe5522ac61743334c,2023-05-04_17h21.27.106,ga_syllabified_check,2022.2.5,Win32,60.52536013,,,,,,,,,,,,,,./stim/p03_syllable_1_nhiape_hit.wav,p03,ñiape,hit,nhia-pe,ñia-pe,ñi-a-pe, ,-0.387037037,-0.10462963,1,0,0,0.9165,text_option_1,,0,106,106,23,1
610a52647a452dee7ca89360,63f3cfca20052e4ae7554ebf,6453cc7fe5522ac61743334c,2023-05-04_17h21.27.106,ga_syllabified_check,2022.2.5,Win32,60.52536013,,,,,,,,,,,,,,./stim/p06_syllable_1_lakabuaisto_hit.wav,p06,lakabuaisto,hit,la-ka-bu-a-is,la-ka-buais-to,la-ka-bu-ais-to,la-ka-bua-is-to,-0.051851852,-0.302777778,1,0,0,4.417,text_option_other,la-ka-bu-a-is-to,0,107,107,109,1
610a52647a452dee7ca89360,63f3cfca20052e4ae7554ebf,6453cc7fe5522ac61743334c,2023-05-04_17h21.27.106,ga_syllabified_check,2022.2.5,Win32,60.52536013,,,,,,,,,,,,,,./stim/p06_syllable_1_lakatuaisto_hit.wav,p06,lakatuaisto,hit,la-ka-tu-a-is,la-ka-tuais-to,la-ka-tu-ais-to,la-ka-tua-is-to,-0.059259259,-0.3,1,0,0,6.5666,text_option_other,la-ka-tu-a-is-to,0,108,108,121,1
610a52647a452dee7ca89360,63f3cfca20052e4ae7554ebf,6453cc7fe5522ac61743334c,2023-05-04_17h21.27.106,ga_syllabified_check,2022.2.5,Win32,60.52536013,,,,,,,,,,,,,,./stim/p06_syllable_1_chiaba_hit.wav,p06,chiaba,hit,chi-a-ba,chia-ba,chi-a-ba, ,-0.365740741,-0.105555556,1,0,0,1.2668,text_option_1,,0,109,109,102,1
610a52647a452dee7ca89360,63f3cfca20052e4ae7554ebf,6453cc7fe5522ac61743334c,2023-05-04_17h21.27.106,ga_syllabified_check,2022.2.5,Win32,60.52536013,,,,,,,,,,,,,,./stim/p05_syllable_1_lakabiaisto_hit.wav,p05,lakabiaisto,hit,la-ka-bi-ais-to,la-ka-biais-to,la-ka-bi-ais-to,la-ka-bia-is-to,-0.407407407,-0.103703704,1,0,0,2.2167,text_option_1,,0,110,110,74,1
610a52647a452dee7ca89360,63f3cfca20052e4ae7554ebf,6453cc7fe5522ac61743334c,2023-05-04_17h21.27.106,ga_syllabified_check,2022.2.5,Win32,60.52536013,,,,,,,,,,,,,,./stim/p04_syllable_1_palumaisto_hit.wav,p04,palumaisto,hit,pa-lu-mais-to,pa-lu-mais-to,pa-lu-ma-is-to, ,-0.389814815,-0.092592593,1,0,0,2.8373,text_option_1,,0,111,111,62,1
610a52647a452dee7ca89360,63f3cfca20052e4ae7554ebf,6453cc7fe5522ac61743334c,2023-05-04_17h21.27.106,ga_syllabified_check,2022.2.5,Win32,60.52536013,,,,,,,,,,,,,,./stim/p08_syllable_1_flauro_hit.wav,p08,flauro,hit,flau-ro,flau-ro,fla-u-ro, ,-0.375,-0.101851852,1,0,0,1.2502,text_option_1,,0,112,112,175,1
610a52647a452dee7ca89360,63f3cfca20052e4ae7554ebf,6453cc7fe5522ac61743334c,2023-05-04_17h21.27.106,ga_syllabified_check,2022.2.5,Win32,60.52536013,,,,,,,,,,,,,,./stim/p04_syllable_1_paluguato_hit.wav,p04,paluguato,hit,pa-lu-gua,pa-lu-gua-to,pa-lu-gu-a-to, ,0.05,-0.288888889,1,0,0,1.7651,text_option_other,pa-lu-gua,0,113,113,61,1
610a52647a452dee7ca89360,63f3cfca20052e4ae7554ebf,6453cc7fe5522ac61743334c,2023-05-04_17h21.27.106,ga_syllabified_check,2022.2.5,Win32,60.52536013,,,,,,,,,,,,,,./stim/p06_syllable_1_palufauro_hit.wav,p06,palufauro,hit,pa-lu-fau-ro,pa-lu-fau-ro,pa-lu-fa-u-ro, ,-0.007407407,-0.302777778,1,0,0,3.5952,text_option_other,pa-lu-fao-u-ro,0,114,114,127,1
610a52647a452dee7ca89360,63f3cfca20052e4ae7554ebf,6453cc7fe5522ac61743334c,2023-05-04_17h21.27.106,ga_syllabified_check,2022.2.5,Win32,60.52536013,,,,,,,,,,,,,,./stim/p08_syllable_1_nhiape_hit.wav,p08,ñiape,hit,ni-a-pe,ñia-pe,ñi-a-pe, ,-0.017592593,-0.301851852,1,0,0,1.3878,text_option_other,niape,0,115,115,193,1
610a52647a452dee7ca89360,63f3cfca20052e4ae7554ebf,6453cc7fe5522ac61743334c,2023-05-04_17h21.27.106,ga_syllabified_check,2022.2.5,Win32,60.52536013,,,,,,,,,,,,,,./stim/p03_syllable_1_lakatuaisto_hit.wav,p03,lakatuaisto,hit,la-ka-tuais-to,la-ka-tuais-to,la-ka-tu-ais-to,la-ka-tua-is-to,-0.348148148,-0.108333333,1,0,0,4.4158,text_option_1,,0,116,116,19,1
610a52647a452dee7ca89360,63f3cfca20052e4ae7554ebf,6453cc7fe5522ac61743334c,2023-05-04_17h21.27.106,ga_syllabified_check,2022.2.5,Win32,60.52536013,,,,,,,,,,,,,,./stim/p06_syllable_1_palutrauco_hit.wav,p06,palutrauco,hit,pa-lu-tra-u-co,pa-lu-trau-co,pa-lu-tra-u-co, ,0.355555556,-0.105555556,1,0,0,2.6505,text_option_2,,0,117,117,131,1
610a52647a452dee7ca89360,63f3cfca20052e4ae7554ebf,6453cc7fe5522ac61743334c,2023-05-04_17h21.27.106,ga_syllabified_check,2022.2.5,Win32,60.52536013,,,,,,,,,,,,,,./stim/p08_syllable_1_lakapuaisto_hit.wav,p08,lakapuaisto,hit,la-ka-pu-as-to,la-ka-puais-to,la-ka-pu-ais-to,la-ka-pua-is-to,-0.003703704,-0.297222222,1,0,0,2.562,text_option_other,la-ka-puas-to,0,118,118,187,1
610a52647a452dee7ca89360,63f3cfca20052e4ae7554ebf,6453cc7fe5522ac61743334c,2023-05-04_17h21.27.106,ga_syllabified_check,2022.2.5,Win32,60.52536013,,,,,,,,,,,,,,./stim/p05_syllable_1_lakafiaisto_hit.wav,p05,lakafiaisto,hit,la-ka-fi-ais-to,la-ka-fiais-to,la-ka-fi-ais-to,la-ka-fia-is-to,-0.367592593,-0.106481481,1,0,0,3.7503,text_option_1,,0,119,119,78,1
610a52647a452dee7ca89360,63f3cfca20052e4ae7554ebf,6453cc7fe5522ac61743334c,2023-05-04_17h21.27.106,ga_syllabified_check,2022.2.5,Win32,60.52536013,,,,,,,,,,,,,,./stim/p04_syllable_1_mebochiana_hit.wav,p04,mebochiana,hit,me-bo-chia-na,me-bo-chia-na,me-bo-chi-a-na, ,-0.431481481,-0.108333333,1,0,0,2.2337,text_option_1,,0,120,120,56,1
610a52647a452dee7ca89360,63f3cfca20052e4ae7554ebf,6453cc7fe5522ac61743334c,2023-05-04_17h21.27.106,ga_syllabified_check,2022.2.5,Win32,60.52536013,,,,,,,,,,,,,,./stim/p03_syllable_1_costonhialo_hit.wav,p03,costoñialo,hit,cos-to-nhia-lo,cos-to-ñia-lo,cos-to-ñi-a-lo, ,-0.380555556,-0.101851852,1,0,0,2.9288,text_option_1,,0,121,121,1,1
610a52647a452dee7ca89360,63f3cfca20052e4ae7554ebf,6453cc7fe5522ac61743334c,2023-05-04_17h21.27.106,ga_syllabified_check,2022.2.5,Win32,60.52536013,,,,,,,,,,,,,,./stim/p08_syllable_1_lakafiaisto_hit.wav,p08,lakafiaisto,hit,la-ka-fi-as-to,la-ka-fiais-to,la-ka-fi-ais-to,la-ka-fia-is-to,-0.049074074,-0.289814815,1,0,0,3.6168,text_option_other,la-ka-fi-as-to,0,122,122,180,1
610a52647a452dee7ca89360,63f3cfca20052e4ae7554ebf,6453cc7fe5522ac61743334c,2023-05-04_17h21.27.106,ga_syllabified_check,2022.2.5,Win32,60.52536013,,,,,,,,,,,,,,./stim/p03_syllable_1_palutrauco_hit.wav,p03,palutrauco,hit,pa-lu-trau-co,pa-lu-trau-co,pa-lu-tra-u-co, ,-0.369444444,-0.105555556,1,0,0,2.3196,text_option_1,,0,123,123,29,1
610a52647a452dee7ca89360,63f3cfca20052e4ae7554ebf,6453cc7fe5522ac61743334c,2023-05-04_17h21.27.106,ga_syllabified_check,2022.2.5,Win32,60.52536013,,,,,,,,,,,,,,./stim/p05_syllable_1_nhiape_hit.wav,p05,ñiape,hit,nhia-pe,ñia-pe,ñi-a-pe, ,-0.425,-0.111111111,1,0,0,1.4663,text_option_1,,0,124,124,91,1
610a52647a452dee7ca89360,63f3cfca20052e4ae7554ebf,6453cc7fe5522ac61743334c,2023-05-04_17h21.27.106,ga_syllabified_check,2022.2.5,Win32,60.52536013,,,,,,,,,,,,,,./stim/p04_syllable_1_lakaduaisto_hit.wav,p04,lakaduaisto,hit,la-ka-duais-to,la-ka-duais-to,la-ka-du-ais-to,la-ka-dua-is-to,-0.384259259,-0.109259259,1,0,0,2.5497,text_option_1,,0,125,125,43,1
610a52647a452dee7ca89360,63f3cfca20052e4ae7554ebf,6453cc7fe5522ac61743334c,2023-05-04_17h21.27.106,ga_syllabified_check,2022.2.5,Win32,60.52536013,,,,,,,,,,,,,,./stim/p05_syllable_1_pachialo_hit.wav,p05,pachialo,hit,pan-chia-lo,pa-chia-lo,pa-chi-a-lo, ,-0.066666667,-0.296296296,1,0,0,5.5884,text_option_other,pan-chia-lo,0,126,126,92,1
610a52647a452dee7ca89360,63f3cfca20052e4ae7554ebf,6453cc7fe5522ac61743334c,2023-05-04_17h21.27.106,ga_syllabified_check,2022.2.5,Win32,60.52536013,,,,,,,,,,,,,,./stim/p07_syllable_1_lakaduaisto_hit.wav,p07,lakaduaisto,hit,la-ka-duais-to,la-ka-duais-to,la-ka-du-ais-to,la-ka-dua-is-to,-0.424074074,-0.1,1,0,0,2.5542,text_option_1,,0,127,127,145,1
610a52647a452dee7ca89360,63f3cfca20052e4ae7554ebf,6453cc7fe5522ac61743334c,2023-05-04_17h21.27.106,ga_syllabified_check,2022.2.5,Win32,60.52536013,,,,,,,,,,,,,,./stim/p03_syllable_1_lakaduaisto_hit.wav,p03,lakaduaisto,hit,la-ka-duais-to,la-ka-duais-to,la-ka-du-ais-to,la-ka-dua-is-to,-0.394444444,-0.106481481,1,0,0,1.684,text_option_1,,0,128,128,9,1
610a52647a452dee7ca89360,63f3cfca20052e4ae7554ebf,6453cc7fe5522ac61743334c,2023-05-04_17h21.27.106,ga_syllabified_check,2022.2.5,Win32,60.52536013,,,,,,,,,,,,,,./stim/p07_syllable_1_falufaisto_hit.wav,p07,falufaisto,hit,fa-lu-fais-to,fa-lu-fais-to,fa-lu-fa-is-to, ,-0.391666667,-0.088888889,1,0,0,2.4336,text_option_1,,0,129,129,139,1
610a52647a452dee7ca89360,63f3cfca20052e4ae7554ebf,6453cc7fe5522ac61743334c,2023-05-04_17h21.27.106,ga_syllabified_check,2022.2.5,Win32,60.52536013,,,,,,,,,,,,,,./stim/p07_syllable_1_paluguato_hit.wav,p07,paluguato,hit,pa-lu-gua-to,pa-lu-gua-to,pa-lu-gu-a-to, ,-0.413888889,-0.109259259,1,0,0,1.5506,text_option_1,,0,130,130,163,1
610a52647a452dee7ca89360,63f3cfca20052e4ae7554ebf,6453cc7fe5522ac61743334c,2023-05-04_17h21.27.106,ga_syllabified_check,2022.2.5,Win32,60.52536013,,,,,,,,,,,,,,./stim/p07_syllable_1_lakafuaisto_hit.wav,p07,lakafuaisto,hit,la-ka-fuais-to,la-ka-fuais-to,la-ka-fu-ais-to,la-ka-fua-is-to,-0.375,-0.102777778,1,0,0,1.9336,text_option_1,,0,131,131,147,1
610a52647a452dee7ca89360,63f3cfca20052e4ae7554ebf,6453cc7fe5522ac61743334c,2023-05-04_17h21.27.106,ga_syllabified_check,2022.2.5,Win32,60.52536013,,,,,,,,,,,,,,./stim/p03_syllable_1_lakafiaisto_hit.wav,p03,lakafiaisto,hit,la-ka-fiais-to,la-ka-fiais-to,la-ka-fi-ais-to,la-ka-fia-is-to,-0.389814815,-0.112037037,1,0,0,1.366,text_option_1,,0,132,132,10,1
610a52647a452dee7ca89360,63f3cfca20052e4ae7554ebf,6453cc7fe5522ac61743334c,2023-05-04_17h21.27.106,ga_syllabified_check,2022.2.5,Win32,60.52536013,,,,,,,,,,,,,,./stim/p06_syllable_1_rausto_hit.wav,p06,rausto,hit,ra-us-to,raus-to,ra-us-to, ,0.401851852,-0.112962963,1,0,0,1.8001,text_option_2,,0,133,133,133,1
610a52647a452dee7ca89360,63f3cfca20052e4ae7554ebf,6453cc7fe5522ac61743334c,2023-05-04_17h21.27.106,ga_syllabified_check,2022.2.5,Win32,60.52536013,,,,,,,,,,,,,,./stim/p05_syllable_1_paluguato_hit.wav,p05,paluguato,hit,pa-lu-gau-to,pa-lu-gua-to,pa-lu-gu-a-to, ,-0.031481481,-0.305555556,1,0,0,1.1848,text_option_other,pa-lu-cau-to,0,134,134,95,1
610a52647a452dee7ca89360,63f3cfca20052e4ae7554ebf,6453cc7fe5522ac61743334c,2023-05-04_17h21.27.106,ga_syllabified_check,2022.2.5,Win32,60.52536013,,,,,,,,,,,,,,./stim/p07_syllable_1_tuliafo_hit.wav,p07,tuliafo,hit,tu-lia-fo,tu-lia-fo,tu-li-a-fo, ,-0.389814815,-0.108333333,1,0,0,0.9161,text_option_1,,0,135,135,169,1
610a52647a452dee7ca89360,63f3cfca20052e4ae7554ebf,6453cc7fe5522ac61743334c,2023-05-04_17h21.27.106,ga_syllabified_check,2022.2.5,Win32,60.52536013,,,,,,,,,,,,,,./stim/p06_syllable_1_lakadiaisto_hit.wav,p06,lakadiaisto,hit,la-ka-dia-is-to,la-ka-diais-to,la-ka-di-ais-to,la-ka-dia-is-to,0.040740741,-0.102777778,1,0,0,2.9668,text_option_3,,0,136,136,110,1
610a52647a452dee7ca89360,63f3cfca20052e4ae7554ebf,6453cc7fe5522ac61743334c,2023-05-04_17h21.27.106,ga_syllabified_check,2022.2.5,Win32,60.52536013,,,,,,,,,,,,,,./stim/p04_syllable_1_lliape_hit.wav,p04,lliape,hit,lia-pe,llia-pe,lli-a-pe, ,-0.418518519,-0.109259259,1,0,0,5.1835,text_option_1,,0,137,137,54,1
610a52647a452dee7ca89360,63f3cfca20052e4ae7554ebf,6453cc7fe5522ac61743334c,2023-05-04_17h21.27.106,ga_syllabified_check,2022.2.5,Win32,60.52536013,,,,,,,,,,,,,,./stim/p04_syllable_1_lakatuaisto_hit.wav,p04,lakatuaisto,hit,la-ka-kuais-to,la-ka-tuais-to,la-ka-tu-ais-to,la-ka-tua-is-to,-0.384259259,-0.109259259,1,0,0,1.0673,text_option_1,,0,138,138,53,1
610a52647a452dee7ca89360,63f3cfca20052e4ae7554ebf,6453cc7fe5522ac61743334c,2023-05-04_17h21.27.106,ga_syllabified_check,2022.2.5,Win32,60.52536013,,,,,,,,,,,,,,./stim/p04_syllable_1_lakakuaisto_hit.wav,p04,lakakuaisto,hit,la-ka-kuais-to,la-ka-kuais-to,la-ka-ku-ais-to,la-ka-kua-is-to,-0.411111111,-0.1,1,0,0,0.979,text_option_1,,0,139,139,49,1
610a52647a452dee7ca89360,63f3cfca20052e4ae7554ebf,6453cc7fe5522ac61743334c,2023-05-04_17h21.27.106,ga_syllabified_check,2022.2.5,Win32,60.52536013,,,,,,,,,,,,,,./stim/p07_syllable_1_lakakuaisto_hit.wav,p07,lakakuaisto,hit,la-ka-kuais-to,la-ka-kuais-to,la-ka-ku-ais-to,la-ka-kua-is-to,-0.380555556,-0.101851852,1,0,0,3.2381,text_option_1,,0,140,140,151,1
610a52647a452dee7ca89360,63f3cfca20052e4ae7554ebf,6453cc7fe5522ac61743334c,2023-05-04_17h21.27.106,ga_syllabified_check,2022.2.5,Win32,60.52536013,,,,,,,,,,,,,,./stim/p04_syllable_1_lakagiaisto_hit.wav,p04,lakagiaisto,hit,la-ka-giais-to,la-ka-giais-to,la-ka-gi-ais-to,la-ka-gia-is-to,-0.335185185,-0.107407407,1,0,0,1.7664,text_option_1,,0,141,141,46,1
610a52647a452dee7ca89360,63f3cfca20052e4ae7554ebf,6453cc7fe5522ac61743334c,2023-05-04_17h21.27.106,ga_syllabified_check,2022.2.5,Win32,60.52536013,,,,,,,,,,,,,,./stim/p05_syllable_1_lakapiaisto_hit.wav,p05,lakapiaisto,hit,la-ka-pais-to,la-ka-piais-to,la-ka-pi-ais-to,la-ka-pia-is-to,-0.048148148,-0.309259259,1,0,0,1.667,text_option_other,la-ka-pais-to,0,142,142,84,1
610a52647a452dee7ca89360,63f3cfca20052e4ae7554ebf,6453cc7fe5522ac61743334c,2023-05-04_17h21.27.106,ga_syllabified_check,2022.2.5,Win32,60.52536013,,,,,,,,,,,,,,./stim/p08_syllable_1_lakatuaisto_hit.wav,p08,lakatuaisto,hit,la-ka-tu-i-jis,la-ka-tuais-to,la-ka-tu-ais-to,la-ka-tua-is-to,-0.002777778,-0.301851852,1,0,0,2.6786,text_option_other,la-ka-tuis-to,0,143,143,189,1
610a52647a452dee7ca89360,63f3cfca20052e4ae7554ebf,6453cc7fe5522ac61743334c,2023-05-04_17h21.27.106,ga_syllabified_check,2022.2.5,Win32,60.52536013,,,,,,,,,,,,,,./stim/p04_syllable_1_lakadiaisto_hit.wav,p04,lakadiaisto,hit,la-ka-dias-to,la-ka-diais-to,la-ka-di-ais-to,la-ka-dia-is-to,-0.036111111,-0.297222222,1,0,0,1.434,text_option_other,la-ka-yas-to,0,144,144,42,1
610a52647a452dee7ca89360,63f3cfca20052e4ae7554ebf,6453cc7fe5522ac61743334c,2023-05-04_17h21.27.106,ga_syllabified_check,2022.2.5,Win32,60.52536013,,,,,,,,,,,,,,./stim/p08_syllable_1_lliape_hit.wav,p08,lliape,hit,li-a-pe,llia-pe,lli-a-pe, ,0.430555556,-0.103703704,1,0,0,2.0664,text_option_2,,0,145,145,190,1
610a52647a452dee7ca89360,63f3cfca20052e4ae7554ebf,6453cc7fe5522ac61743334c,2023-05-04_17h21.27.106,ga_syllabified_check,2022.2.5,Win32,60.52536013,,,,,,,,,,,,,,./stim/p08_syllable_1_faluduako_hit.wav,p08,faluduako,hit,fa-lu-duai-ko,fa-lu-dua-ko,fa-lu-du-a-ko, ,-0.001851852,-0.298148148,1,0,0,2.4334,text_option_other,fa-lu-dua-i-ko,0,146,146,172,1
610a52647a452dee7ca89360,63f3cfca20052e4ae7554ebf,6453cc7fe5522ac61743334c,2023-05-04_17h21.27.106,ga_syllabified_check,2022.2.5,Win32,60.52536013,,,,,,,,,,,,,,./stim/p07_syllable_1_nhiape_hit.wav,p07,ñiape,hit,nhia-pe,ñia-pe,ñi-a-pe, ,-0.037962963,-0.292592593,1,0,0,0.7838,text_option_other,nia-pe,0,147,147,159,1
610a52647a452dee7ca89360,63f3cfca20052e4ae7554ebf,6453cc7fe5522ac61743334c,2023-05-04_17h21.27.106,ga_syllabified_check,2022.2.5,Win32,60.52536013,,,,,,,,,,,,,,./stim/p03_syllable_1_lakabiaisto_hit.wav,p03,lakabiaisto,hit,la-ka-biais-to,la-ka-biais-to,la-ka-bi-ais-to,la-ka-bia-is-to,-0.371296296,-0.106481481,1,0,0,2.6672,text_option_1,,0,148,148,6,1
610a52647a452dee7ca89360,63f3cfca20052e4ae7554ebf,6453cc7fe5522ac61743334c,2023-05-04_17h21.27.106,ga_syllabified_check,2022.2.5,Win32,60.52536013,,,,,,,,,,,,,,./stim/p04_syllable_1_lakafiaisto_hit.wav,p04,lakafiaisto,hit,la-ka-fiais-to,la-ka-fiais-to,la-ka-fi-ais-to,la-ka-fia-is-to,-0.368518519,-0.108333333,1,0,0,1.271,text_option_1,,0,149,149,44,1
610a52647a452dee7ca89360,63f3cfca20052e4ae7554ebf,6453cc7fe5522ac61743334c,2023-05-04_17h21.27.106,ga_syllabified_check,2022.2.5,Win32,60.52536013,,,,,,,,,,,,,,./stim/p04_syllable_1_tuliafo_hit.wav,p04,tuliafo,hit,tu-lia-fo,tu-lia-fo,tu-li-a-fo, ,-0.425925926,-0.097222222,1,0,0,1.9674,text_option_1,,0,150,150,67,1
610a52647a452dee7ca89360,63f3cfca20052e4ae7554ebf,6453cc7fe5522ac61743334c,2023-05-04_17h21.27.106,ga_syllabified_check,2022.2.5,Win32,60.52536013,,,,,,,,,,,,,,./stim/p03_syllable_1_manhiala_hit.wav,p03,mañiala,hit,ma-nhia-la,ma-ñia-la,ma-ñi-a-la, ,-0.392592593,-0.109259259,1,0,0,1.6219,text_option_1,,0,151,151,21,1
610a52647a452dee7ca89360,63f3cfca20052e4ae7554ebf,6453cc7fe5522ac61743334c,2023-05-04_17h21.27.106,ga_syllabified_check,2022.2.5,Win32,60.52536013,,,,,,,,,,,,,,./stim/p03_syllable_1_lliape_hit.wav,p03,lliape,hit,llia,llia-pe,lli-a-pe, ,-0.032407407,-0.294444444,1,0,0,1.3997,text_option_other,llape,0,152,152,20,1
610a52647a452dee7ca89360,63f3cfca20052e4ae7554ebf,6453cc7fe5522ac61743334c,2023-05-04_17h21.27.106,ga_syllabified_check,2022.2.5,Win32,60.52536013,,,,,,,,,,,,,,./stim/p05_syllable_1_lakatuaisto_hit.wav,p05,lakatuaisto,hit,la-ka-tais-to,la-ka-tuais-to,la-ka-tu-ais-to,la-ka-tua-is-to,-0.082407407,-0.306481481,1,0,0,1.8004,text_option_other,la-ka-tais-to,0,153,153,87,1
610a52647a452dee7ca89360,63f3cfca20052e4ae7554ebf,6453cc7fe5522ac61743334c,2023-05-04_17h21.27.106,ga_syllabified_check,2022.2.5,Win32,60.52536013,,,,,,,,,,,,,,./stim/p05_syllable_1_palufauto_hit.wav,p05,palufauto,hit,pa-lu-fau-to,pa-lu-fau-to,pa-lu-fa-u-to, ,-0.418518519,-0.098148148,1,0,0,2.1494,text_option_1,,0,154,154,94,1
610a52647a452dee7ca89360,63f3cfca20052e4ae7554ebf,6453cc7fe5522ac61743334c,2023-05-04_17h21.27.106,ga_syllabified_check,2022.2.5,Win32,60.52536013,,,,,,,,,,,,,,./stim/p06_syllable_1_lakaguaisto_hit.wav,p06,lakaguaisto,hit,la-ka-gu-a-is,la-ka-guais-to,la-ka-gu-ais-to,la-ka-gua-is-to,0.402777778,-0.10462963,1,0,0,7.5833,text_option_2,,0,155,155,115,1
610a52647a452dee7ca89360,63f3cfca20052e4ae7554ebf,6453cc7fe5522ac61743334c,2023-05-04_17h21.27.106,ga_syllabified_check,2022.2.5,Win32,60.52536013,,,,,,,,,,,,,,./stim/p04_syllable_1_rausto_hit.wav,p04,rausto,hit,raus-to,raus-to,ra-us-to, ,-0.375925926,-0.10462963,1,0,0,2.1835,text_option_1,,0,156,156,65,1
610a52647a452dee7ca89360,63f3cfca20052e4ae7554ebf,6453cc7fe5522ac61743334c,2023-05-04_17h21.27.106,ga_syllabified_check,2022.2.5,Win32,60.52536013,,,,,,,,,,,,,,./stim/p03_syllable_1_palufauro_hit.wav,p03,palufauro,hit,pa-lu-fau-ro,pa-lu-fau-ro,pa-lu-fa-u-ro, ,-0.368518519,-0.1,1,0,0,1.4216,text_option_1,,0,157,157,25,1
610a52647a452dee7ca89360,63f3cfca20052e4ae7554ebf,6453cc7fe5522ac61743334c,2023-05-04_17h21.27.106,ga_syllabified_check,2022.2.5,Win32,60.52536013,,,,,,,,,,,,,,./stim/p03_syllable_1_lakapiaisto_hit.wav,p03,lakapiaisto,hit,la-ka-piais-to,la-ka-piais-to,la-ka-pi-ais-to,la-ka-pia-is-to,-0.328703704,-0.109259259,1,0,0,1.7346,text_option_1,,0,158,158,16,1
610a52647a452dee7ca89360,63f3cfca20052e4ae7554ebf,6453cc7fe5522ac61743334c,2023-05-04_17h21.27.106,ga_syllabified_check,2022.2.5,Win32,60.52536013,,,,,,,,,,,,,,./stim/p07_syllable_1_lakabuaisto_hit.wav,p07,lakabuaisto,hit,la-ka-buais-to,la-ka-buais-to,la-ka-bu-ais-to,la-ka-bua-is-to,-0.383333333,-0.097222222,1,0,0,2.4335,text_option_1,,0,159,159,143,1
610a52647a452dee7ca89360,63f3cfca20052e4ae7554ebf,6453cc7fe5522ac61743334c,2023-05-04_17h21.27.106,ga_syllabified_check,2022.2.5,Win32,60.52536013,,,,,,,,,,,,,,./stim/p05_syllable_1_lakakiaisto_hit.wav,p05,lakakiaisto,hit,la-ka-ki-ais-to,la-ka-kiais-to,la-ka-ki-ais-to,la-ka-kia-is-to,0.013888889,-0.108333333,1,0,0,3.6885,text_option_3,,0,160,160,82,1
610a52647a452dee7ca89360,63f3cfca20052e4ae7554ebf,6453cc7fe5522ac61743334c,2023-05-04_17h21.27.106,ga_syllabified_check,2022.2.5,Win32,60.52536013,,,,,,,,,,,,,,./stim/p05_syllable_1_lakafuaisto_hit.wav,p05,lakafuaisto,hit,la-ka-fais-to,la-ka-fuais-to,la-ka-fu-ais-to,la-ka-fua-is-to,-0.049074074,-0.299074074,1,0,0,1.3507,text_option_other,la-ka-fais-to,0,161,161,79,1
610a52647a452dee7ca89360,63f3cfca20052e4ae7554ebf,6453cc7fe5522ac61743334c,2023-05-04_17h21.27.106,ga_syllabified_check,2022.2.5,Win32,60.52536013,,,,,,,,,,,,,,./stim/p08_syllable_1_costonhialo_hit.wav,p08,costoñialo,hit,cos-to-nhia-lo,cos-to-ñia-lo,cos-to-ñi-a-lo, ,-0.348148148,-0.107407407,1,0,0,1.8947,text_option_1,,0,162,162,171,1
610a52647a452dee7ca89360,63f3cfca20052e4ae7554ebf,6453cc7fe5522ac61743334c,2023-05-04_17h21.27.106,ga_syllabified_check,2022.2.5,Win32,60.52536013,,,,,,,,,,,,,,./stim/p07_syllable_1_lakadiaisto_hit.wav,p07,lakadiaisto,hit,la-ka-dia-is-to,la-ka-diais-to,la-ka-di-ais-to,la-ka-dia-is-to,0.025925926,-0.10462963,1,0,0,2.8286,text_option_3,,0,163,163,144,1
610a52647a452dee7ca89360,63f3cfca20052e4ae7554ebf,6453cc7fe5522ac61743334c,2023-05-04_17h21.27.106,ga_syllabified_check,2022.2.5,Win32,60.52536013,,,,,,,,,,,,,,./stim/p06_syllable_1_palufauto_hit.wav,p06,palufauto,hit,pa-lu-fau-to,pa-lu-fau-to,pa-lu-fa-u-to, ,-0.362037037,-0.096296296,1,0,0,3.0155,text_option_1,,0,164,164,128,1
610a52647a452dee7ca89360,63f3cfca20052e4ae7554ebf,6453cc7fe5522ac61743334c,2023-05-04_17h21.27.106,ga_syllabified_check,2022.2.5,Win32,60.52536013,,,,,,,,,,,,,,./stim/p08_syllable_1_lakagiaisto_hit.wav,p08,lakagiaisto,hit,la-ka-gi-jas-to,la-ka-giais-to,la-ka-gi-ais-to,la-ka-gia-is-to,0.388888889,-0.10462963,1,0,0,3.7835,text_option_2,,0,165,165,182,1
610a52647a452dee7ca89360,63f3cfca20052e4ae7554ebf,6453cc7fe5522ac61743334c,2023-05-04_17h21.27.106,ga_syllabified_check,2022.2.5,Win32,60.52536013,,,,,,,,,,,,,,./stim/p08_syllable_1_mebochiana_hit.wav,p08,mebochiana,hit,me-bo-chi-a-na,me-bo-chia-na,me-bo-chi-a-na, ,0.386111111,-0.101851852,1,0,0,1.9218,text_option_2,,0,166,166,192,1
610a52647a452dee7ca89360,63f3cfca20052e4ae7554ebf,6453cc7fe5522ac61743334c,2023-05-04_17h21.27.106,ga_syllabified_check,2022.2.5,Win32,60.52536013,,,,,,,,,,,,,,./stim/p08_syllable_1_falufaisto_hit.wav,p08,falufaisto,hit,fa-lu-fais-to,fa-lu-fais-to,fa-lu-fa-is-to, ,-0.42037037,-0.105555556,1,0,0,2.2839,text_option_1,,0,167,167,173,1
610a52647a452dee7ca89360,63f3cfca20052e4ae7554ebf,6453cc7fe5522ac61743334c,2023-05-04_17h21.27.106,ga_syllabified_check,2022.2.5,Win32,60.52536013,,,,,,,,,,,,,,./stim/p07_syllable_1_palutrauco_hit.wav,p07,palutrauco,hit,pa-lu-trau-co,pa-lu-trau-co,pa-lu-tra-u-co, ,-0.383333333,-0.107407407,1,0,0,1.0213,text_option_1,,0,168,168,165,1
610a52647a452dee7ca89360,63f3cfca20052e4ae7554ebf,6453cc7fe5522ac61743334c,2023-05-04_17h21.27.106,ga_syllabified_check,2022.2.5,Win32,60.52536013,,,,,,,,,,,,,,./stim/p06_syllable_1_lakaduaisto_hit.wav,p06,lakaduaisto,hit,la-ka-du-a-is,la-ka-duais-to,la-ka-du-ais-to,la-ka-dua-is-to,-0.057407407,-0.286111111,1,0,0,5.0291,text_option_other,la-ka-du-a-is-to,0,169,169,111,1
610a52647a452dee7ca89360,63f3cfca20052e4ae7554ebf,6453cc7fe5522ac61743334c,2023-05-04_17h21.27.106,ga_syllabified_check,2022.2.5,Win32,60.52536013,,,,,,,,,,,,,,./stim/p06_syllable_1_lakapuaisto_hit.wav,p06,lakapuaisto,hit,la-ka-pu-a-is,la-ka-puais-to,la-ka-pu-ais-to,la-ka-pua-is-to,-0.018518519,-0.278703704,1,0,0,4.6668,text_option_other,la-ka-pu-a-is-to,0,170,170,119,1
610a52647a452dee7ca89360,63f3cfca20052e4ae7554ebf,6453cc7fe5522ac61743334c,2023-05-04_17h21.27.106,ga_syllabified_check,2022.2.5,Win32,60.52536013,,,,,,,,,,,,,,./stim/p05_syllable_1_falutraigo_hit.wav,p05,falutraigo,hit,fa-lu-trai-go,fa-lu-trai-go,fa-lu-tra-i-go, ,-0.040740741,-0.293518519,1,0,0,1.4002,text_option_other,fa-lu-trai-co,0,171,171,72,1
610a52647a452dee7ca89360,63f3cfca20052e4ae7554ebf,6453cc7fe5522ac61743334c,2023-05-04_17h21.27.106,ga_syllabified_check,2022.2.5,Win32,60.52536013,,,,,,,,,,,,,,./stim/p05_syllable_1_lliape_hit.wav,p05,lliape,hit,liai-pe,llia-pe,lli-a-pe, ,0.022222222,-0.305555556,1,0,0,2.783,text_option_other,lliai-pe,0,172,172,88,1
610a52647a452dee7ca89360,63f3cfca20052e4ae7554ebf,6453cc7fe5522ac61743334c,2023-05-04_17h21.27.106,ga_syllabified_check,2022.2.5,Win32,60.52536013,,,,,,,,,,,,,,./stim/p05_syllable_1_manhiala_hit.wav,p05,mañiala,hit,ma-nhia-la,ma-ñia-la,ma-ñi-a-la, ,-0.406481481,-0.107407407,1,0,0,1.7167,text_option_1,,0,173,173,89,1
610a52647a452dee7ca89360,63f3cfca20052e4ae7554ebf,6453cc7fe5522ac61743334c,2023-05-04_17h21.27.106,ga_syllabified_check,2022.2.5,Win32,60.52536013,,,,,,,,,,,,,,./stim/p07_syllable_1_lliape_hit.wav,p07,lliape,hit,lliai-pe,llia-pe,lli-a-pe, ,0.05462963,-0.299074074,1,0,0,0.8845,text_option_other,lliai-pe,0,174,174,156,1
610a52647a452dee7ca89360,63f3cfca20052e4ae7554ebf,6453cc7fe5522ac61743334c,2023-05-04_17h21.27.106,ga_syllabified_check,2022.2.5,Win32,60.52536013,,,,,,,,,,,,,,./stim/p06_syllable_1_tuliafo_hit.wav,p06,tuliafo,hit,tu-li-a-fo,tu-lia-fo,tu-li-a-fo, ,0.412962963,-0.110185185,1,0,0,1.4994,text_option_2,,0,175,175,135,1
610a52647a452dee7ca89360,63f3cfca20052e4ae7554ebf,6453cc7fe5522ac61743334c,2023-05-04_17h21.27.106,ga_syllabified_check,2022.2.5,Win32,60.52536013,,,,,,,,,,,,,,./stim/p06_syllable_1_nhiape_hit.wav,p06,ñiape,hit,nhi-a-pe,ñia-pe,ñi-a-pe, ,-0.05462963,-0.303703704,1,0,0,1.5001,text_option_other,ni-a-pe,0,176,176,125,1
610a52647a452dee7ca89360,63f3cfca20052e4ae7554ebf,6453cc7fe5522ac61743334c,2023-05-04_17h21.27.106,ga_syllabified_check,2022.2.5,Win32,60.52536013,,,,,,,,,,,,,,./stim/p07_syllable_1_lakapuaisto_hit.wav,p07,lakapuaisto,hit,la-ka-puais-to,la-ka-puais-to,la-ka-pu-ais-to,la-ka-pua-is-to,-0.412962963,-0.110185185,1,0,0,2.4504,text_option_1,,0,177,177,153,1
610a52647a452dee7ca89360,63f3cfca20052e4ae7554ebf,6453cc7fe5522ac61743334c,2023-05-04_17h21.27.106,ga_syllabified_check,2022.2.5,Win32,60.52536013,,,,,,,,,,,,,,./stim/p08_syllable_1_palutrauco_hit.wav,p08,palutrauco,hit,pa-lu-trau-ko,pa-lu-trau-co,pa-lu-tra-u-co, ,-0.418518519,-0.100925926,1,0,0,2.5166,text_option_1,,0,178,178,199,1
610a52647a452dee7ca89360,63f3cfca20052e4ae7554ebf,6453cc7fe5522ac61743334c,2023-05-04_17h21.27.106,ga_syllabified_check,2022.2.5,Win32,60.52536013,,,,,,,,,,,,,,./stim/p03_syllable_1_lakakiaisto_hit.wav,p03,lakakiaisto,hit,la-ka-kiais-to,la-ka-kiais-to,la-ka-ki-ais-to,la-ka-kia-is-to,-0.428703704,-0.100925926,1,0,0,1.817,text_option_1,,0,179,179,14,1
610a52647a452dee7ca89360,63f3cfca20052e4ae7554ebf,6453cc7fe5522ac61743334c,2023-05-04_17h21.27.106,ga_syllabified_check,2022.2.5,Win32,60.52536013,,,,,,,,,,,,,,./stim/p04_syllable_1_faluduako_hit.wav,p04,faluduako,hit,fa-lu-dua-ko,fa-lu-dua-ko,fa-lu-du-a-ko, ,-0.358333333,-0.09537037,1,0,0,0.9719,text_option_1,,0,180,180,36,1
610a52647a452dee7ca89360,63f3cfca20052e4ae7554ebf,6453cc7fe5522ac61743334c,2023-05-04_17h21.27.106,ga_syllabified_check,2022.2.5,Win32,60.52536013,,,,,,,,,,,,,,./stim/p05_syllable_1_mebochiana_hit.wav,p05,mebochiana,hit,me-cho-chai-na,me-bo-chia-na,me-bo-chi-a-na, ,-0.006481481,-0.301851852,1,0,0,0.9451,text_option_other,me-cho-chai-na,0,181,181,90,1
610a52647a452dee7ca89360,63f3cfca20052e4ae7554ebf,6453cc7fe5522ac61743334c,2023-05-04_17h21.27.106,ga_syllabified_check,2022.2.5,Win32,60.52536013,,,,,,,,,,,,,,./stim/p08_syllable_1_rausto_hit.wav,p08,rausto,hit,raus-to,raus-to,ra-us-to, ,-0.387037037,-0.106481481,1,0,0,1.5668,text_option_1,,0,182,182,201,1
610a52647a452dee7ca89360,63f3cfca20052e4ae7554ebf,6453cc7fe5522ac61743334c,2023-05-04_17h21.27.106,ga_syllabified_check,2022.2.5,Win32,60.52536013,,,,,,,,,,,,,,./stim/p08_syllable_1_palumaisto_hit.wav,p08,palumaisto,hit,pa-lu-mais-to,pa-lu-mais-to,pa-lu-ma-is-to, ,-0.340740741,-0.10462963,1,0,0,2.9504,text_option_1,,0,183,183,198,1
610a52647a452dee7ca89360,63f3cfca20052e4ae7554ebf,6453cc7fe5522ac61743334c,2023-05-04_17h21.27.106,ga_syllabified_check,2022.2.5,Win32,60.52536013,,,,,,,,,,,,,,./stim/p07_syllable_1_lakafiaisto_hit.wav,p07,lakafiaisto,hit,la-ka-fiais-to,la-ka-fiais-to,la-ka-fi-ais-to,la-ka-fia-is-to,-0.360185185,-0.106481481,1,0,0,1.6333,text_option_1,,0,184,184,146,1
610a52647a452dee7ca89360,63f3cfca20052e4ae7554ebf,6453cc7fe5522ac61743334c,2023-05-04_17h21.27.106,ga_syllabified_check,2022.2.5,Win32,60.52536013,,,,,,,,,,,,,,./stim/p05_syllable_1_lakaguaisto_hit.wav,p05,lakaguaisto,hit,la-ka-gais,la-ka-guais-to,la-ka-gu-ais-to,la-ka-gua-is-to,-0.049074074,-0.305555556,1,0,0,0.8969,text_option_other,la-ka-kais-to,0,185,185,81,1
610a52647a452dee7ca89360,63f3cfca20052e4ae7554ebf,6453cc7fe5522ac61743334c,2023-05-04_17h21.27.106,ga_syllabified_check,2022.2.5,Win32,60.52536013,,,,,,,,,,,,,,./stim/p06_syllable_1_pachialo_hit.wav,p06,pachialo,hit,pa-shi-a-lo,pa-chia-lo,pa-chi-a-lo, ,0.415740741,-0.108333333,1,0,0,1.3834,text_option_2,,0,186,186,126,1
610a52647a452dee7ca89360,63f3cfca20052e4ae7554ebf,6453cc7fe5522ac61743334c,2023-05-04_17h21.27.106,ga_syllabified_check,2022.2.5,Win32,60.52536013,,,,,,,,,,,,,,./stim/p08_syllable_1_lakatiaisto_hit.wav,p08,lakatiaisto,hit,la-ka-ti-as-to,la-ka-tiais-to,la-ka-ti-ais-to,la-ka-tia-is-to,-0.07037037,-0.311111111,1,0,0,4.3663,text_option_other,la-ka-ti-as-to,0,187,187,188,1
610a52647a452dee7ca89360,63f3cfca20052e4ae7554ebf,6453cc7fe5522ac61743334c,2023-05-04_17h21.27.106,ga_syllabified_check,2022.2.5,Win32,60.52536013,,,,,,,,,,,,,,./stim/p05_syllable_1_lakagiaisto_hit.wav,p05,lakagiaisto,hit,la-ka-ki-ais-to,la-ka-giais-to,la-ka-gi-ais-to,la-ka-gia-is-to,-0.363888889,-0.115740741,1,0,0,1.3718,text_option_1,,0,188,188,80,1
610a52647a452dee7ca89360,63f3cfca20052e4ae7554ebf,6453cc7fe5522ac61743334c,2023-05-04_17h21.27.106,ga_syllabified_check,2022.2.5,Win32,60.52536013,,,,,,,,,,,,,,./stim/p08_syllable_1_lakaguaisto_hit.wav,p08,lakaguaisto,hit,la-ka-gu-ais-to,la-ka-guais-to,la-ka-gu-ais-to,la-ka-gua-is-to,-0.351851852,-0.109259259,1,0,0,3.2381,text_option_1,,0,189,189,183,1
610a52647a452dee7ca89360,63f3cfca20052e4ae7554ebf,6453cc7fe5522ac61743334c,2023-05-04_17h21.27.106,ga_syllabified_check,2022.2.5,Win32,60.52536013,,,,,,,,,,,,,,./stim/p06_syllable_1_lakafuaisto_hit.wav,p06,lakafuaisto,hit,la-ka-fu-a-is,la-ka-fuais-to,la-ka-fu-ais-to,la-ka-fua-is-to,-0.069444444,-0.287037037,1,0,0,4.5548,text_option_other,la-ka-fu-a-is-to,0,190,190,113,1
610a52647a452dee7ca89360,63f3cfca20052e4ae7554ebf,6453cc7fe5522ac61743334c,2023-05-04_17h21.27.106,ga_syllabified_check,2022.2.5,Win32,60.52536013,,,,,,,,,,,,,,./stim/p05_syllable_1_payielo_hit.wav,p05,payielo,hit,pai-yu-we-lo,pa-yie-lo,pa-yi-e-lo, ,-0.027777778,-0.306481481,1,0,0,0.8949,text_option_other,pa-yu-e-lo,0,191,191,98,1
610a52647a452dee7ca89360,63f3cfca20052e4ae7554ebf,6453cc7fe5522ac61743334c,2023-05-04_17h21.27.106,ga_syllabified_check,2022.2.5,Win32,60.52536013,,,,,,,,,,,,,,./stim/p05_syllable_1_tuliafo_hit.wav,p05,tuliafo,hit,tu-lai-fo,tu-lia-fo,tu-li-a-fo, ,-0.056481481,-0.287037037,1,0,0,0.9008,text_option_other,tu-lai-fo,0,192,192,101,1
610a52647a452dee7ca89360,63f3cfca20052e4ae7554ebf,6453cc7fe5522ac61743334c,2023-05-04_17h21.27.106,ga_syllabified_check,2022.2.5,Win32,60.52536013,,,,,,,,,,,,,,./stim/p03_syllable_1_faluduako_hit.wav,p03,faluduako,hit,fa-lu-dua-ko,fa-lu-dua-ko,fa-lu-du-a-ko, ,-0.364814815,-0.096296296,1,0,0,2.3486,text_option_1,,0,193,193,2,1
610a52647a452dee7ca89360,63f3cfca20052e4ae7554ebf,6453cc7fe5522ac61743334c,2023-05-04_17h21.27.106,ga_syllabified_check,2022.2.5,Win32,60.52536013,,,,,,,,,,,,,,./stim/p07_syllable_1_falutraigo_hit.wav,p07,falutraigo,hit,fa-lu-trai-go,fa-lu-trai-go,fa-lu-tra-i-go, ,-0.037037037,-0.321296296,1,0,0,3.8954,text_option_other,fa-lu-trae-go,0,194,194,140,1
610a52647a452dee7ca89360,63f3cfca20052e4ae7554ebf,6453cc7fe5522ac61743334c,2023-05-04_17h21.27.106,ga_syllabified_check,2022.2.5,Win32,60.52536013,,,,,,,,,,,,,,./stim/p05_syllable_1_faluduako_hit.wav,p05,faluduako,hit,fa-lu-ba-ko,fa-lu-dua-ko,fa-lu-du-a-ko, ,0.001851852,-0.299074074,1,0,0,0.9717,text_option_other,fa-lu-ba-ko,0,195,195,70,1
610a52647a452dee7ca89360,63f3cfca20052e4ae7554ebf,6453cc7fe5522ac61743334c,2023-05-04_17h21.27.106,ga_syllabified_check,2022.2.5,Win32,60.52536013,,,,,,,,,,,,,,./stim/p07_syllable_1_mebochiana_hit.wav,p07,mebochiana,hit,me-bo-chia-na,me-bo-chia-na,me-bo-chi-a-na, ,-0.42037037,-0.09537037,1,0,0,2.5326,text_option_1,,0,196,196,158,1
610a52647a452dee7ca89360,63f3cfca20052e4ae7554ebf,6453cc7fe5522ac61743334c,2023-05-04_17h21.27.106,ga_syllabified_check,2022.2.5,Win32,60.52536013,,,,,,,,,,,,,,./stim/p04_syllable_1_lakapiaisto_hit.wav,p04,lakapiaisto,hit,la-ka-piais-to,la-ka-piais-to,la-ka-pi-ais-to,la-ka-pia-is-to,-0.461111111,-0.109259259,1,0,0,1.4514,text_option_1,,0,197,197,50,1
610a52647a452dee7ca89360,63f3cfca20052e4ae7554ebf,6453cc7fe5522ac61743334c,2023-05-04_17h21.27.106,ga_syllabified_check,2022.2.5,Win32,60.52536013,,,,,,,,,,,,,,./stim/p07_syllable_1_lakakiaisto_hit.wav,p07,lakakiaisto,hit,la-ka-kais-to,la-ka-kiais-to,la-ka-ki-ais-to,la-ka-kia-is-to,-0.019444444,-0.296296296,1,0,0,1.7211,text_option_other,la-ka-kais-to,0,198,198,150,1
610a52647a452dee7ca89360,63f3cfca20052e4ae7554ebf,6453cc7fe5522ac61743334c,2023-05-04_17h21.27.106,ga_syllabified_check,2022.2.5,Win32,60.52536013,,,,,,,,,,,,,,./stim/p07_syllable_1_lakatuaisto_hit.wav,p07,lakatuaisto,hit,la-ka-tuais-to,la-ka-tuais-to,la-ka-tu-ais-to,la-ka-tua-is-to,-0.385185185,-0.105555556,1,0,0,3.067,text_option_1,,0,199,199,155,1
610a52647a452dee7ca89360,63f3cfca20052e4ae7554ebf,6453cc7fe5522ac61743334c,2023-05-04_17h21.27.106,ga_syllabified_check,2022.2.5,Win32,60.52536013,,,,,,,,,,,,,,./stim/p03_syllable_1_lakapuaisto_hit.wav,p03,lakapuaisto,hit,la-ka-puais-to,la-ka-puais-to,la-ka-pu-ais-to,la-ka-pua-is-to,-0.408333333,-0.108333333,1,0,0,1.4288,text_option_1,,0,200,200,17,1
610a52647a452dee7ca89360,63f3cfca20052e4ae7554ebf,6453cc7fe5522ac61743334c,2023-05-04_17h21.27.106,ga_syllabified_check,2022.2.5,Win32,60.52536013,,,,,,,,,,,,,,./stim/p06_syllable_1_lakakiaisto_hit.wav,p06,lakakiaisto,hit,la-ka-kia-is-to,la-ka-kiais-to,la-ka-ki-ais-to,la-ka-kia-is-to,0.014814815,-0.108333333,1,0,0,4.4471,text_option_3,,0,201,201,116,1
610a52647a452dee7ca89360,63f3cfca20052e4ae7554ebf,6453cc7fe5522ac61743334c,2023-05-04_17h21.27.106,ga_syllabified_check,2022.2.5,Win32,60.52536013,,,,,,,,,,,,,,./stim/p03_syllable_1_tuliafo_hit.wav,p03,tuliafo,hit,tu-lia-fo,tu-lia-fo,tu-li-a-fo, ,-0.383333333,-0.101851852,1,0,0,0.7373,text_option_1,,0,202,202,33,1
610a52647a452dee7ca89360,63f3cfca20052e4ae7554ebf,6453cc7fe5522ac61743334c,2023-05-04_17h21.27.106,ga_syllabified_check,2022.2.5,Win32,60.52536013,,,,,,,,,,,,,,./stim/p07_syllable_1_lakabiaisto_hit.wav,p07,lakabiaisto,hit,la-ka-bais-to,la-ka-biais-to,la-ka-bi-ais-to,la-ka-bia-is-to,-0.048148148,-0.291666667,1,0,0,2.384,text_option_other,la-ka-bais-to,0,203,203,142,1
610a52647a452dee7ca89360,63f3cfca20052e4ae7554ebf,6453cc7fe5522ac61743334c,2023-05-04_17h21.27.106,ga_syllabified_check,2022.2.5,Win32,60.52536013,,,,,,,,,,,,,,,,,,,,,,,,,,,,,,,,,,
