participant,study,session,date,expName,psychopyVersion,OS,frameRate,mouse_practice.x,mouse_practice.y,mouse_practice.leftButton,mouse_practice.midButton,mouse_practice.rightButton,mouse_practice.time,mouse_practice.clicked_name,textbox_followup_practice.text,trials_practice.thisRepN,trials_practice.thisTrialN,trials_practice.thisN,trials_practice.thisIndex,trials_practice.ran,file_path,id,item,status,response,op1,op2,op3,mouse.x,mouse.y,mouse.leftButton,mouse.midButton,mouse.rightButton,mouse.time,mouse.clicked_name,textbox_followup.text,trials.thisRepN,trials.thisTrialN,trials.thisN,trials.thisIndex,trials.ran
61168f1b99f855bfe46cdc36,63f3cfca20052e4ae7554ebf,6453c8801e6bae22f4027ca7,2023-05-04_17h00.42.912,ga_syllabified_check,2022.2.5,Win32,59.80861244,,,,,,,,,,,,,,,,,,,,,,,,,,,,,,,,,,
61168f1b99f855bfe46cdc36,63f3cfca20052e4ae7554ebf,6453c8801e6bae22f4027ca7,2023-05-04_17h00.42.912,ga_syllabified_check,2022.2.5,Win32,59.80861244,-0.41015625,-0.110677083,1,0,0,3.01,text_option_1_practice,,0,0,0,0,1,./stim/p03_syllable_1_liamo_hit.wav,p03,liamo,hit,lia-mo,lia-mo,li-a-mo, ,,,,,,,,,,,,,
61168f1b99f855bfe46cdc36,63f3cfca20052e4ae7554ebf,6453c8801e6bae22f4027ca7,2023-05-04_17h00.42.912,ga_syllabified_check,2022.2.5,Win32,59.80861244,-0.38671875,-0.104166667,1,0,0,4.631,text_option_1_practice,,0,1,1,1,1,./stim/p05_syllable_1_matio_hit.wav,p05,matio,hit,ma-tio,ma-tio,ma-ti-o, ,,,,,,,,,,,,,
61168f1b99f855bfe46cdc36,63f3cfca20052e4ae7554ebf,6453c8801e6bae22f4027ca7,2023-05-04_17h00.42.912,ga_syllabified_check,2022.2.5,Win32,59.80861244,0.415364583,-0.092447917,1,0,0,3.26,text_option_2_practice,,0,2,2,2,1,./stim/p08_syllable_1_liamo_hit.wav,p08,liamo,hit,ja-mo,lia-mo,li-a-mo, ,,,,,,,,,,,,,
61168f1b99f855bfe46cdc36,63f3cfca20052e4ae7554ebf,6453c8801e6bae22f4027ca7,2023-05-04_17h00.42.912,ga_syllabified_check,2022.2.5,Win32,59.80861244,,,,,,,,,,,,,,,,,,,,,,,,,,,,,,,,,,
61168f1b99f855bfe46cdc36,63f3cfca20052e4ae7554ebf,6453c8801e6bae22f4027ca7,2023-05-04_17h00.42.912,ga_syllabified_check,2022.2.5,Win32,59.80861244,,,,,,,,,,,,,,./stim/p08_syllable_1_payielo_hit.wav,p08,payielo,hit,pa-yie-lo,pa-yie-lo,pa-yi-e-lo, ,-0.40234375,-0.09375,1,0,0,2.44,text_option_1,,0,0,0,200,1
61168f1b99f855bfe46cdc36,63f3cfca20052e4ae7554ebf,6453c8801e6bae22f4027ca7,2023-05-04_17h00.42.912,ga_syllabified_check,2022.2.5,Win32,59.80861244,,,,,,,,,,,,,,./stim/p03_syllable_1_palutrauco_hit.wav,p03,palutrauco,hit,pa-lu-trau-co,pa-lu-trau-co,pa-lu-tra-u-co, ,-0.434895833,-0.095052083,1,0,0,1.957,text_option_1,,0,1,1,29,1
61168f1b99f855bfe46cdc36,63f3cfca20052e4ae7554ebf,6453c8801e6bae22f4027ca7,2023-05-04_17h00.42.912,ga_syllabified_check,2022.2.5,Win32,59.80861244,,,,,,,,,,,,,,./stim/p04_syllable_1_tuliafo_hit.wav,p04,tuliafo,hit,tu-lia-fo,tu-lia-fo,tu-li-a-fo, ,-0.389322917,-0.102864583,1,0,0,1.757,text_option_1,,0,2,2,67,1
61168f1b99f855bfe46cdc36,63f3cfca20052e4ae7554ebf,6453c8801e6bae22f4027ca7,2023-05-04_17h00.42.912,ga_syllabified_check,2022.2.5,Win32,59.80861244,,,,,,,,,,,,,,./stim/p08_syllable_1_palufauro_hit.wav,p08,palufauro,hit,pa-lu-fau-ro,pa-lu-fau-ro,pa-lu-fa-u-ro, ,-0.388020833,-0.078125,1,0,0,2.909,text_option_1,,0,3,3,195,1
61168f1b99f855bfe46cdc36,63f3cfca20052e4ae7554ebf,6453c8801e6bae22f4027ca7,2023-05-04_17h00.42.912,ga_syllabified_check,2022.2.5,Win32,59.80861244,,,,,,,,,,,,,,./stim/p08_syllable_1_lakakiaisto_hit.wav,p08,lakakiaisto,hit,la-ka-ki-jas-to,la-ka-kiais-to,la-ka-ki-ais-to,la-ka-kia-is-to,0.389322917,-0.106770833,1,0,0,14.662,text_option_2,,0,4,4,184,1
61168f1b99f855bfe46cdc36,63f3cfca20052e4ae7554ebf,6453c8801e6bae22f4027ca7,2023-05-04_17h00.42.912,ga_syllabified_check,2022.2.5,Win32,59.80861244,,,,,,,,,,,,,,./stim/p06_syllable_1_lakagiaisto_hit.wav,p06,lakagiaisto,hit,la-ka-gia-is-to,la-ka-giais-to,la-ka-gi-ais-to,la-ka-gia-is-to,0.391927083,-0.084635417,1,0,0,3.913,text_option_2,,0,5,5,114,1
61168f1b99f855bfe46cdc36,63f3cfca20052e4ae7554ebf,6453c8801e6bae22f4027ca7,2023-05-04_17h00.42.912,ga_syllabified_check,2022.2.5,Win32,59.80861244,,,,,,,,,,,,,,./stim/p05_syllable_1_lakapuaisto_hit.wav,p05,lakapuaisto,hit,la-ka-pais-to,la-ka-puais-to,la-ka-pu-ais-to,la-ka-pua-is-to,-0.298177083,-0.109375,1,0,0,5.935,text_option_1,,0,6,6,85,1
61168f1b99f855bfe46cdc36,63f3cfca20052e4ae7554ebf,6453c8801e6bae22f4027ca7,2023-05-04_17h00.42.912,ga_syllabified_check,2022.2.5,Win32,59.80861244,,,,,,,,,,,,,,./stim/p04_syllable_1_palufauto_hit.wav,p04,palufauto,hit,pa-lu-fau-to,pa-lu-fau-to,pa-lu-fa-u-to, ,-0.364583333,-0.111979167,1,0,0,2.057,text_option_1,,0,7,7,60,1
61168f1b99f855bfe46cdc36,63f3cfca20052e4ae7554ebf,6453c8801e6bae22f4027ca7,2023-05-04_17h00.42.912,ga_syllabified_check,2022.2.5,Win32,59.80861244,,,,,,,,,,,,,,./stim/p03_syllable_1_lakatiaisto_hit.wav,p03,lakatiaisto,hit,la-ka-tiais-to,la-ka-tiais-to,la-ka-ti-ais-to,la-ka-tia-is-to,-0.36328125,-0.110677083,1,0,0,2.993,text_option_1,,0,8,8,18,1
61168f1b99f855bfe46cdc36,63f3cfca20052e4ae7554ebf,6453c8801e6bae22f4027ca7,2023-05-04_17h00.42.912,ga_syllabified_check,2022.2.5,Win32,59.80861244,,,,,,,,,,,,,,./stim/p08_syllable_1_rausto_hit.wav,p08,rausto,hit,raus-to,raus-to,ra-us-to, ,-0.384114583,-0.100260417,1,0,0,1.22,text_option_1,,0,9,9,201,1
61168f1b99f855bfe46cdc36,63f3cfca20052e4ae7554ebf,6453c8801e6bae22f4027ca7,2023-05-04_17h00.42.912,ga_syllabified_check,2022.2.5,Win32,59.80861244,,,,,,,,,,,,,,./stim/p06_syllable_1_lakafiaisto_hit.wav,p06,lakafiaisto,hit,la-ka-fia-is-to,la-ka-fiais-to,la-ka-fi-ais-to,la-ka-fia-is-to,-0.006510417,-0.096354167,1,0,0,5.6,text_option_3,,0,10,10,112,1
61168f1b99f855bfe46cdc36,63f3cfca20052e4ae7554ebf,6453c8801e6bae22f4027ca7,2023-05-04_17h00.42.912,ga_syllabified_check,2022.2.5,Win32,59.80861244,,,,,,,,,,,,,,./stim/p06_syllable_1_ruyiola_hit.wav,p06,ruyiola,hit,ru-yi-o-la,ru-yio-la,ru-yi-o-la, ,0.364583333,-0.108072917,1,0,0,1.739,text_option_2,,0,11,11,134,1
61168f1b99f855bfe46cdc36,63f3cfca20052e4ae7554ebf,6453c8801e6bae22f4027ca7,2023-05-04_17h00.42.912,ga_syllabified_check,2022.2.5,Win32,59.80861244,,,,,,,,,,,,,,./stim/p04_syllable_1_palutrauco_hit.wav,p04,palutrauco,hit,pa-lu-trau-co,pa-lu-trau-co,pa-lu-tra-u-co, ,-0.334635417,-0.1171875,1,0,0,2.308,text_option_1,,0,12,12,63,1
61168f1b99f855bfe46cdc36,63f3cfca20052e4ae7554ebf,6453c8801e6bae22f4027ca7,2023-05-04_17h00.42.912,ga_syllabified_check,2022.2.5,Win32,59.80861244,,,,,,,,,,,,,,./stim/p05_syllable_1_palufauro_hit.wav,p05,palufauro,hit,pa-lu-fau-ro,pa-lu-fau-ro,pa-lu-fa-u-ro, ,-0.334635417,-0.106770833,1,0,0,2.242,text_option_1,,0,13,13,93,1
61168f1b99f855bfe46cdc36,63f3cfca20052e4ae7554ebf,6453c8801e6bae22f4027ca7,2023-05-04_17h00.42.912,ga_syllabified_check,2022.2.5,Win32,59.80861244,,,,,,,,,,,,,,./stim/p03_syllable_1_falutraigo_hit.wav,p03,falutraigo,hit,fa-lu-trai-go,fa-lu-trai-go,fa-lu-tra-i-go, ,-0.375,-0.109375,1,0,0,3.545,text_option_1,,0,14,14,4,1
61168f1b99f855bfe46cdc36,63f3cfca20052e4ae7554ebf,6453c8801e6bae22f4027ca7,2023-05-04_17h00.42.912,ga_syllabified_check,2022.2.5,Win32,59.80861244,,,,,,,,,,,,,,./stim/p05_syllable_1_lakakiaisto_hit.wav,p05,lakakiaisto,hit,la-ka-ki-ais-to,la-ka-kiais-to,la-ka-ki-ais-to,la-ka-kia-is-to,-0.321614583,-0.104166667,1,0,0,4.497,text_option_1,,0,15,15,82,1
61168f1b99f855bfe46cdc36,63f3cfca20052e4ae7554ebf,6453c8801e6bae22f4027ca7,2023-05-04_17h00.42.912,ga_syllabified_check,2022.2.5,Win32,59.80861244,,,,,,,,,,,,,,./stim/p08_syllable_1_nhiape_hit.wav,p08,ñiape,hit,ni-a-pe,ñia-pe,ñi-a-pe, ,0.37109375,-0.110677083,1,0,0,2.308,text_option_2,,0,16,16,193,1
61168f1b99f855bfe46cdc36,63f3cfca20052e4ae7554ebf,6453c8801e6bae22f4027ca7,2023-05-04_17h00.42.912,ga_syllabified_check,2022.2.5,Win32,59.80861244,,,,,,,,,,,,,,./stim/p05_syllable_1_lliape_hit.wav,p05,lliape,hit,liai-pe,llia-pe,lli-a-pe, ,0.39453125,-0.1015625,1,0,0,6.92,text_option_2,,0,17,17,88,1
61168f1b99f855bfe46cdc36,63f3cfca20052e4ae7554ebf,6453c8801e6bae22f4027ca7,2023-05-04_17h00.42.912,ga_syllabified_check,2022.2.5,Win32,59.80861244,,,,,,,,,,,,,,./stim/p06_syllable_1_manhiala_hit.wav,p06,mañiala,hit,ma-nhi-a-la,ma-ñia-la,ma-ñi-a-la, ,0.447916667,-0.098958333,1,0,0,2.157,text_option_2,,0,18,18,123,1
61168f1b99f855bfe46cdc36,63f3cfca20052e4ae7554ebf,6453c8801e6bae22f4027ca7,2023-05-04_17h00.42.912,ga_syllabified_check,2022.2.5,Win32,59.80861244,,,,,,,,,,,,,,./stim/p07_syllable_1_palutrauco_hit.wav,p07,palutrauco,hit,pa-lu-trau-co,pa-lu-trau-co,pa-lu-tra-u-co, ,-0.325520833,-0.104166667,1,0,0,1.789,text_option_1,,0,19,19,165,1
61168f1b99f855bfe46cdc36,63f3cfca20052e4ae7554ebf,6453c8801e6bae22f4027ca7,2023-05-04_17h00.42.912,ga_syllabified_check,2022.2.5,Win32,59.80861244,,,,,,,,,,,,,,./stim/p06_syllable_1_lakakuaisto_hit.wav,p06,lakakuaisto,hit,la-ka-ku-a-is,la-ka-kuais-to,la-ka-ku-ais-to,la-ka-kua-is-to,0.041666667,-0.290364583,1,0,0,9.261,text_option_other,la ka ku a is to,0,20,20,117,1
61168f1b99f855bfe46cdc36,63f3cfca20052e4ae7554ebf,6453c8801e6bae22f4027ca7,2023-05-04_17h00.42.912,ga_syllabified_check,2022.2.5,Win32,59.80861244,,,,,,,,,,,,,,./stim/p07_syllable_1_ruyiola_hit.wav,p07,ruyiola,hit,ru-yio-la,ru-yio-la,ru-yi-o-la, ,-0.407552083,-0.102864583,1,0,0,2.308,text_option_1,,0,21,21,168,1
61168f1b99f855bfe46cdc36,63f3cfca20052e4ae7554ebf,6453c8801e6bae22f4027ca7,2023-05-04_17h00.42.912,ga_syllabified_check,2022.2.5,Win32,59.80861244,,,,,,,,,,,,,,./stim/p04_syllable_1_manhiala_hit.wav,p04,mañiala,hit,ma-nhia-la,ma-ñia-la,ma-ñi-a-la, ,-0.37890625,-0.091145833,1,0,0,2.826,text_option_1,,0,22,22,55,1
61168f1b99f855bfe46cdc36,63f3cfca20052e4ae7554ebf,6453c8801e6bae22f4027ca7,2023-05-04_17h00.42.912,ga_syllabified_check,2022.2.5,Win32,59.80861244,,,,,,,,,,,,,,./stim/p03_syllable_1_lakafuaisto_hit.wav,p03,lakafuaisto,hit,la-ka-fuais-to,la-ka-fuais-to,la-ka-fu-ais-to,la-ka-fua-is-to,-0.4296875,-0.115885417,1,0,0,3.243,text_option_1,,0,23,23,11,1
61168f1b99f855bfe46cdc36,63f3cfca20052e4ae7554ebf,6453c8801e6bae22f4027ca7,2023-05-04_17h00.42.912,ga_syllabified_check,2022.2.5,Win32,59.80861244,,,,,,,,,,,,,,./stim/p08_syllable_1_lakapuaisto_hit.wav,p08,lakapuaisto,hit,la-ka-pu-as-to,la-ka-puais-to,la-ka-pu-ais-to,la-ka-pua-is-to,-0.052083333,-0.315104167,1,0,0,6.337,text_option_other,la ka pu as to,0,24,24,187,1
61168f1b99f855bfe46cdc36,63f3cfca20052e4ae7554ebf,6453c8801e6bae22f4027ca7,2023-05-04_17h00.42.912,ga_syllabified_check,2022.2.5,Win32,59.80861244,,,,,,,,,,,,,,./stim/p08_syllable_1_palumaisto_hit.wav,p08,palumaisto,hit,pa-lu-mais-to,pa-lu-mais-to,pa-lu-ma-is-to, ,-0.356770833,-0.108072917,1,0,0,2.81,text_option_1,,0,25,25,198,1
61168f1b99f855bfe46cdc36,63f3cfca20052e4ae7554ebf,6453c8801e6bae22f4027ca7,2023-05-04_17h00.42.912,ga_syllabified_check,2022.2.5,Win32,59.80861244,,,,,,,,,,,,,,./stim/p06_syllable_1_palumaisto_hit.wav,p06,palumaisto,hit,pa-lu-ma-is-to,pa-lu-mais-to,pa-lu-ma-is-to, ,0.450520833,-0.114583333,1,0,0,3.226,text_option_2,,0,26,26,130,1
61168f1b99f855bfe46cdc36,63f3cfca20052e4ae7554ebf,6453c8801e6bae22f4027ca7,2023-05-04_17h00.42.912,ga_syllabified_check,2022.2.5,Win32,59.80861244,,,,,,,,,,,,,,./stim/p03_syllable_1_lakapuaisto_hit.wav,p03,lakapuaisto,hit,la-ka-puais-to,la-ka-puais-to,la-ka-pu-ais-to,la-ka-pua-is-to,-0.34765625,-0.11328125,1,0,0,4.548,text_option_1,,0,27,27,17,1
61168f1b99f855bfe46cdc36,63f3cfca20052e4ae7554ebf,6453c8801e6bae22f4027ca7,2023-05-04_17h00.42.912,ga_syllabified_check,2022.2.5,Win32,59.80861244,,,,,,,,,,,,,,./stim/p04_syllable_1_lakadiaisto_hit.wav,p04,lakadiaisto,hit,la-ka-dias-to,la-ka-diais-to,la-ka-di-ais-to,la-ka-dia-is-to,-0.322916667,-0.1015625,1,0,0,2.692,text_option_1,,0,28,28,42,1
61168f1b99f855bfe46cdc36,63f3cfca20052e4ae7554ebf,6453c8801e6bae22f4027ca7,2023-05-04_17h00.42.912,ga_syllabified_check,2022.2.5,Win32,59.80861244,,,,,,,,,,,,,,./stim/p06_syllable_1_paluguato_hit.wav,p06,paluguato,hit,pa-lu-gua-to,pa-lu-gua-to,pa-lu-gu-a-to, ,-0.313802083,-0.098958333,1,0,0,4.247,text_option_1,,0,29,29,129,1
61168f1b99f855bfe46cdc36,63f3cfca20052e4ae7554ebf,6453c8801e6bae22f4027ca7,2023-05-04_17h00.42.912,ga_syllabified_check,2022.2.5,Win32,59.80861244,,,,,,,,,,,,,,./stim/p07_syllable_1_payielo_hit.wav,p07,payielo,hit,pa-yie-lo,pa-yie-lo,pa-yi-e-lo, ,-0.399739583,-0.111979167,1,0,0,1.454,text_option_1,,0,30,30,166,1
61168f1b99f855bfe46cdc36,63f3cfca20052e4ae7554ebf,6453c8801e6bae22f4027ca7,2023-05-04_17h00.42.912,ga_syllabified_check,2022.2.5,Win32,59.80861244,,,,,,,,,,,,,,./stim/p07_syllable_1_faluduako_hit.wav,p07,faluduako,hit,fa-lu-dua-ko,fa-lu-dua-ko,fa-lu-du-a-ko, ,-0.415364583,-0.109375,1,0,0,2.408,text_option_1,,0,31,31,138,1
61168f1b99f855bfe46cdc36,63f3cfca20052e4ae7554ebf,6453c8801e6bae22f4027ca7,2023-05-04_17h00.42.912,ga_syllabified_check,2022.2.5,Win32,59.80861244,,,,,,,,,,,,,,./stim/p04_syllable_1_chiaba_hit.wav,p04,chiaba,hit,chia-ba,chia-ba,chi-a-ba, ,-0.3984375,-0.08984375,1,0,0,0.952,text_option_1,,0,32,32,34,1
61168f1b99f855bfe46cdc36,63f3cfca20052e4ae7554ebf,6453c8801e6bae22f4027ca7,2023-05-04_17h00.42.912,ga_syllabified_check,2022.2.5,Win32,59.80861244,,,,,,,,,,,,,,./stim/p08_syllable_1_falufaisto_hit.wav,p08,falufaisto,hit,fa-lu-fais-to,fa-lu-fais-to,fa-lu-fa-is-to, ,-0.360677083,-0.110677083,1,0,0,3.21,text_option_1,,0,33,33,173,1
61168f1b99f855bfe46cdc36,63f3cfca20052e4ae7554ebf,6453c8801e6bae22f4027ca7,2023-05-04_17h00.42.912,ga_syllabified_check,2022.2.5,Win32,59.80861244,,,,,,,,,,,,,,./stim/p04_syllable_1_rausto_hit.wav,p04,rausto,hit,raus-to,raus-to,ra-us-to, ,-0.342447917,-0.092447917,1,0,0,0.753,text_option_1,,0,34,34,65,1
61168f1b99f855bfe46cdc36,63f3cfca20052e4ae7554ebf,6453c8801e6bae22f4027ca7,2023-05-04_17h00.42.912,ga_syllabified_check,2022.2.5,Win32,59.80861244,,,,,,,,,,,,,,./stim/p06_syllable_1_lakadiaisto_hit.wav,p06,lakadiaisto,hit,la-ka-dia-is-to,la-ka-diais-to,la-ka-di-ais-to,la-ka-dia-is-to,0.001302083,-0.09765625,1,0,0,4.047,text_option_3,,0,35,35,110,1
61168f1b99f855bfe46cdc36,63f3cfca20052e4ae7554ebf,6453c8801e6bae22f4027ca7,2023-05-04_17h00.42.912,ga_syllabified_check,2022.2.5,Win32,59.80861244,,,,,,,,,,,,,,./stim/p03_syllable_1_tuliafo_hit.wav,p03,tuliafo,hit,tu-lia-fo,tu-lia-fo,tu-li-a-fo, ,-0.39453125,-0.096354167,1,0,0,1.688,text_option_1,,0,36,36,33,1
61168f1b99f855bfe46cdc36,63f3cfca20052e4ae7554ebf,6453c8801e6bae22f4027ca7,2023-05-04_17h00.42.912,ga_syllabified_check,2022.2.5,Win32,59.80861244,,,,,,,,,,,,,,./stim/p05_syllable_1_lakagiaisto_hit.wav,p05,lakagiaisto,hit,la-ka-ki-ais-to,la-ka-giais-to,la-ka-gi-ais-to,la-ka-gia-is-to,-0.3671875,-0.11328125,1,0,0,6.605,text_option_1,,0,37,37,80,1
61168f1b99f855bfe46cdc36,63f3cfca20052e4ae7554ebf,6453c8801e6bae22f4027ca7,2023-05-04_17h00.42.912,ga_syllabified_check,2022.2.5,Win32,59.80861244,,,,,,,,,,,,,,./stim/p04_syllable_1_lakagiaisto_hit.wav,p04,lakagiaisto,hit,la-ka-giais-to,la-ka-giais-to,la-ka-gi-ais-to,la-ka-gia-is-to,-0.368489583,-0.11328125,1,0,0,1.723,text_option_1,,0,38,38,46,1
61168f1b99f855bfe46cdc36,63f3cfca20052e4ae7554ebf,6453c8801e6bae22f4027ca7,2023-05-04_17h00.42.912,ga_syllabified_check,2022.2.5,Win32,59.80861244,,,,,,,,,,,,,,./stim/p06_syllable_1_lakapuaisto_hit.wav,p06,lakapuaisto,hit,la-ka-pu-a-is,la-ka-puais-to,la-ka-pu-ais-to,la-ka-pua-is-to,-0.053385417,-0.287760417,1,0,0,5.752,text_option_other,la ka pu a is to,0,39,39,119,1
61168f1b99f855bfe46cdc36,63f3cfca20052e4ae7554ebf,6453c8801e6bae22f4027ca7,2023-05-04_17h00.42.912,ga_syllabified_check,2022.2.5,Win32,59.80861244,,,,,,,,,,,,,,./stim/p05_syllable_1_chiaba_hit.wav,p05,chiaba,hit,chia-ba,chia-ba,chi-a-ba, ,-0.384114583,-0.110677083,1,0,0,0.668,text_option_1,,0,40,40,68,1
61168f1b99f855bfe46cdc36,63f3cfca20052e4ae7554ebf,6453c8801e6bae22f4027ca7,2023-05-04_17h00.42.912,ga_syllabified_check,2022.2.5,Win32,59.80861244,,,,,,,,,,,,,,./stim/p05_syllable_1_manhiala_hit.wav,p05,mañiala,hit,ma-nhia-la,ma-ñia-la,ma-ñi-a-la, ,-0.36328125,-0.09765625,1,0,0,2.809,text_option_1,,0,41,41,89,1
61168f1b99f855bfe46cdc36,63f3cfca20052e4ae7554ebf,6453c8801e6bae22f4027ca7,2023-05-04_17h00.42.912,ga_syllabified_check,2022.2.5,Win32,59.80861244,,,,,,,,,,,,,,./stim/p03_syllable_1_lakatuaisto_hit.wav,p03,lakatuaisto,hit,la-ka-tuais-to,la-ka-tuais-to,la-ka-tu-ais-to,la-ka-tua-is-to,-0.315104167,-0.102864583,1,0,0,1.872,text_option_1,,0,42,42,19,1
61168f1b99f855bfe46cdc36,63f3cfca20052e4ae7554ebf,6453c8801e6bae22f4027ca7,2023-05-04_17h00.42.912,ga_syllabified_check,2022.2.5,Win32,59.80861244,,,,,,,,,,,,,,./stim/p03_syllable_1_flauro_hit.wav,p03,flauro,hit,flau-ro,flau-ro,fla-u-ro, ,-0.372395833,-0.1015625,1,0,0,0.568,text_option_1,,0,43,43,5,1
61168f1b99f855bfe46cdc36,63f3cfca20052e4ae7554ebf,6453c8801e6bae22f4027ca7,2023-05-04_17h00.42.912,ga_syllabified_check,2022.2.5,Win32,59.80861244,,,,,,,,,,,,,,./stim/p03_syllable_1_faluduako_hit.wav,p03,faluduako,hit,fa-lu-dua-ko,fa-lu-dua-ko,fa-lu-du-a-ko, ,-0.416666667,-0.111979167,1,0,0,1.638,text_option_1,,0,44,44,2,1
61168f1b99f855bfe46cdc36,63f3cfca20052e4ae7554ebf,6453c8801e6bae22f4027ca7,2023-05-04_17h00.42.912,ga_syllabified_check,2022.2.5,Win32,59.80861244,,,,,,,,,,,,,,./stim/p07_syllable_1_lakafiaisto_hit.wav,p07,lakafiaisto,hit,la-ka-fiais-to,la-ka-fiais-to,la-ka-fi-ais-to,la-ka-fia-is-to,-0.328125,-0.114583333,1,0,0,1.471,text_option_1,,0,45,45,146,1
61168f1b99f855bfe46cdc36,63f3cfca20052e4ae7554ebf,6453c8801e6bae22f4027ca7,2023-05-04_17h00.42.912,ga_syllabified_check,2022.2.5,Win32,59.80861244,,,,,,,,,,,,,,./stim/p07_syllable_1_palufauro_hit.wav,p07,palufauro,hit,pa-lu-fau-ro,pa-lu-fau-ro,pa-lu-fa-u-ro, ,-0.328125,-0.104166667,1,0,0,1.438,text_option_1,,0,46,46,161,1
61168f1b99f855bfe46cdc36,63f3cfca20052e4ae7554ebf,6453c8801e6bae22f4027ca7,2023-05-04_17h00.42.912,ga_syllabified_check,2022.2.5,Win32,59.80861244,,,,,,,,,,,,,,./stim/p05_syllable_1_faluduako_hit.wav,p05,faluduako,hit,fa-lu-ba-ko,fa-lu-dua-ko,fa-lu-du-a-ko, ,-0.36328125,-0.095052083,1,0,0,5.317,text_option_1,,0,47,47,70,1
61168f1b99f855bfe46cdc36,63f3cfca20052e4ae7554ebf,6453c8801e6bae22f4027ca7,2023-05-04_17h00.42.912,ga_syllabified_check,2022.2.5,Win32,59.80861244,,,,,,,,,,,,,,./stim/p04_syllable_1_lakatiaisto_hit.wav,p04,lakatiaisto,hit,la-ka-kiais-to,la-ka-tiais-to,la-ka-ti-ais-to,la-ka-tia-is-to,-0.41796875,-0.109375,1,0,0,2.075,text_option_1,,0,48,48,52,1
61168f1b99f855bfe46cdc36,63f3cfca20052e4ae7554ebf,6453c8801e6bae22f4027ca7,2023-05-04_17h00.42.912,ga_syllabified_check,2022.2.5,Win32,59.80861244,,,,,,,,,,,,,,./stim/p03_syllable_1_nhiape_hit.wav,p03,ñiape,hit,nhia-pe,ñia-pe,ñi-a-pe, ,-0.3671875,-0.106770833,1,0,0,0.702,text_option_1,,0,49,49,23,1
61168f1b99f855bfe46cdc36,63f3cfca20052e4ae7554ebf,6453c8801e6bae22f4027ca7,2023-05-04_17h00.42.912,ga_syllabified_check,2022.2.5,Win32,59.80861244,,,,,,,,,,,,,,./stim/p07_syllable_1_lakatuaisto_hit.wav,p07,lakatuaisto,hit,la-ka-tuais-to,la-ka-tuais-to,la-ka-tu-ais-to,la-ka-tua-is-to,-0.372395833,-0.104166667,1,0,0,2.476,text_option_1,,0,50,50,155,1
61168f1b99f855bfe46cdc36,63f3cfca20052e4ae7554ebf,6453c8801e6bae22f4027ca7,2023-05-04_17h00.42.912,ga_syllabified_check,2022.2.5,Win32,59.80861244,,,,,,,,,,,,,,./stim/p06_syllable_1_falutraigo_hit.wav,p06,falutraigo,hit,fa-lu-tra-i-go,fa-lu-trai-go,fa-lu-tra-i-go, ,0.411458333,-0.098958333,1,0,0,3.829,text_option_2,,0,51,51,106,1
61168f1b99f855bfe46cdc36,63f3cfca20052e4ae7554ebf,6453c8801e6bae22f4027ca7,2023-05-04_17h00.42.912,ga_syllabified_check,2022.2.5,Win32,59.80861244,,,,,,,,,,,,,,./stim/p07_syllable_1_lakadiaisto_hit.wav,p07,lakadiaisto,hit,la-ka-dia-is-to,la-ka-diais-to,la-ka-di-ais-to,la-ka-dia-is-to,-0.053385417,-0.106770833,1,0,0,2.775,text_option_3,,0,52,52,144,1
61168f1b99f855bfe46cdc36,63f3cfca20052e4ae7554ebf,6453c8801e6bae22f4027ca7,2023-05-04_17h00.42.912,ga_syllabified_check,2022.2.5,Win32,59.80861244,,,,,,,,,,,,,,./stim/p06_syllable_1_palufauto_hit.wav,p06,palufauto,hit,pa-lu-fau-to,pa-lu-fau-to,pa-lu-fa-u-to, ,-0.37109375,-0.100260417,1,0,0,3.244,text_option_1,,0,53,53,128,1
61168f1b99f855bfe46cdc36,63f3cfca20052e4ae7554ebf,6453c8801e6bae22f4027ca7,2023-05-04_17h00.42.912,ga_syllabified_check,2022.2.5,Win32,59.80861244,,,,,,,,,,,,,,./stim/p06_syllable_1_faluduako_hit.wav,p06,faluduako,hit,fa-lu-dua-ko,fa-lu-dua-ko,fa-lu-du-a-ko, ,0.388020833,-0.092447917,1,0,0,3.611,text_option_2,,0,54,54,104,1
61168f1b99f855bfe46cdc36,63f3cfca20052e4ae7554ebf,6453c8801e6bae22f4027ca7,2023-05-04_17h00.42.912,ga_syllabified_check,2022.2.5,Win32,59.80861244,,,,,,,,,,,,,,./stim/p07_syllable_1_pachialo_hit.wav,p07,pachialo,hit,pa-cha-lo,pa-chia-lo,pa-chi-a-lo, ,-0.057291667,-0.311197917,1,0,0,2.742,text_option_other,pa cha lo,0,55,55,160,1
61168f1b99f855bfe46cdc36,63f3cfca20052e4ae7554ebf,6453c8801e6bae22f4027ca7,2023-05-04_17h00.42.912,ga_syllabified_check,2022.2.5,Win32,59.80861244,,,,,,,,,,,,,,./stim/p04_syllable_1_lakapuaisto_hit.wav,p04,lakapuaisto,hit,la-ka-puais-to,la-ka-puais-to,la-ka-pu-ais-to,la-ka-pua-is-to,-0.311197917,-0.1171875,1,0,0,2.157,text_option_1,,0,56,56,51,1
61168f1b99f855bfe46cdc36,63f3cfca20052e4ae7554ebf,6453c8801e6bae22f4027ca7,2023-05-04_17h00.42.912,ga_syllabified_check,2022.2.5,Win32,59.80861244,,,,,,,,,,,,,,./stim/p05_syllable_1_palufauto_hit.wav,p05,palufauto,hit,pa-lu-fau-to,pa-lu-fau-to,pa-lu-fa-u-to, ,-0.333333333,-0.100260417,1,0,0,2.006,text_option_1,,0,57,57,94,1
61168f1b99f855bfe46cdc36,63f3cfca20052e4ae7554ebf,6453c8801e6bae22f4027ca7,2023-05-04_17h00.42.912,ga_syllabified_check,2022.2.5,Win32,59.80861244,,,,,,,,,,,,,,./stim/p03_syllable_1_lakabiaisto_hit.wav,p03,lakabiaisto,hit,la-ka-biais-to,la-ka-biais-to,la-ka-bi-ais-to,la-ka-bia-is-to,-0.3359375,-0.10546875,1,0,0,3.01,text_option_1,,0,58,58,6,1
61168f1b99f855bfe46cdc36,63f3cfca20052e4ae7554ebf,6453c8801e6bae22f4027ca7,2023-05-04_17h00.42.912,ga_syllabified_check,2022.2.5,Win32,59.80861244,,,,,,,,,,,,,,./stim/p07_syllable_1_chiaba_hit.wav,p07,chiaba,hit,chia-ba,chia-ba,chi-a-ba, ,-0.342447917,-0.091145833,1,0,0,0.569,text_option_1,,0,59,59,136,1
61168f1b99f855bfe46cdc36,63f3cfca20052e4ae7554ebf,6453c8801e6bae22f4027ca7,2023-05-04_17h00.42.912,ga_syllabified_check,2022.2.5,Win32,59.80861244,,,,,,,,,,,,,,./stim/p08_syllable_1_palutrauco_hit.wav,p08,palutrauco,hit,pa-lu-trau-ko,pa-lu-trau-co,pa-lu-tra-u-co, ,-0.305989583,-0.1171875,1,0,0,3.01,text_option_1,,0,60,60,199,1
61168f1b99f855bfe46cdc36,63f3cfca20052e4ae7554ebf,6453c8801e6bae22f4027ca7,2023-05-04_17h00.42.912,ga_syllabified_check,2022.2.5,Win32,59.80861244,,,,,,,,,,,,,,./stim/p05_syllable_1_lakakuaisto_hit.wav,p05,lakakuaisto,hit,la-ka-kais-to,la-ka-kuais-to,la-ka-ku-ais-to,la-ka-kua-is-to,-0.411458333,-0.114583333,1,0,0,3.278,text_option_1,,0,61,61,83,1
61168f1b99f855bfe46cdc36,63f3cfca20052e4ae7554ebf,6453c8801e6bae22f4027ca7,2023-05-04_17h00.42.912,ga_syllabified_check,2022.2.5,Win32,59.80861244,,,,,,,,,,,,,,./stim/p04_syllable_1_paluguato_hit.wav,p04,paluguato,hit,pa-lu-gua,pa-lu-gua-to,pa-lu-gu-a-to, ,-0.342447917,-0.1015625,1,0,0,2.943,text_option_1,,0,62,62,61,1
61168f1b99f855bfe46cdc36,63f3cfca20052e4ae7554ebf,6453c8801e6bae22f4027ca7,2023-05-04_17h00.42.912,ga_syllabified_check,2022.2.5,Win32,59.80861244,,,,,,,,,,,,,,./stim/p04_syllable_1_lakatuaisto_hit.wav,p04,lakatuaisto,hit,la-ka-kuais-to,la-ka-tuais-to,la-ka-tu-ais-to,la-ka-tua-is-to,-0.328125,-0.09375,1,0,0,1.838,text_option_1,,0,63,63,53,1
61168f1b99f855bfe46cdc36,63f3cfca20052e4ae7554ebf,6453c8801e6bae22f4027ca7,2023-05-04_17h00.42.912,ga_syllabified_check,2022.2.5,Win32,59.80861244,,,,,,,,,,,,,,./stim/p05_syllable_1_lakafuaisto_hit.wav,p05,lakafuaisto,hit,la-ka-fais-to,la-ka-fuais-to,la-ka-fu-ais-to,la-ka-fua-is-to,-0.385416667,-0.095052083,1,0,0,3.578,text_option_1,,0,64,64,79,1
61168f1b99f855bfe46cdc36,63f3cfca20052e4ae7554ebf,6453c8801e6bae22f4027ca7,2023-05-04_17h00.42.912,ga_syllabified_check,2022.2.5,Win32,59.80861244,,,,,,,,,,,,,,./stim/p03_syllable_1_lakapiaisto_hit.wav,p03,lakapiaisto,hit,la-ka-piais-to,la-ka-piais-to,la-ka-pi-ais-to,la-ka-pia-is-to,-0.01171875,-0.087239583,1,0,0,2.542,text_option_3,,0,65,65,16,1
61168f1b99f855bfe46cdc36,63f3cfca20052e4ae7554ebf,6453c8801e6bae22f4027ca7,2023-05-04_17h00.42.912,ga_syllabified_check,2022.2.5,Win32,59.80861244,,,,,,,,,,,,,,./stim/p08_syllable_1_faluduako_hit.wav,p08,faluduako,hit,fa-lu-duai-ko,fa-lu-dua-ko,fa-lu-du-a-ko, ,-0.046875,-0.290364583,1,0,0,3.428,text_option_other,fa lu du ai ko,0,66,66,172,1
61168f1b99f855bfe46cdc36,63f3cfca20052e4ae7554ebf,6453c8801e6bae22f4027ca7,2023-05-04_17h00.42.912,ga_syllabified_check,2022.2.5,Win32,59.80861244,,,,,,,,,,,,,,./stim/p07_syllable_1_lakaduaisto_hit.wav,p07,lakaduaisto,hit,la-ka-duais-to,la-ka-duais-to,la-ka-du-ais-to,la-ka-dua-is-to,-0.4140625,-0.092447917,1,0,0,5.314,text_option_1,,0,67,67,145,1
61168f1b99f855bfe46cdc36,63f3cfca20052e4ae7554ebf,6453c8801e6bae22f4027ca7,2023-05-04_17h00.42.912,ga_syllabified_check,2022.2.5,Win32,59.80861244,,,,,,,,,,,,,,./stim/p08_syllable_1_chiaba_hit.wav,p08,chiaba,hit,chi-a-ba,chia-ba,chi-a-ba, ,0.440104167,-0.08203125,1,0,0,0.838,text_option_2,,0,68,68,170,1
61168f1b99f855bfe46cdc36,63f3cfca20052e4ae7554ebf,6453c8801e6bae22f4027ca7,2023-05-04_17h00.42.912,ga_syllabified_check,2022.2.5,Win32,59.80861244,,,,,,,,,,,,,,./stim/p06_syllable_1_pachialo_hit.wav,p06,pachialo,hit,pa-shi-a-lo,pa-chia-lo,pa-chi-a-lo, ,0.427083333,-0.096354167,1,0,0,3.46,text_option_2,,0,69,69,126,1
61168f1b99f855bfe46cdc36,63f3cfca20052e4ae7554ebf,6453c8801e6bae22f4027ca7,2023-05-04_17h00.42.912,ga_syllabified_check,2022.2.5,Win32,59.80861244,,,,,,,,,,,,,,./stim/p08_syllable_1_lakafiaisto_hit.wav,p08,lakafiaisto,hit,la-ka-fi-as-to,la-ka-fiais-to,la-ka-fi-ais-to,la-ka-fia-is-to,-0.33203125,-0.100260417,1,0,0,5.635,text_option_1,,0,70,70,180,1
61168f1b99f855bfe46cdc36,63f3cfca20052e4ae7554ebf,6453c8801e6bae22f4027ca7,2023-05-04_17h00.42.912,ga_syllabified_check,2022.2.5,Win32,59.80861244,,,,,,,,,,,,,,./stim/p05_syllable_1_lakabuaisto_hit.wav,p05,lakabuaisto,hit,la-ka-buais-to,la-ka-buais-to,la-ka-bu-ais-to,la-ka-bua-is-to,-0.361979167,-0.095052083,1,0,0,2.191,text_option_1,,0,71,71,75,1
61168f1b99f855bfe46cdc36,63f3cfca20052e4ae7554ebf,6453c8801e6bae22f4027ca7,2023-05-04_17h00.42.912,ga_syllabified_check,2022.2.5,Win32,59.80861244,,,,,,,,,,,,,,./stim/p03_syllable_1_mebochiana_hit.wav,p03,mebochiana,hit,me-bo-chia-na,me-bo-chia-na,me-bo-chi-a-na, ,-0.33984375,-0.102864583,1,0,0,2.357,text_option_1,,0,72,72,22,1
61168f1b99f855bfe46cdc36,63f3cfca20052e4ae7554ebf,6453c8801e6bae22f4027ca7,2023-05-04_17h00.42.912,ga_syllabified_check,2022.2.5,Win32,59.80861244,,,,,,,,,,,,,,./stim/p07_syllable_1_lakagiaisto_hit.wav,p07,lakagiaisto,hit,la-ka-gais-to,la-ka-giais-to,la-ka-gi-ais-to,la-ka-gia-is-to,0.010416667,-0.291666667,1,0,0,6.622,text_option_other,la ka gais to,0,73,73,148,1
61168f1b99f855bfe46cdc36,63f3cfca20052e4ae7554ebf,6453c8801e6bae22f4027ca7,2023-05-04_17h00.42.912,ga_syllabified_check,2022.2.5,Win32,59.80861244,,,,,,,,,,,,,,./stim/p08_syllable_1_lakafuaisto_hit.wav,p08,lakafuaisto,hit,la-ka-fju-ais-to,la-ka-fuais-to,la-ka-fu-ais-to,la-ka-fua-is-to,-0.415364583,-0.1015625,1,0,0,2.174,text_option_1,,0,74,74,181,1
61168f1b99f855bfe46cdc36,63f3cfca20052e4ae7554ebf,6453c8801e6bae22f4027ca7,2023-05-04_17h00.42.912,ga_syllabified_check,2022.2.5,Win32,59.80861244,,,,,,,,,,,,,,./stim/p08_syllable_1_palufauto_hit.wav,p08,palufauto,hit,pa-lu-fau-to,pa-lu-fau-to,pa-lu-fa-u-to, ,0.428385417,-0.1015625,1,0,0,3.678,text_option_2,,0,75,75,196,1
61168f1b99f855bfe46cdc36,63f3cfca20052e4ae7554ebf,6453c8801e6bae22f4027ca7,2023-05-04_17h00.42.912,ga_syllabified_check,2022.2.5,Win32,59.80861244,,,,,,,,,,,,,,./stim/p06_syllable_1_lakatiaisto_hit.wav,p06,lakatiaisto,hit,la-ka-pia-is-to,la-ka-tiais-to,la-ka-ti-ais-to,la-ka-tia-is-to,0.006510417,-0.1015625,1,0,0,3.512,text_option_3,,0,76,76,120,1
61168f1b99f855bfe46cdc36,63f3cfca20052e4ae7554ebf,6453c8801e6bae22f4027ca7,2023-05-04_17h00.42.912,ga_syllabified_check,2022.2.5,Win32,59.80861244,,,,,,,,,,,,,,./stim/p07_syllable_1_paluguato_hit.wav,p07,paluguato,hit,pa-lu-gua-to,pa-lu-gua-to,pa-lu-gu-a-to, ,-0.326822917,-0.108072917,1,0,0,2.107,text_option_1,,0,77,77,163,1
61168f1b99f855bfe46cdc36,63f3cfca20052e4ae7554ebf,6453c8801e6bae22f4027ca7,2023-05-04_17h00.42.912,ga_syllabified_check,2022.2.5,Win32,59.80861244,,,,,,,,,,,,,,./stim/p07_syllable_1_palumaisto_hit.wav,p07,palumaisto,hit,pa-lu-mais-to,pa-lu-mais-to,pa-lu-ma-is-to, ,-0.376302083,-0.110677083,1,0,0,2.225,text_option_1,,0,78,78,164,1
61168f1b99f855bfe46cdc36,63f3cfca20052e4ae7554ebf,6453c8801e6bae22f4027ca7,2023-05-04_17h00.42.912,ga_syllabified_check,2022.2.5,Win32,59.80861244,,,,,,,,,,,,,,./stim/p03_syllable_1_lakadiaisto_hit.wav,p03,lakadiaisto,hit,la-ka-diais-to,la-ka-diais-to,la-ka-di-ais-to,la-ka-dia-is-to,-0.389322917,-0.111979167,1,0,0,1.89,text_option_1,,0,79,79,8,1
61168f1b99f855bfe46cdc36,63f3cfca20052e4ae7554ebf,6453c8801e6bae22f4027ca7,2023-05-04_17h00.42.912,ga_syllabified_check,2022.2.5,Win32,59.80861244,,,,,,,,,,,,,,./stim/p04_syllable_1_lakafiaisto_hit.wav,p04,lakafiaisto,hit,la-ka-fiais-to,la-ka-fiais-to,la-ka-fi-ais-to,la-ka-fia-is-to,-0.3125,-0.092447917,1,0,0,1.204,text_option_1,,0,80,80,44,1
61168f1b99f855bfe46cdc36,63f3cfca20052e4ae7554ebf,6453c8801e6bae22f4027ca7,2023-05-04_17h00.42.912,ga_syllabified_check,2022.2.5,Win32,59.80861244,,,,,,,,,,,,,,./stim/p07_syllable_1_lakaguaisto_hit.wav,p07,lakaguaisto,hit,la-ka-guais-to,la-ka-guais-to,la-ka-gu-ais-to,la-ka-gua-is-to,-0.341145833,-0.104166667,1,0,0,1.924,text_option_1,,0,81,81,149,1
61168f1b99f855bfe46cdc36,63f3cfca20052e4ae7554ebf,6453c8801e6bae22f4027ca7,2023-05-04_17h00.42.912,ga_syllabified_check,2022.2.5,Win32,59.80861244,,,,,,,,,,,,,,./stim/p04_syllable_1_lakakiaisto_hit.wav,p04,lakakiaisto,hit,la-ka-kiais-to,la-ka-kiais-to,la-ka-ki-ais-to,la-ka-kia-is-to,-0.341145833,-0.088541667,1,0,0,1.488,text_option_1,,0,82,82,48,1
61168f1b99f855bfe46cdc36,63f3cfca20052e4ae7554ebf,6453c8801e6bae22f4027ca7,2023-05-04_17h00.42.912,ga_syllabified_check,2022.2.5,Win32,59.80861244,,,,,,,,,,,,,,./stim/p07_syllable_1_lakapuaisto_hit.wav,p07,lakapuaisto,hit,la-ka-puais-to,la-ka-puais-to,la-ka-pu-ais-to,la-ka-pua-is-to,-0.313802083,-0.088541667,1,0,0,2.875,text_option_1,,0,83,83,153,1
61168f1b99f855bfe46cdc36,63f3cfca20052e4ae7554ebf,6453c8801e6bae22f4027ca7,2023-05-04_17h00.42.912,ga_syllabified_check,2022.2.5,Win32,59.80861244,,,,,,,,,,,,,,./stim/p06_syllable_1_lakaduaisto_hit.wav,p06,lakaduaisto,hit,la-ka-du-a-is,la-ka-duais-to,la-ka-du-ais-to,la-ka-dua-is-to,0.01953125,-0.294270833,1,0,0,3.311,text_option_other,la ka du a is to,0,84,84,111,1
61168f1b99f855bfe46cdc36,63f3cfca20052e4ae7554ebf,6453c8801e6bae22f4027ca7,2023-05-04_17h00.42.912,ga_syllabified_check,2022.2.5,Win32,59.80861244,,,,,,,,,,,,,,./stim/p07_syllable_1_lakabiaisto_hit.wav,p07,lakabiaisto,hit,la-ka-bais-to,la-ka-biais-to,la-ka-bi-ais-to,la-ka-bia-is-to,-0.403645833,-0.119791667,1,0,0,3.378,text_option_1,,0,85,85,142,1
61168f1b99f855bfe46cdc36,63f3cfca20052e4ae7554ebf,6453c8801e6bae22f4027ca7,2023-05-04_17h00.42.912,ga_syllabified_check,2022.2.5,Win32,59.80861244,,,,,,,,,,,,,,./stim/p05_syllable_1_lakadiaisto_hit.wav,p05,lakadiaisto,hit,la-ka-di-ais-to,la-ka-diais-to,la-ka-di-ais-to,la-ka-dia-is-to,-0.317708333,-0.102864583,1,0,0,1.99,text_option_1,,0,86,86,76,1
61168f1b99f855bfe46cdc36,63f3cfca20052e4ae7554ebf,6453c8801e6bae22f4027ca7,2023-05-04_17h00.42.912,ga_syllabified_check,2022.2.5,Win32,59.80861244,,,,,,,,,,,,,,./stim/p08_syllable_1_lakatuaisto_hit.wav,p08,lakatuaisto,hit,la-ka-tu-i-jis,la-ka-tuais-to,la-ka-tu-ais-to,la-ka-tua-is-to,-0.372395833,-0.11328125,1,0,0,3.945,text_option_1,,0,87,87,189,1
61168f1b99f855bfe46cdc36,63f3cfca20052e4ae7554ebf,6453c8801e6bae22f4027ca7,2023-05-04_17h00.42.912,ga_syllabified_check,2022.2.5,Win32,59.80861244,,,,,,,,,,,,,,./stim/p08_syllable_1_lliape_hit.wav,p08,lliape,hit,li-a-pe,llia-pe,lli-a-pe, ,0.356770833,-0.1015625,1,0,0,1.137,text_option_2,,0,88,88,190,1
61168f1b99f855bfe46cdc36,63f3cfca20052e4ae7554ebf,6453c8801e6bae22f4027ca7,2023-05-04_17h00.42.912,ga_syllabified_check,2022.2.5,Win32,59.80861244,,,,,,,,,,,,,,./stim/p06_syllable_1_costonhialo_hit.wav,p06,costoñialo,hit,cos-to-nhia-lo,cos-to-ñia-lo,cos-to-ñi-a-lo, ,-0.44921875,-0.108072917,1,0,0,2.474,text_option_1,,0,89,89,103,1
61168f1b99f855bfe46cdc36,63f3cfca20052e4ae7554ebf,6453c8801e6bae22f4027ca7,2023-05-04_17h00.42.912,ga_syllabified_check,2022.2.5,Win32,59.80861244,,,,,,,,,,,,,,./stim/p06_syllable_1_lakabiaisto_hit.wav,p06,lakabiaisto,hit,la-ka-bia-is-to,la-ka-biais-to,la-ka-bi-ais-to,la-ka-bia-is-to,0.065104167,-0.1171875,1,0,0,4.43,text_option_3,,0,90,90,108,1
61168f1b99f855bfe46cdc36,63f3cfca20052e4ae7554ebf,6453c8801e6bae22f4027ca7,2023-05-04_17h00.42.912,ga_syllabified_check,2022.2.5,Win32,59.80861244,,,,,,,,,,,,,,./stim/p08_syllable_1_lakagiaisto_hit.wav,p08,lakagiaisto,hit,la-ka-gi-jas-to,la-ka-giais-to,la-ka-gi-ais-to,la-ka-gia-is-to,0.045572917,-0.295572917,1,0,0,8.444,text_option_other,la ka giais to,0,91,91,182,1
61168f1b99f855bfe46cdc36,63f3cfca20052e4ae7554ebf,6453c8801e6bae22f4027ca7,2023-05-04_17h00.42.912,ga_syllabified_check,2022.2.5,Win32,59.80861244,,,,,,,,,,,,,,./stim/p05_syllable_1_tuliafo_hit.wav,p05,tuliafo,hit,tu-lai-fo,tu-lia-fo,tu-li-a-fo, ,-0.359375,-0.111979167,1,0,0,1.204,text_option_1,,0,92,92,101,1
61168f1b99f855bfe46cdc36,63f3cfca20052e4ae7554ebf,6453c8801e6bae22f4027ca7,2023-05-04_17h00.42.912,ga_syllabified_check,2022.2.5,Win32,59.80861244,,,,,,,,,,,,,,./stim/p04_syllable_1_payielo_hit.wav,p04,payielo,hit,pa-yie-lo,pa-yie-lo,pa-yi-e-lo, ,-0.37890625,-0.088541667,1,0,0,0.938,text_option_1,,0,93,93,64,1
61168f1b99f855bfe46cdc36,63f3cfca20052e4ae7554ebf,6453c8801e6bae22f4027ca7,2023-05-04_17h00.42.912,ga_syllabified_check,2022.2.5,Win32,59.80861244,,,,,,,,,,,,,,./stim/p04_syllable_1_palufauro_hit.wav,p04,palufauro,hit,pa-lu-fau-ro,pa-lu-fau-ro,pa-lu-fa-u-ro, ,-0.375,-0.108072917,1,0,0,2.208,text_option_1,,0,94,94,59,1
61168f1b99f855bfe46cdc36,63f3cfca20052e4ae7554ebf,6453c8801e6bae22f4027ca7,2023-05-04_17h00.42.912,ga_syllabified_check,2022.2.5,Win32,59.80861244,,,,,,,,,,,,,,./stim/p06_syllable_1_nhiape_hit.wav,p06,ñiape,hit,nhi-a-pe,ñia-pe,ñi-a-pe, ,0.3671875,-0.095052083,1,0,0,1.188,text_option_2,,0,95,95,125,1
61168f1b99f855bfe46cdc36,63f3cfca20052e4ae7554ebf,6453c8801e6bae22f4027ca7,2023-05-04_17h00.42.912,ga_syllabified_check,2022.2.5,Win32,59.80861244,,,,,,,,,,,,,,./stim/p03_syllable_1_pachialo_hit.wav,p03,pachialo,hit,pa-chia-lo,pa-chia-lo,pa-chi-a-lo, ,-0.407552083,-0.0859375,1,0,0,1.035,text_option_1,,0,96,96,24,1
61168f1b99f855bfe46cdc36,63f3cfca20052e4ae7554ebf,6453c8801e6bae22f4027ca7,2023-05-04_17h00.42.912,ga_syllabified_check,2022.2.5,Win32,59.80861244,,,,,,,,,,,,,,./stim/p06_syllable_1_falufaisto_hit.wav,p06,falufaisto,hit,fa-lu-fa-is-to,fa-lu-fais-to,fa-lu-fa-is-to, ,0.3828125,-0.12109375,1,0,0,2.708,text_option_2,,0,97,97,105,1
61168f1b99f855bfe46cdc36,63f3cfca20052e4ae7554ebf,6453c8801e6bae22f4027ca7,2023-05-04_17h00.42.912,ga_syllabified_check,2022.2.5,Win32,59.80861244,,,,,,,,,,,,,,./stim/p08_syllable_1_pachialo_hit.wav,p08,pachialo,hit,pa-chi-ja-lo,pa-chia-lo,pa-chi-a-lo, ,0.3203125,-0.115885417,1,0,0,1.588,text_option_2,,0,98,98,194,1
61168f1b99f855bfe46cdc36,63f3cfca20052e4ae7554ebf,6453c8801e6bae22f4027ca7,2023-05-04_17h00.42.912,ga_syllabified_check,2022.2.5,Win32,59.80861244,,,,,,,,,,,,,,./stim/p06_syllable_1_lakabuaisto_hit.wav,p06,lakabuaisto,hit,la-ka-bu-a-is,la-ka-buais-to,la-ka-bu-ais-to,la-ka-bua-is-to,-0.032552083,-0.315104167,1,0,0,4.682,text_option_other,la ka bu a is to,0,99,99,109,1
61168f1b99f855bfe46cdc36,63f3cfca20052e4ae7554ebf,6453c8801e6bae22f4027ca7,2023-05-04_17h00.42.912,ga_syllabified_check,2022.2.5,Win32,59.80861244,,,,,,,,,,,,,,./stim/p08_syllable_1_lakadiaisto_hit.wav,p08,lakadiaisto,hit,la-ka-di-jas-to,la-ka-diais-to,la-ka-di-ais-to,la-ka-dia-is-to,0.013020833,-0.298177083,1,0,0,7.257,text_option_other,la ka di as to,0,100,100,178,1
61168f1b99f855bfe46cdc36,63f3cfca20052e4ae7554ebf,6453c8801e6bae22f4027ca7,2023-05-04_17h00.42.912,ga_syllabified_check,2022.2.5,Win32,59.80861244,,,,,,,,,,,,,,./stim/p04_syllable_1_pachialo_hit.wav,p04,pachialo,hit,pa-chia-lo,pa-chia-lo,pa-chi-a-lo, ,-0.3515625,-0.096354167,1,0,0,1.203,text_option_1,,0,101,101,58,1
61168f1b99f855bfe46cdc36,63f3cfca20052e4ae7554ebf,6453c8801e6bae22f4027ca7,2023-05-04_17h00.42.912,ga_syllabified_check,2022.2.5,Win32,59.80861244,,,,,,,,,,,,,,./stim/p05_syllable_1_falutraigo_hit.wav,p05,falutraigo,hit,fa-lu-trai-go,fa-lu-trai-go,fa-lu-tra-i-go, ,-0.436197917,-0.111979167,1,0,0,0.819,text_option_1,,0,102,102,72,1
61168f1b99f855bfe46cdc36,63f3cfca20052e4ae7554ebf,6453c8801e6bae22f4027ca7,2023-05-04_17h00.42.912,ga_syllabified_check,2022.2.5,Win32,59.80861244,,,,,,,,,,,,,,./stim/p04_syllable_1_lakaduaisto_hit.wav,p04,lakaduaisto,hit,la-ka-duais-to,la-ka-duais-to,la-ka-du-ais-to,la-ka-dua-is-to,-0.296875,-0.088541667,1,0,0,0.468,text_option_1,,0,103,103,43,1
61168f1b99f855bfe46cdc36,63f3cfca20052e4ae7554ebf,6453c8801e6bae22f4027ca7,2023-05-04_17h00.42.912,ga_syllabified_check,2022.2.5,Win32,59.80861244,,,,,,,,,,,,,,./stim/p08_syllable_1_falutraigo_hit.wav,p08,falutraigo,hit,fa-lu-trai-go,fa-lu-trai-go,fa-lu-tra-i-go, ,-0.365885417,-0.084635417,1,0,0,1.738,text_option_1,,0,104,104,174,1
61168f1b99f855bfe46cdc36,63f3cfca20052e4ae7554ebf,6453c8801e6bae22f4027ca7,2023-05-04_17h00.42.912,ga_syllabified_check,2022.2.5,Win32,59.80861244,,,,,,,,,,,,,,./stim/p07_syllable_1_rausto_hit.wav,p07,rausto,hit,raus-to,raus-to,ra-us-to, ,-0.39453125,-0.096354167,1,0,0,0.485,text_option_1,,0,105,105,167,1
61168f1b99f855bfe46cdc36,63f3cfca20052e4ae7554ebf,6453c8801e6bae22f4027ca7,2023-05-04_17h00.42.912,ga_syllabified_check,2022.2.5,Win32,59.80861244,,,,,,,,,,,,,,./stim/p03_syllable_1_chiaba_hit.wav,p03,chiaba,hit,chia-ba,chia-ba,chi-a-ba, ,-0.356770833,-0.08984375,1,0,0,0.652,text_option_1,,0,106,106,0,1
61168f1b99f855bfe46cdc36,63f3cfca20052e4ae7554ebf,6453c8801e6bae22f4027ca7,2023-05-04_17h00.42.912,ga_syllabified_check,2022.2.5,Win32,59.80861244,,,,,,,,,,,,,,./stim/p04_syllable_1_flauro_hit.wav,p04,flauro,hit,flau-ro,flau-ro,fla-u-ro, ,-0.41015625,-0.108072917,1,0,0,0.367,text_option_1,,0,107,107,39,1
61168f1b99f855bfe46cdc36,63f3cfca20052e4ae7554ebf,6453c8801e6bae22f4027ca7,2023-05-04_17h00.42.912,ga_syllabified_check,2022.2.5,Win32,59.80861244,,,,,,,,,,,,,,./stim/p04_syllable_1_faluduako_hit.wav,p04,faluduako,hit,fa-lu-dua-ko,fa-lu-dua-ko,fa-lu-du-a-ko, ,-0.3125,-0.098958333,1,0,0,0.669,text_option_1,,0,108,108,36,1
61168f1b99f855bfe46cdc36,63f3cfca20052e4ae7554ebf,6453c8801e6bae22f4027ca7,2023-05-04_17h00.42.912,ga_syllabified_check,2022.2.5,Win32,59.80861244,,,,,,,,,,,,,,./stim/p08_syllable_1_lakabuaisto_hit.wav,p08,lakabuaisto,hit,la-ka-bu-ais-to,la-ka-buais-to,la-ka-bu-ais-to,la-ka-bua-is-to,0.42578125,-0.11328125,1,0,0,3.979,text_option_2,,0,109,109,177,1
61168f1b99f855bfe46cdc36,63f3cfca20052e4ae7554ebf,6453c8801e6bae22f4027ca7,2023-05-04_17h00.42.912,ga_syllabified_check,2022.2.5,Win32,59.80861244,,,,,,,,,,,,,,./stim/p07_syllable_1_lakakiaisto_hit.wav,p07,lakakiaisto,hit,la-ka-kais-to,la-ka-kiais-to,la-ka-ki-ais-to,la-ka-kia-is-to,-0.0078125,-0.100260417,1,0,0,6.72,text_option_3,,0,110,110,150,1
61168f1b99f855bfe46cdc36,63f3cfca20052e4ae7554ebf,6453c8801e6bae22f4027ca7,2023-05-04_17h00.42.912,ga_syllabified_check,2022.2.5,Win32,59.80861244,,,,,,,,,,,,,,./stim/p08_syllable_1_lakabiaisto_hit.wav,p08,lakabiaisto,hit,la-ka-bi-as-to,la-ka-biais-to,la-ka-bi-ais-to,la-ka-bia-is-to,0.360677083,-0.09375,1,0,0,4.932,text_option_2,,0,111,111,176,1
61168f1b99f855bfe46cdc36,63f3cfca20052e4ae7554ebf,6453c8801e6bae22f4027ca7,2023-05-04_17h00.42.912,ga_syllabified_check,2022.2.5,Win32,59.80861244,,,,,,,,,,,,,,./stim/p08_syllable_1_lakaguaisto_hit.wav,p08,lakaguaisto,hit,la-ka-gu-ais-to,la-ka-guais-to,la-ka-gu-ais-to,la-ka-gua-is-to,0.3671875,-0.104166667,1,0,0,3.044,text_option_2,,0,112,112,183,1
61168f1b99f855bfe46cdc36,63f3cfca20052e4ae7554ebf,6453c8801e6bae22f4027ca7,2023-05-04_17h00.42.912,ga_syllabified_check,2022.2.5,Win32,59.80861244,,,,,,,,,,,,,,./stim/p05_syllable_1_palutrauco_hit.wav,p05,palutrauco,hit,pa-lu-trai-co,pa-lu-trau-co,pa-lu-tra-u-co, ,-0.033854167,-0.283854167,1,0,0,2.342,text_option_other,pa lu trai go,0,113,113,97,1
61168f1b99f855bfe46cdc36,63f3cfca20052e4ae7554ebf,6453c8801e6bae22f4027ca7,2023-05-04_17h00.42.912,ga_syllabified_check,2022.2.5,Win32,59.80861244,,,,,,,,,,,,,,./stim/p05_syllable_1_rausto_hit.wav,p05,rausto,hit,raus-to,raus-to,ra-us-to, ,-0.4140625,-0.1015625,1,0,0,0.485,text_option_1,,0,114,114,99,1
61168f1b99f855bfe46cdc36,63f3cfca20052e4ae7554ebf,6453c8801e6bae22f4027ca7,2023-05-04_17h00.42.912,ga_syllabified_check,2022.2.5,Win32,59.80861244,,,,,,,,,,,,,,./stim/p04_syllable_1_lakabiaisto_hit.wav,p04,lakabiaisto,hit,la-ka-biais-to,la-ka-biais-to,la-ka-bi-ais-to,la-ka-bia-is-to,-0.368489583,-0.106770833,1,0,0,0.719,text_option_1,,0,115,115,40,1
61168f1b99f855bfe46cdc36,63f3cfca20052e4ae7554ebf,6453c8801e6bae22f4027ca7,2023-05-04_17h00.42.912,ga_syllabified_check,2022.2.5,Win32,59.80861244,,,,,,,,,,,,,,./stim/p03_syllable_1_lliape_hit.wav,p03,lliape,hit,llia,llia-pe,lli-a-pe, ,-0.397135417,-0.08984375,1,0,0,0.719,text_option_1,,0,116,116,20,1
61168f1b99f855bfe46cdc36,63f3cfca20052e4ae7554ebf,6453c8801e6bae22f4027ca7,2023-05-04_17h00.42.912,ga_syllabified_check,2022.2.5,Win32,59.80861244,,,,,,,,,,,,,,./stim/p03_syllable_1_lakakiaisto_hit.wav,p03,lakakiaisto,hit,la-ka-kiais-to,la-ka-kiais-to,la-ka-ki-ais-to,la-ka-kia-is-to,-0.319010417,-0.08984375,1,0,0,1.321,text_option_1,,0,117,117,14,1
61168f1b99f855bfe46cdc36,63f3cfca20052e4ae7554ebf,6453c8801e6bae22f4027ca7,2023-05-04_17h00.42.912,ga_syllabified_check,2022.2.5,Win32,59.80861244,,,,,,,,,,,,,,./stim/p08_syllable_1_flauro_hit.wav,p08,flauro,hit,flau-ro,flau-ro,fla-u-ro, ,-0.38671875,-0.098958333,1,0,0,0.753,text_option_1,,0,118,118,175,1
61168f1b99f855bfe46cdc36,63f3cfca20052e4ae7554ebf,6453c8801e6bae22f4027ca7,2023-05-04_17h00.42.912,ga_syllabified_check,2022.2.5,Win32,59.80861244,,,,,,,,,,,,,,./stim/p07_syllable_1_mebochiana_hit.wav,p07,mebochiana,hit,me-bo-chia-na,me-bo-chia-na,me-bo-chi-a-na, ,-0.330729167,-0.12109375,1,0,0,1.588,text_option_1,,0,119,119,158,1
61168f1b99f855bfe46cdc36,63f3cfca20052e4ae7554ebf,6453c8801e6bae22f4027ca7,2023-05-04_17h00.42.912,ga_syllabified_check,2022.2.5,Win32,59.80861244,,,,,,,,,,,,,,./stim/p04_syllable_1_lakakuaisto_hit.wav,p04,lakakuaisto,hit,la-ka-kuais-to,la-ka-kuais-to,la-ka-ku-ais-to,la-ka-kua-is-to,-0.33203125,-0.076822917,1,0,0,0.854,text_option_1,,0,120,120,49,1
61168f1b99f855bfe46cdc36,63f3cfca20052e4ae7554ebf,6453c8801e6bae22f4027ca7,2023-05-04_17h00.42.912,ga_syllabified_check,2022.2.5,Win32,59.80861244,,,,,,,,,,,,,,./stim/p04_syllable_1_lliape_hit.wav,p04,lliape,hit,lia-pe,llia-pe,lli-a-pe, ,-0.37890625,-0.108072917,1,0,0,0.919,text_option_1,,0,121,121,54,1
61168f1b99f855bfe46cdc36,63f3cfca20052e4ae7554ebf,6453c8801e6bae22f4027ca7,2023-05-04_17h00.42.912,ga_syllabified_check,2022.2.5,Win32,59.80861244,,,,,,,,,,,,,,./stim/p05_syllable_1_nhiape_hit.wav,p05,ñiape,hit,nhia-pe,ñia-pe,ñi-a-pe, ,-0.399739583,-0.109375,1,0,0,0.769,text_option_1,,0,122,122,91,1
61168f1b99f855bfe46cdc36,63f3cfca20052e4ae7554ebf,6453c8801e6bae22f4027ca7,2023-05-04_17h00.42.912,ga_syllabified_check,2022.2.5,Win32,59.80861244,,,,,,,,,,,,,,./stim/p04_syllable_1_lakabuaisto_hit.wav,p04,lakabuaisto,hit,la-ka-buais-to,la-ka-buais-to,la-ka-bu-ais-to,la-ka-bua-is-to,-0.365885417,-0.115885417,1,0,0,0.82,text_option_1,,0,123,123,41,1
61168f1b99f855bfe46cdc36,63f3cfca20052e4ae7554ebf,6453c8801e6bae22f4027ca7,2023-05-04_17h00.42.912,ga_syllabified_check,2022.2.5,Win32,59.80861244,,,,,,,,,,,,,,./stim/p06_syllable_1_lakatuaisto_hit.wav,p06,lakatuaisto,hit,la-ka-tu-a-is,la-ka-tuais-to,la-ka-tu-ais-to,la-ka-tua-is-to,0.319010417,-0.09765625,1,0,0,5.552,text_option_2,,0,124,124,121,1
61168f1b99f855bfe46cdc36,63f3cfca20052e4ae7554ebf,6453c8801e6bae22f4027ca7,2023-05-04_17h00.42.912,ga_syllabified_check,2022.2.5,Win32,59.80861244,,,,,,,,,,,,,,./stim/p06_syllable_1_flauro_hit.wav,p06,flauro,hit,fla-u-ro,flau-ro,fla-u-ro, ,0.408854167,-0.102864583,1,0,0,0.803,text_option_2,,0,125,125,107,1
61168f1b99f855bfe46cdc36,63f3cfca20052e4ae7554ebf,6453c8801e6bae22f4027ca7,2023-05-04_17h00.42.912,ga_syllabified_check,2022.2.5,Win32,59.80861244,,,,,,,,,,,,,,./stim/p05_syllable_1_falufaisto_hit.wav,p05,falufaisto,hit,fa-lu-fais-to,fa-lu-fais-to,fa-lu-fa-is-to, ,-0.33203125,-0.115885417,1,0,0,1.591,text_option_1,,0,126,126,71,1
61168f1b99f855bfe46cdc36,63f3cfca20052e4ae7554ebf,6453c8801e6bae22f4027ca7,2023-05-04_17h00.42.912,ga_syllabified_check,2022.2.5,Win32,59.80861244,,,,,,,,,,,,,,./stim/p03_syllable_1_lakakuaisto_hit.wav,p03,lakakuaisto,hit,la-ka-kuais-to,la-ka-kuais-to,la-ka-ku-ais-to,la-ka-kua-is-to,-0.376302083,-0.110677083,1,0,0,1.939,text_option_1,,0,127,127,15,1
61168f1b99f855bfe46cdc36,63f3cfca20052e4ae7554ebf,6453c8801e6bae22f4027ca7,2023-05-04_17h00.42.912,ga_syllabified_check,2022.2.5,Win32,59.80861244,,,,,,,,,,,,,,./stim/p04_syllable_1_falufaisto_hit.wav,p04,falufaisto,hit,fa-lu-fais-to,fa-lu-fais-to,fa-lu-fa-is-to, ,-0.381510417,-0.109375,1,0,0,0.401,text_option_1,,0,128,128,37,1
61168f1b99f855bfe46cdc36,63f3cfca20052e4ae7554ebf,6453c8801e6bae22f4027ca7,2023-05-04_17h00.42.912,ga_syllabified_check,2022.2.5,Win32,59.80861244,,,,,,,,,,,,,,./stim/p05_syllable_1_lakatuaisto_hit.wav,p05,lakatuaisto,hit,la-ka-tais-to,la-ka-tuais-to,la-ka-tu-ais-to,la-ka-tua-is-to,-0.385416667,-0.114583333,1,0,0,1.823,text_option_1,,0,129,129,87,1
61168f1b99f855bfe46cdc36,63f3cfca20052e4ae7554ebf,6453c8801e6bae22f4027ca7,2023-05-04_17h00.42.912,ga_syllabified_check,2022.2.5,Win32,59.80861244,,,,,,,,,,,,,,./stim/p07_syllable_1_lakakuaisto_hit.wav,p07,lakakuaisto,hit,la-ka-kuais-to,la-ka-kuais-to,la-ka-ku-ais-to,la-ka-kua-is-to,-0.372395833,-0.102864583,1,0,0,1.487,text_option_1,,0,130,130,151,1
61168f1b99f855bfe46cdc36,63f3cfca20052e4ae7554ebf,6453c8801e6bae22f4027ca7,2023-05-04_17h00.42.912,ga_syllabified_check,2022.2.5,Win32,59.80861244,,,,,,,,,,,,,,./stim/p08_syllable_1_lakakuaisto_hit.wav,p08,lakakuaisto,hit,la-ka-ku-ais-to,la-ka-kuais-to,la-ka-ku-ais-to,la-ka-kua-is-to,0.061197917,-0.1015625,1,0,0,7.941,text_option_3,,0,131,131,185,1
61168f1b99f855bfe46cdc36,63f3cfca20052e4ae7554ebf,6453c8801e6bae22f4027ca7,2023-05-04_17h00.42.912,ga_syllabified_check,2022.2.5,Win32,59.80861244,,,,,,,,,,,,,,./stim/p08_syllable_1_manhiala_hit.wav,p08,mañiala,hit,ma-nhia-la,ma-ñia-la,ma-ñi-a-la, ,-0.325520833,-0.091145833,1,0,0,1.539,text_option_1,,0,132,132,191,1
61168f1b99f855bfe46cdc36,63f3cfca20052e4ae7554ebf,6453c8801e6bae22f4027ca7,2023-05-04_17h00.42.912,ga_syllabified_check,2022.2.5,Win32,59.80861244,,,,,,,,,,,,,,./stim/p06_syllable_1_lakaguaisto_hit.wav,p06,lakaguaisto,hit,la-ka-gu-a-is,la-ka-guais-to,la-ka-gu-ais-to,la-ka-gua-is-to,0.01171875,-0.299479167,1,0,0,6.102,text_option_other,la ka gu a is to,0,133,133,115,1
61168f1b99f855bfe46cdc36,63f3cfca20052e4ae7554ebf,6453c8801e6bae22f4027ca7,2023-05-04_17h00.42.912,ga_syllabified_check,2022.2.5,Win32,59.80861244,,,,,,,,,,,,,,./stim/p04_syllable_1_falutraigo_hit.wav,p04,falutraigo,hit,fa-lu-trai-go,fa-lu-trai-go,fa-lu-tra-i-go, ,-0.36328125,-0.115885417,1,0,0,1.387,text_option_1,,0,134,134,38,1
61168f1b99f855bfe46cdc36,63f3cfca20052e4ae7554ebf,6453c8801e6bae22f4027ca7,2023-05-04_17h00.42.912,ga_syllabified_check,2022.2.5,Win32,59.80861244,,,,,,,,,,,,,,./stim/p05_syllable_1_lakaduaisto_hit.wav,p05,lakaduaisto,hit,la-ka-dais-to,la-ka-duais-to,la-ka-du-ais-to,la-ka-dua-is-to,-0.37890625,-0.100260417,1,0,0,2.993,text_option_1,,0,135,135,77,1
61168f1b99f855bfe46cdc36,63f3cfca20052e4ae7554ebf,6453c8801e6bae22f4027ca7,2023-05-04_17h00.42.912,ga_syllabified_check,2022.2.5,Win32,59.80861244,,,,,,,,,,,,,,./stim/p04_syllable_1_costonhialo_hit.wav,p04,costoñialo,hit,cos-to-nhia-lo,cos-to-ñia-lo,cos-to-ñi-a-lo, ,-0.3515625,-0.11328125,1,0,0,0.887,text_option_1,,0,136,136,35,1
61168f1b99f855bfe46cdc36,63f3cfca20052e4ae7554ebf,6453c8801e6bae22f4027ca7,2023-05-04_17h00.42.912,ga_syllabified_check,2022.2.5,Win32,59.80861244,,,,,,,,,,,,,,./stim/p07_syllable_1_flauro_hit.wav,p07,flauro,hit,flau-ro,flau-ro,fla-u-ro, ,-0.37109375,-0.1171875,1,0,0,0.067,text_option_1,,0,137,137,141,1
61168f1b99f855bfe46cdc36,63f3cfca20052e4ae7554ebf,6453c8801e6bae22f4027ca7,2023-05-04_17h00.42.912,ga_syllabified_check,2022.2.5,Win32,59.80861244,,,,,,,,,,,,,,./stim/p04_syllable_1_lakafuaisto_hit.wav,p04,lakafuaisto,hit,la-ka-fuais-to,la-ka-fuais-to,la-ka-fu-ais-to,la-ka-fua-is-to,-0.341145833,-0.09765625,1,0,0,0.351,text_option_1,,0,138,138,45,1
61168f1b99f855bfe46cdc36,63f3cfca20052e4ae7554ebf,6453c8801e6bae22f4027ca7,2023-05-04_17h00.42.912,ga_syllabified_check,2022.2.5,Win32,59.80861244,,,,,,,,,,,,,,./stim/p06_syllable_1_lliape_hit.wav,p06,lliape,hit,lli-lla-pe,llia-pe,lli-a-pe, ,0.342447917,-0.092447917,1,0,0,0.435,text_option_2,,0,139,139,122,1
61168f1b99f855bfe46cdc36,63f3cfca20052e4ae7554ebf,6453c8801e6bae22f4027ca7,2023-05-04_17h00.42.912,ga_syllabified_check,2022.2.5,Win32,59.80861244,,,,,,,,,,,,,,./stim/p06_syllable_1_mebochiana_hit.wav,p06,mebochiana,hit,me-bo-shi-a-na,me-bo-chia-na,me-bo-chi-a-na, ,0.33984375,-0.111979167,1,0,0,2.323,text_option_2,,0,140,140,124,1
61168f1b99f855bfe46cdc36,63f3cfca20052e4ae7554ebf,6453c8801e6bae22f4027ca7,2023-05-04_17h00.42.912,ga_syllabified_check,2022.2.5,Win32,59.80861244,,,,,,,,,,,,,,./stim/p07_syllable_1_lliape_hit.wav,p07,lliape,hit,lliai-pe,llia-pe,lli-a-pe, ,-0.407552083,-0.1171875,1,0,0,1.102,text_option_1,,0,141,141,156,1
61168f1b99f855bfe46cdc36,63f3cfca20052e4ae7554ebf,6453c8801e6bae22f4027ca7,2023-05-04_17h00.42.912,ga_syllabified_check,2022.2.5,Win32,59.80861244,,,,,,,,,,,,,,./stim/p03_syllable_1_palufauro_hit.wav,p03,palufauro,hit,pa-lu-fau-ro,pa-lu-fau-ro,pa-lu-fa-u-ro, ,-0.307291667,-0.088541667,1,0,0,0.768,text_option_1,,0,142,142,25,1
61168f1b99f855bfe46cdc36,63f3cfca20052e4ae7554ebf,6453c8801e6bae22f4027ca7,2023-05-04_17h00.42.912,ga_syllabified_check,2022.2.5,Win32,59.80861244,,,,,,,,,,,,,,./stim/p03_syllable_1_lakaduaisto_hit.wav,p03,lakaduaisto,hit,la-ka-duais-to,la-ka-duais-to,la-ka-du-ais-to,la-ka-dua-is-to,-0.30859375,-0.088541667,1,0,0,0.785,text_option_1,,0,143,143,9,1
61168f1b99f855bfe46cdc36,63f3cfca20052e4ae7554ebf,6453c8801e6bae22f4027ca7,2023-05-04_17h00.42.912,ga_syllabified_check,2022.2.5,Win32,59.80861244,,,,,,,,,,,,,,./stim/p03_syllable_1_ruyiola_hit.wav,p03,ruyiola,hit,ru-yio-la,ru-yio-la,ru-yi-o-la, ,-0.359375,-0.1015625,1,0,0,1.088,text_option_1,,0,144,144,32,1
61168f1b99f855bfe46cdc36,63f3cfca20052e4ae7554ebf,6453c8801e6bae22f4027ca7,2023-05-04_17h00.42.912,ga_syllabified_check,2022.2.5,Win32,59.80861244,,,,,,,,,,,,,,./stim/p03_syllable_1_payielo_hit.wav,p03,payielo,hit,pa-yie-lo,pa-yie-lo,pa-yi-e-lo, ,-0.37109375,-0.110677083,1,0,0,1.321,text_option_1,,0,145,145,30,1
61168f1b99f855bfe46cdc36,63f3cfca20052e4ae7554ebf,6453c8801e6bae22f4027ca7,2023-05-04_17h00.42.912,ga_syllabified_check,2022.2.5,Win32,59.80861244,,,,,,,,,,,,,,./stim/p04_syllable_1_ruyiola_hit.wav,p04,ruyiola,hit,ru-yio-la,ru-yio-la,ru-yi-o-la, ,-0.36328125,-0.106770833,1,0,0,0.217,text_option_1,,0,146,146,66,1
61168f1b99f855bfe46cdc36,63f3cfca20052e4ae7554ebf,6453c8801e6bae22f4027ca7,2023-05-04_17h00.42.912,ga_syllabified_check,2022.2.5,Win32,59.80861244,,,,,,,,,,,,,,./stim/p03_syllable_1_lakafiaisto_hit.wav,p03,lakafiaisto,hit,la-ka-fiais-to,la-ka-fiais-to,la-ka-fi-ais-to,la-ka-fia-is-to,-0.328125,-0.08984375,1,0,0,0.687,text_option_1,,0,147,147,10,1
61168f1b99f855bfe46cdc36,63f3cfca20052e4ae7554ebf,6453c8801e6bae22f4027ca7,2023-05-04_17h00.42.912,ga_syllabified_check,2022.2.5,Win32,59.80861244,,,,,,,,,,,,,,./stim/p06_syllable_1_lakafuaisto_hit.wav,p06,lakafuaisto,hit,la-ka-fu-a-is,la-ka-fuais-to,la-ka-fu-ais-to,la-ka-fua-is-to,-0.009114583,-0.104166667,1,0,0,4.147,text_option_3,,0,148,148,113,1
61168f1b99f855bfe46cdc36,63f3cfca20052e4ae7554ebf,6453c8801e6bae22f4027ca7,2023-05-04_17h00.42.912,ga_syllabified_check,2022.2.5,Win32,59.80861244,,,,,,,,,,,,,,./stim/p03_syllable_1_palumaisto_hit.wav,p03,palumaisto,hit,pa-lu-mais-to,pa-lu-mais-to,pa-lu-ma-is-to, ,-0.317708333,-0.091145833,1,0,0,1.322,text_option_1,,0,149,149,28,1
61168f1b99f855bfe46cdc36,63f3cfca20052e4ae7554ebf,6453c8801e6bae22f4027ca7,2023-05-04_17h00.42.912,ga_syllabified_check,2022.2.5,Win32,59.80861244,,,,,,,,,,,,,,./stim/p05_syllable_1_ruyiola_hit.wav,p05,ruyiola,hit,ru-yio-la,ru-yio-la,ru-yi-o-la, ,0.376302083,-0.087239583,1,0,0,1.37,text_option_2,,0,150,150,100,1
61168f1b99f855bfe46cdc36,63f3cfca20052e4ae7554ebf,6453c8801e6bae22f4027ca7,2023-05-04_17h00.42.912,ga_syllabified_check,2022.2.5,Win32,59.80861244,,,,,,,,,,,,,,./stim/p07_syllable_1_tuliafo_hit.wav,p07,tuliafo,hit,tu-lia-fo,tu-lia-fo,tu-li-a-fo, ,-0.329427083,-0.119791667,1,0,0,1.155,text_option_1,,0,151,151,169,1
61168f1b99f855bfe46cdc36,63f3cfca20052e4ae7554ebf,6453c8801e6bae22f4027ca7,2023-05-04_17h00.42.912,ga_syllabified_check,2022.2.5,Win32,59.80861244,,,,,,,,,,,,,,./stim/p08_syllable_1_paluguato_hit.wav,p08,paluguato,hit,pa-lu-gua-to,pa-lu-gua-to,pa-lu-gu-a-to, ,-0.311197917,-0.11328125,1,0,0,1.287,text_option_1,,0,152,152,197,1
61168f1b99f855bfe46cdc36,63f3cfca20052e4ae7554ebf,6453c8801e6bae22f4027ca7,2023-05-04_17h00.42.912,ga_syllabified_check,2022.2.5,Win32,59.80861244,,,,,,,,,,,,,,./stim/p04_syllable_1_lakaguaisto_hit.wav,p04,lakaguaisto,hit,la-ka-guais-to,la-ka-guais-to,la-ka-gu-ais-to,la-ka-gua-is-to,-0.295572917,-0.08203125,1,0,0,0.887,text_option_1,,0,153,153,47,1
61168f1b99f855bfe46cdc36,63f3cfca20052e4ae7554ebf,6453c8801e6bae22f4027ca7,2023-05-04_17h00.42.912,ga_syllabified_check,2022.2.5,Win32,59.80861244,,,,,,,,,,,,,,./stim/p05_syllable_1_pachialo_hit.wav,p05,pachialo,hit,pan-chia-lo,pa-chia-lo,pa-chi-a-lo, ,-0.337239583,-0.098958333,1,0,0,1.07,text_option_1,,0,154,154,92,1
61168f1b99f855bfe46cdc36,63f3cfca20052e4ae7554ebf,6453c8801e6bae22f4027ca7,2023-05-04_17h00.42.912,ga_syllabified_check,2022.2.5,Win32,59.80861244,,,,,,,,,,,,,,./stim/p05_syllable_1_lakaguaisto_hit.wav,p05,lakaguaisto,hit,la-ka-gais,la-ka-guais-to,la-ka-gu-ais-to,la-ka-gua-is-to,-0.295572917,-0.102864583,1,0,0,2.575,text_option_1,,0,155,155,81,1
61168f1b99f855bfe46cdc36,63f3cfca20052e4ae7554ebf,6453c8801e6bae22f4027ca7,2023-05-04_17h00.42.912,ga_syllabified_check,2022.2.5,Win32,59.80861244,,,,,,,,,,,,,,./stim/p08_syllable_1_mebochiana_hit.wav,p08,mebochiana,hit,me-bo-chi-a-na,me-bo-chia-na,me-bo-chi-a-na, ,0.360677083,-0.096354167,1,0,0,1.839,text_option_2,,0,156,156,192,1
61168f1b99f855bfe46cdc36,63f3cfca20052e4ae7554ebf,6453c8801e6bae22f4027ca7,2023-05-04_17h00.42.912,ga_syllabified_check,2022.2.5,Win32,59.80861244,,,,,,,,,,,,,,./stim/p03_syllable_1_paluguato_hit.wav,p03,paluguato,hit,pa-lu-gua,pa-lu-gua-to,pa-lu-gu-a-to, ,-0.342447917,-0.109375,1,0,0,1.052,text_option_1,,0,157,157,27,1
61168f1b99f855bfe46cdc36,63f3cfca20052e4ae7554ebf,6453c8801e6bae22f4027ca7,2023-05-04_17h00.42.912,ga_syllabified_check,2022.2.5,Win32,59.80861244,,,,,,,,,,,,,,./stim/p06_syllable_1_palufauro_hit.wav,p06,palufauro,hit,pa-lu-fau-ro,pa-lu-fau-ro,pa-lu-fa-u-ro, ,-0.381510417,-0.1171875,1,0,0,2.208,text_option_1,,0,158,158,127,1
61168f1b99f855bfe46cdc36,63f3cfca20052e4ae7554ebf,6453c8801e6bae22f4027ca7,2023-05-04_17h00.42.912,ga_syllabified_check,2022.2.5,Win32,59.80861244,,,,,,,,,,,,,,./stim/p05_syllable_1_lakafiaisto_hit.wav,p05,lakafiaisto,hit,la-ka-fi-ais-to,la-ka-fiais-to,la-ka-fi-ais-to,la-ka-fia-is-to,0.403645833,-0.110677083,1,0,0,2.541,text_option_2,,0,159,159,78,1
61168f1b99f855bfe46cdc36,63f3cfca20052e4ae7554ebf,6453c8801e6bae22f4027ca7,2023-05-04_17h00.42.912,ga_syllabified_check,2022.2.5,Win32,59.80861244,,,,,,,,,,,,,,./stim/p05_syllable_1_lakapiaisto_hit.wav,p05,lakapiaisto,hit,la-ka-pais-to,la-ka-piais-to,la-ka-pi-ais-to,la-ka-pia-is-to,-0.352864583,-0.11328125,1,0,0,7.306,text_option_1,,0,160,160,84,1
61168f1b99f855bfe46cdc36,63f3cfca20052e4ae7554ebf,6453c8801e6bae22f4027ca7,2023-05-04_17h00.42.912,ga_syllabified_check,2022.2.5,Win32,59.80861244,,,,,,,,,,,,,,./stim/p03_syllable_1_manhiala_hit.wav,p03,mañiala,hit,ma-nhia-la,ma-ñia-la,ma-ñi-a-la, ,-0.346354167,-0.110677083,1,0,0,0.367,text_option_1,,0,161,161,21,1
61168f1b99f855bfe46cdc36,63f3cfca20052e4ae7554ebf,6453c8801e6bae22f4027ca7,2023-05-04_17h00.42.912,ga_syllabified_check,2022.2.5,Win32,59.80861244,,,,,,,,,,,,,,./stim/p03_syllable_1_costonhialo_hit.wav,p03,costoñialo,hit,cos-to-nhia-lo,cos-to-ñia-lo,cos-to-ñi-a-lo, ,-0.313802083,-0.091145833,1,0,0,0.785,text_option_1,,0,162,162,1,1
61168f1b99f855bfe46cdc36,63f3cfca20052e4ae7554ebf,6453c8801e6bae22f4027ca7,2023-05-04_17h00.42.912,ga_syllabified_check,2022.2.5,Win32,59.80861244,,,,,,,,,,,,,,./stim/p04_syllable_1_nhiape_hit.wav,p04,ñiape,hit,nhia-pe,ñia-pe,ñi-a-pe, ,-0.403645833,-0.09375,1,0,0,0.283,text_option_1,,0,163,163,57,1
61168f1b99f855bfe46cdc36,63f3cfca20052e4ae7554ebf,6453c8801e6bae22f4027ca7,2023-05-04_17h00.42.912,ga_syllabified_check,2022.2.5,Win32,59.80861244,,,,,,,,,,,,,,./stim/p07_syllable_1_lakatiaisto_hit.wav,p07,lakatiaisto,hit,la-ka-tiai-sto,la-ka-tiais-to,la-ka-ti-ais-to,la-ka-tia-is-to,-0.375,-0.088541667,1,0,0,2.39,text_option_1,,0,164,164,154,1
61168f1b99f855bfe46cdc36,63f3cfca20052e4ae7554ebf,6453c8801e6bae22f4027ca7,2023-05-04_17h00.42.912,ga_syllabified_check,2022.2.5,Win32,59.80861244,,,,,,,,,,,,,,./stim/p05_syllable_1_paluguato_hit.wav,p05,paluguato,hit,pa-lu-gau-to,pa-lu-gua-to,pa-lu-gu-a-to, ,0.337239583,-0.102864583,1,0,0,3.595,text_option_2,,0,165,165,95,1
61168f1b99f855bfe46cdc36,63f3cfca20052e4ae7554ebf,6453c8801e6bae22f4027ca7,2023-05-04_17h00.42.912,ga_syllabified_check,2022.2.5,Win32,59.80861244,,,,,,,,,,,,,,./stim/p07_syllable_1_nhiape_hit.wav,p07,ñiape,hit,nhia-pe,ñia-pe,ñi-a-pe, ,-0.404947917,-0.096354167,1,0,0,0.184,text_option_1,,0,166,166,159,1
61168f1b99f855bfe46cdc36,63f3cfca20052e4ae7554ebf,6453c8801e6bae22f4027ca7,2023-05-04_17h00.42.912,ga_syllabified_check,2022.2.5,Win32,59.80861244,,,,,,,,,,,,,,./stim/p07_syllable_1_manhiala_hit.wav,p07,mañiala,hit,ma-nhia-la,ma-ñia-la,ma-ñi-a-la, ,-0.37109375,-0.092447917,1,0,0,1.656,text_option_1,,0,167,167,157,1
61168f1b99f855bfe46cdc36,63f3cfca20052e4ae7554ebf,6453c8801e6bae22f4027ca7,2023-05-04_17h00.42.912,ga_syllabified_check,2022.2.5,Win32,59.80861244,,,,,,,,,,,,,,./stim/p08_syllable_1_ruyiola_hit.wav,p08,ruyiola,hit,ru-yio-la,ru-yio-la,ru-yi-o-la, ,-0.368489583,-0.096354167,1,0,0,1.673,text_option_1,,0,168,168,202,1
61168f1b99f855bfe46cdc36,63f3cfca20052e4ae7554ebf,6453c8801e6bae22f4027ca7,2023-05-04_17h00.42.912,ga_syllabified_check,2022.2.5,Win32,59.80861244,,,,,,,,,,,,,,./stim/p04_syllable_1_lakapiaisto_hit.wav,p04,lakapiaisto,hit,la-ka-piais-to,la-ka-piais-to,la-ka-pi-ais-to,la-ka-pia-is-to,-0.364583333,-0.088541667,1,0,0,1.205,text_option_1,,0,169,169,50,1
61168f1b99f855bfe46cdc36,63f3cfca20052e4ae7554ebf,6453c8801e6bae22f4027ca7,2023-05-04_17h00.42.912,ga_syllabified_check,2022.2.5,Win32,59.80861244,,,,,,,,,,,,,,./stim/p03_syllable_1_falufaisto_hit.wav,p03,falufaisto,hit,fa-lu-fais-to,fa-lu-fais-to,fa-lu-fa-is-to, ,-0.3984375,-0.109375,1,0,0,1.94,text_option_1,,0,170,170,3,1
61168f1b99f855bfe46cdc36,63f3cfca20052e4ae7554ebf,6453c8801e6bae22f4027ca7,2023-05-04_17h00.42.912,ga_syllabified_check,2022.2.5,Win32,59.80861244,,,,,,,,,,,,,,./stim/p08_syllable_1_costonhialo_hit.wav,p08,costoñialo,hit,cos-to-nhia-lo,cos-to-ñia-lo,cos-to-ñi-a-lo, ,-0.334635417,-0.08984375,1,0,0,1.12,text_option_1,,0,171,171,171,1
61168f1b99f855bfe46cdc36,63f3cfca20052e4ae7554ebf,6453c8801e6bae22f4027ca7,2023-05-04_17h00.42.912,ga_syllabified_check,2022.2.5,Win32,59.80861244,,,,,,,,,,,,,,./stim/p05_syllable_1_mebochiana_hit.wav,p05,mebochiana,hit,me-cho-chai-na,me-bo-chia-na,me-bo-chi-a-na, ,-0.33203125,-0.095052083,1,0,0,2.325,text_option_1,,0,172,172,90,1
61168f1b99f855bfe46cdc36,63f3cfca20052e4ae7554ebf,6453c8801e6bae22f4027ca7,2023-05-04_17h00.42.912,ga_syllabified_check,2022.2.5,Win32,59.80861244,,,,,,,,,,,,,,./stim/p07_syllable_1_lakapiaisto_hit.wav,p07,lakapiaisto,hit,la-ka-pia-sto,la-ka-piais-to,la-ka-pi-ais-to,la-ka-pia-is-to,0.02734375,-0.095052083,1,0,0,3.645,text_option_3,,0,173,173,152,1
61168f1b99f855bfe46cdc36,63f3cfca20052e4ae7554ebf,6453c8801e6bae22f4027ca7,2023-05-04_17h00.42.912,ga_syllabified_check,2022.2.5,Win32,59.80861244,,,,,,,,,,,,,,./stim/p06_syllable_1_palutrauco_hit.wav,p06,palutrauco,hit,pa-lu-tra-u-co,pa-lu-trau-co,pa-lu-tra-u-co, ,0.373697917,-0.087239583,1,0,0,2.34,text_option_2,,0,174,174,131,1
61168f1b99f855bfe46cdc36,63f3cfca20052e4ae7554ebf,6453c8801e6bae22f4027ca7,2023-05-04_17h00.42.912,ga_syllabified_check,2022.2.5,Win32,59.80861244,,,,,,,,,,,,,,./stim/p03_syllable_1_rausto_hit.wav,p03,rausto,hit,raus-to,raus-to,ra-us-to, ,-0.3515625,-0.088541667,1,0,0,1.438,text_option_1,,0,175,175,31,1
61168f1b99f855bfe46cdc36,63f3cfca20052e4ae7554ebf,6453c8801e6bae22f4027ca7,2023-05-04_17h00.42.912,ga_syllabified_check,2022.2.5,Win32,59.80861244,,,,,,,,,,,,,,./stim/p03_syllable_1_lakagiaisto_hit.wav,p03,lakagiaisto,hit,la-ka-giais-to,la-ka-giais-to,la-ka-gi-ais-to,la-ka-gia-is-to,-0.34765625,-0.100260417,1,0,0,1.589,text_option_1,,0,176,176,12,1
61168f1b99f855bfe46cdc36,63f3cfca20052e4ae7554ebf,6453c8801e6bae22f4027ca7,2023-05-04_17h00.42.912,ga_syllabified_check,2022.2.5,Win32,59.80861244,,,,,,,,,,,,,,./stim/p07_syllable_1_lakabuaisto_hit.wav,p07,lakabuaisto,hit,la-ka-buais-to,la-ka-buais-to,la-ka-bu-ais-to,la-ka-bua-is-to,-0.3359375,-0.08984375,1,0,0,1.121,text_option_1,,0,177,177,143,1
61168f1b99f855bfe46cdc36,63f3cfca20052e4ae7554ebf,6453c8801e6bae22f4027ca7,2023-05-04_17h00.42.912,ga_syllabified_check,2022.2.5,Win32,59.80861244,,,,,,,,,,,,,,./stim/p06_syllable_1_chiaba_hit.wav,p06,chiaba,hit,chi-a-ba,chia-ba,chi-a-ba, ,0.368489583,-0.095052083,1,0,0,0.719,text_option_2,,0,178,178,102,1
61168f1b99f855bfe46cdc36,63f3cfca20052e4ae7554ebf,6453c8801e6bae22f4027ca7,2023-05-04_17h00.42.912,ga_syllabified_check,2022.2.5,Win32,59.80861244,,,,,,,,,,,,,,./stim/p06_syllable_1_lakapiaisto_hit.wav,p06,lakapiaisto,hit,la-ka-pia-is-to,la-ka-piais-to,la-ka-pi-ais-to,la-ka-pia-is-to,0.005208333,-0.10546875,1,0,0,4.113,text_option_3,,0,179,179,118,1
61168f1b99f855bfe46cdc36,63f3cfca20052e4ae7554ebf,6453c8801e6bae22f4027ca7,2023-05-04_17h00.42.912,ga_syllabified_check,2022.2.5,Win32,59.80861244,,,,,,,,,,,,,,./stim/p03_syllable_1_lakaguaisto_hit.wav,p03,lakaguaisto,hit,la-ka-guais-to,la-ka-guais-to,la-ka-gu-ais-to,la-ka-gua-is-to,-0.376302083,-0.091145833,1,0,0,1.036,text_option_1,,0,180,180,13,1
61168f1b99f855bfe46cdc36,63f3cfca20052e4ae7554ebf,6453c8801e6bae22f4027ca7,2023-05-04_17h00.42.912,ga_syllabified_check,2022.2.5,Win32,59.80861244,,,,,,,,,,,,,,./stim/p07_syllable_1_falutraigo_hit.wav,p07,falutraigo,hit,fa-lu-trai-go,fa-lu-trai-go,fa-lu-tra-i-go, ,-0.33203125,-0.100260417,1,0,0,1.354,text_option_1,,0,181,181,140,1
61168f1b99f855bfe46cdc36,63f3cfca20052e4ae7554ebf,6453c8801e6bae22f4027ca7,2023-05-04_17h00.42.912,ga_syllabified_check,2022.2.5,Win32,59.80861244,,,,,,,,,,,,,,./stim/p08_syllable_1_lakatiaisto_hit.wav,p08,lakatiaisto,hit,la-ka-ti-as-to,la-ka-tiais-to,la-ka-ti-ais-to,la-ka-tia-is-to,0.361979167,-0.096354167,1,0,0,6.052,text_option_2,,0,182,182,188,1
61168f1b99f855bfe46cdc36,63f3cfca20052e4ae7554ebf,6453c8801e6bae22f4027ca7,2023-05-04_17h00.42.912,ga_syllabified_check,2022.2.5,Win32,59.80861244,,,,,,,,,,,,,,./stim/p04_syllable_1_mebochiana_hit.wav,p04,mebochiana,hit,me-bo-chia-na,me-bo-chia-na,me-bo-chi-a-na, ,-0.3046875,-0.098958333,1,0,0,1.204,text_option_1,,0,183,183,56,1
61168f1b99f855bfe46cdc36,63f3cfca20052e4ae7554ebf,6453c8801e6bae22f4027ca7,2023-05-04_17h00.42.912,ga_syllabified_check,2022.2.5,Win32,59.80861244,,,,,,,,,,,,,,./stim/p06_syllable_1_payielo_hit.wav,p06,payielo,hit,pa-yi-e-lo,pa-yie-lo,pa-yi-e-lo, ,0.451822917,-0.091145833,1,0,0,1.22,text_option_2,,0,184,184,132,1
61168f1b99f855bfe46cdc36,63f3cfca20052e4ae7554ebf,6453c8801e6bae22f4027ca7,2023-05-04_17h00.42.912,ga_syllabified_check,2022.2.5,Win32,59.80861244,,,,,,,,,,,,,,./stim/p05_syllable_1_palumaisto_hit.wav,p05,palumaisto,hit,pa-lu-mais-to,pa-lu-mais-to,pa-lu-ma-is-to, ,-0.34375,-0.088541667,1,0,0,0.385,text_option_1,,0,185,185,96,1
61168f1b99f855bfe46cdc36,63f3cfca20052e4ae7554ebf,6453c8801e6bae22f4027ca7,2023-05-04_17h00.42.912,ga_syllabified_check,2022.2.5,Win32,59.80861244,,,,,,,,,,,,,,./stim/p06_syllable_1_tuliafo_hit.wav,p06,tuliafo,hit,tu-li-a-fo,tu-lia-fo,tu-li-a-fo, ,0.407552083,-0.096354167,1,0,0,1.288,text_option_2,,0,186,186,135,1
61168f1b99f855bfe46cdc36,63f3cfca20052e4ae7554ebf,6453c8801e6bae22f4027ca7,2023-05-04_17h00.42.912,ga_syllabified_check,2022.2.5,Win32,59.80861244,,,,,,,,,,,,,,./stim/p08_syllable_1_lakapiaisto_hit.wav,p08,lakapiaisto,hit,la-ka-pi-as-to,la-ka-piais-to,la-ka-pi-ais-to,la-ka-pia-is-to,0.0859375,-0.31640625,1,0,0,3.93,text_option_other,la ka pi as to,0,187,187,186,1
61168f1b99f855bfe46cdc36,63f3cfca20052e4ae7554ebf,6453c8801e6bae22f4027ca7,2023-05-04_17h00.42.912,ga_syllabified_check,2022.2.5,Win32,59.80861244,,,,,,,,,,,,,,./stim/p07_syllable_1_falufaisto_hit.wav,p07,falufaisto,hit,fa-lu-fais-to,fa-lu-fais-to,fa-lu-fa-is-to, ,-0.423177083,-0.11328125,1,0,0,1.354,text_option_1,,0,188,188,139,1
61168f1b99f855bfe46cdc36,63f3cfca20052e4ae7554ebf,6453c8801e6bae22f4027ca7,2023-05-04_17h00.42.912,ga_syllabified_check,2022.2.5,Win32,59.80861244,,,,,,,,,,,,,,./stim/p05_syllable_1_flauro_hit.wav,p05,flauro,hit,fa-lu-ro,flau-ro,fla-u-ro, ,0.381510417,-0.108072917,1,0,0,1.003,text_option_2,,0,189,189,73,1
61168f1b99f855bfe46cdc36,63f3cfca20052e4ae7554ebf,6453c8801e6bae22f4027ca7,2023-05-04_17h00.42.912,ga_syllabified_check,2022.2.5,Win32,59.80861244,,,,,,,,,,,,,,./stim/p07_syllable_1_palufauto_hit.wav,p07,palufauto,hit,pa-lu-fau-to,pa-lu-fau-to,pa-lu-fa-u-to, ,-0.325520833,-0.118489583,1,0,0,1.02,text_option_1,,0,190,190,162,1
61168f1b99f855bfe46cdc36,63f3cfca20052e4ae7554ebf,6453c8801e6bae22f4027ca7,2023-05-04_17h00.42.912,ga_syllabified_check,2022.2.5,Win32,59.80861244,,,,,,,,,,,,,,./stim/p05_syllable_1_payielo_hit.wav,p05,payielo,hit,pai-yu-we-lo,pa-yie-lo,pa-yi-e-lo, ,-0.32421875,-0.109375,1,0,0,2.14,text_option_1,,0,191,191,98,1
61168f1b99f855bfe46cdc36,63f3cfca20052e4ae7554ebf,6453c8801e6bae22f4027ca7,2023-05-04_17h00.42.912,ga_syllabified_check,2022.2.5,Win32,59.80861244,,,,,,,,,,,,,,./stim/p07_syllable_1_lakafuaisto_hit.wav,p07,lakafuaisto,hit,la-ka-fuais-to,la-ka-fuais-to,la-ka-fu-ais-to,la-ka-fua-is-to,-0.407552083,-0.1015625,1,0,0,0.769,text_option_1,,0,192,192,147,1
61168f1b99f855bfe46cdc36,63f3cfca20052e4ae7554ebf,6453c8801e6bae22f4027ca7,2023-05-04_17h00.42.912,ga_syllabified_check,2022.2.5,Win32,59.80861244,,,,,,,,,,,,,,./stim/p05_syllable_1_lakatiaisto_hit.wav,p05,lakatiaisto,hit,la-ka-ti-ais-to,la-ka-tiais-to,la-ka-ti-ais-to,la-ka-tia-is-to,0.447916667,-0.110677083,1,0,0,1.906,text_option_2,,0,193,193,86,1
61168f1b99f855bfe46cdc36,63f3cfca20052e4ae7554ebf,6453c8801e6bae22f4027ca7,2023-05-04_17h00.42.912,ga_syllabified_check,2022.2.5,Win32,59.80861244,,,,,,,,,,,,,,./stim/p06_syllable_1_lakakiaisto_hit.wav,p06,lakakiaisto,hit,la-ka-kia-is-to,la-ka-kiais-to,la-ka-ki-ais-to,la-ka-kia-is-to,0.080729167,-0.10546875,1,0,0,3.677,text_option_3,,0,194,194,116,1
61168f1b99f855bfe46cdc36,63f3cfca20052e4ae7554ebf,6453c8801e6bae22f4027ca7,2023-05-04_17h00.42.912,ga_syllabified_check,2022.2.5,Win32,59.80861244,,,,,,,,,,,,,,./stim/p08_syllable_1_tuliafo_hit.wav,p08,tuliafo,hit,tu-li-a-fo,tu-lia-fo,tu-li-a-fo, ,0.4375,-0.114583333,1,0,0,1.054,text_option_2,,0,195,195,203,1
61168f1b99f855bfe46cdc36,63f3cfca20052e4ae7554ebf,6453c8801e6bae22f4027ca7,2023-05-04_17h00.42.912,ga_syllabified_check,2022.2.5,Win32,59.80861244,,,,,,,,,,,,,,./stim/p05_syllable_1_costonhialo_hit.wav,p05,costoñialo,hit,cos-to-nhia-lo,cos-to-ñia-lo,cos-to-ñi-a-lo, ,-0.294270833,-0.109375,1,0,0,1.354,text_option_1,,0,196,196,69,1
61168f1b99f855bfe46cdc36,63f3cfca20052e4ae7554ebf,6453c8801e6bae22f4027ca7,2023-05-04_17h00.42.912,ga_syllabified_check,2022.2.5,Win32,59.80861244,,,,,,,,,,,,,,./stim/p06_syllable_1_rausto_hit.wav,p06,rausto,hit,ra-us-to,raus-to,ra-us-to, ,0.368489583,-0.091145833,1,0,0,1.254,text_option_2,,0,197,197,133,1
61168f1b99f855bfe46cdc36,63f3cfca20052e4ae7554ebf,6453c8801e6bae22f4027ca7,2023-05-04_17h00.42.912,ga_syllabified_check,2022.2.5,Win32,59.80861244,,,,,,,,,,,,,,./stim/p03_syllable_1_palufauto_hit.wav,p03,palufauto,hit,pa-lu-fau,pa-lu-fau-to,pa-lu-fa-u-to, ,-0.337239583,-0.096354167,1,0,0,0.887,text_option_1,,0,198,198,26,1
61168f1b99f855bfe46cdc36,63f3cfca20052e4ae7554ebf,6453c8801e6bae22f4027ca7,2023-05-04_17h00.42.912,ga_syllabified_check,2022.2.5,Win32,59.80861244,,,,,,,,,,,,,,./stim/p07_syllable_1_costonhialo_hit.wav,p07,costoñialo,hit,cos-to-nhia-lo,cos-to-ñia-lo,cos-to-ñi-a-lo, ,-0.3515625,-0.09765625,1,0,0,1.405,text_option_1,,0,199,199,137,1
61168f1b99f855bfe46cdc36,63f3cfca20052e4ae7554ebf,6453c8801e6bae22f4027ca7,2023-05-04_17h00.42.912,ga_syllabified_check,2022.2.5,Win32,59.80861244,,,,,,,,,,,,,,./stim/p05_syllable_1_lakabiaisto_hit.wav,p05,lakabiaisto,hit,la-ka-bi-ais-to,la-ka-biais-to,la-ka-bi-ais-to,la-ka-bia-is-to,-0.4375,-0.108072917,1,0,0,1.54,text_option_1,,0,200,200,74,1
61168f1b99f855bfe46cdc36,63f3cfca20052e4ae7554ebf,6453c8801e6bae22f4027ca7,2023-05-04_17h00.42.912,ga_syllabified_check,2022.2.5,Win32,59.80861244,,,,,,,,,,,,,,./stim/p04_syllable_1_palumaisto_hit.wav,p04,palumaisto,hit,pa-lu-mais-to,pa-lu-mais-to,pa-lu-ma-is-to, ,-0.342447917,-0.106770833,1,0,0,0.869,text_option_1,,0,201,201,62,1
61168f1b99f855bfe46cdc36,63f3cfca20052e4ae7554ebf,6453c8801e6bae22f4027ca7,2023-05-04_17h00.42.912,ga_syllabified_check,2022.2.5,Win32,59.80861244,,,,,,,,,,,,,,./stim/p08_syllable_1_lakaduaisto_hit.wav,p08,lakaduaisto,hit,la-ka-du-ais-to,la-ka-duais-to,la-ka-du-ais-to,la-ka-dua-is-to,0.485677083,-0.096354167,1,0,0,4.43,text_option_2,,0,202,202,179,1
61168f1b99f855bfe46cdc36,63f3cfca20052e4ae7554ebf,6453c8801e6bae22f4027ca7,2023-05-04_17h00.42.912,ga_syllabified_check,2022.2.5,Win32,59.80861244,,,,,,,,,,,,,,./stim/p03_syllable_1_lakabuaisto_hit.wav,p03,lakabuaisto,hit,la-ka-buais-to,la-ka-buais-to,la-ka-bu-ais-to,la-ka-bua-is-to,-0.329427083,-0.115885417,1,0,0,2.962,text_option_1,,0,203,203,7,1
61168f1b99f855bfe46cdc36,63f3cfca20052e4ae7554ebf,6453c8801e6bae22f4027ca7,2023-05-04_17h00.42.912,ga_syllabified_check,2022.2.5,Win32,59.80861244,,,,,,,,,,,,,,,,,,,,,,,,,,,,,,,,,,
