participant,study,session,date,expName,psychopyVersion,OS,frameRate,mouse_practice.x,mouse_practice.y,mouse_practice.leftButton,mouse_practice.midButton,mouse_practice.rightButton,mouse_practice.time,mouse_practice.clicked_name,textbox_followup_practice.text,trials_practice.thisRepN,trials_practice.thisTrialN,trials_practice.thisN,trials_practice.thisIndex,trials_practice.ran,file_path,id,item,status,response,op1,op2,op3,mouse.x,mouse.y,mouse.leftButton,mouse.midButton,mouse.rightButton,mouse.time,mouse.clicked_name,textbox_followup.text,trials.thisRepN,trials.thisTrialN,trials.thisN,trials.thisIndex,trials.ran
6140aaf2f4055ef0aacd08e3,63f3cfca20052e4ae7554ebf,6453c746ecaa510ba1f2c895,2023-05-04_16h55.34.777,ga_syllabified_check,2022.2.5,Win32,6.642576257,,,,,,,,,,,,,,,,,,,,,,,,,,,,,,,,,,
6140aaf2f4055ef0aacd08e3,63f3cfca20052e4ae7554ebf,6453c746ecaa510ba1f2c895,2023-05-04_16h55.34.777,ga_syllabified_check,2022.2.5,Win32,6.642576257,-0.377777778,-0.112037037,1,0,0,6.9851,text_option_1_practice,,0,0,0,0,1,./stim/p03_syllable_1_liamo_hit.wav,p03,liamo,hit,lia-mo,lia-mo,li-a-mo, ,,,,,,,,,,,,,
6140aaf2f4055ef0aacd08e3,63f3cfca20052e4ae7554ebf,6453c746ecaa510ba1f2c895,2023-05-04_16h55.34.777,ga_syllabified_check,2022.2.5,Win32,6.642576257,-0.373148148,-0.106481481,1,0,0,1.0789,text_option_1_practice,,0,1,1,1,1,./stim/p05_syllable_1_matio_hit.wav,p05,matio,hit,ma-tio,ma-tio,ma-ti-o, ,,,,,,,,,,,,,
6140aaf2f4055ef0aacd08e3,63f3cfca20052e4ae7554ebf,6453c746ecaa510ba1f2c895,2023-05-04_16h55.34.777,ga_syllabified_check,2022.2.5,Win32,6.642576257,-0.401851852,-0.1,1,0,0,4.6626,text_option_1_practice,,0,2,2,2,1,./stim/p08_syllable_1_liamo_hit.wav,p08,liamo,hit,ja-mo,lia-mo,li-a-mo, ,,,,,,,,,,,,,
6140aaf2f4055ef0aacd08e3,63f3cfca20052e4ae7554ebf,6453c746ecaa510ba1f2c895,2023-05-04_16h55.34.777,ga_syllabified_check,2022.2.5,Win32,6.642576257,,,,,,,,,,,,,,,,,,,,,,,,,,,,,,,,,,
6140aaf2f4055ef0aacd08e3,63f3cfca20052e4ae7554ebf,6453c746ecaa510ba1f2c895,2023-05-04_16h55.34.777,ga_syllabified_check,2022.2.5,Win32,6.642576257,,,,,,,,,,,,,,./stim/p07_syllable_1_flauro_hit.wav,p07,flauro,hit,flau-ro,flau-ro,fla-u-ro, ,-0.364814815,-0.10462963,1,0,0,1.439,text_option_1,,0,0,0,141,1
6140aaf2f4055ef0aacd08e3,63f3cfca20052e4ae7554ebf,6453c746ecaa510ba1f2c895,2023-05-04_16h55.34.777,ga_syllabified_check,2022.2.5,Win32,6.642576257,,,,,,,,,,,,,,./stim/p08_syllable_1_tuliafo_hit.wav,p08,tuliafo,hit,tu-li-a-fo,tu-lia-fo,tu-li-a-fo, ,0.390740741,-0.099074074,1,0,0,4.5124,text_option_2,,0,1,1,203,1
6140aaf2f4055ef0aacd08e3,63f3cfca20052e4ae7554ebf,6453c746ecaa510ba1f2c895,2023-05-04_16h55.34.777,ga_syllabified_check,2022.2.5,Win32,6.642576257,,,,,,,,,,,,,,./stim/p07_syllable_1_lakaduaisto_hit.wav,p07,lakaduaisto,hit,la-ka-duais-to,la-ka-duais-to,la-ka-du-ais-to,la-ka-dua-is-to,-0.380555556,-0.105555556,1,0,0,2.7964,text_option_1,,0,2,2,145,1
6140aaf2f4055ef0aacd08e3,63f3cfca20052e4ae7554ebf,6453c746ecaa510ba1f2c895,2023-05-04_16h55.34.777,ga_syllabified_check,2022.2.5,Win32,6.642576257,,,,,,,,,,,,,,./stim/p05_syllable_1_lakafuaisto_hit.wav,p05,lakafuaisto,hit,la-ka-fais-to,la-ka-fuais-to,la-ka-fu-ais-to,la-ka-fua-is-to,-0.362962963,-0.107407407,1,0,0,1.9039,text_option_1,,0,3,3,79,1
6140aaf2f4055ef0aacd08e3,63f3cfca20052e4ae7554ebf,6453c746ecaa510ba1f2c895,2023-05-04_16h55.34.777,ga_syllabified_check,2022.2.5,Win32,6.642576257,,,,,,,,,,,,,,./stim/p04_syllable_1_nhiape_hit.wav,p04,ñiape,hit,nhia-pe,ñia-pe,ñi-a-pe, ,-0.376851852,-0.112962963,1,0,0,0.771,text_option_1,,0,4,4,57,1
6140aaf2f4055ef0aacd08e3,63f3cfca20052e4ae7554ebf,6453c746ecaa510ba1f2c895,2023-05-04_16h55.34.777,ga_syllabified_check,2022.2.5,Win32,6.642576257,,,,,,,,,,,,,,./stim/p03_syllable_1_costonhialo_hit.wav,p03,costoñialo,hit,cos-to-nhia-lo,cos-to-ñia-lo,cos-to-ñi-a-lo, ,-0.362962963,-0.102777778,1,0,0,3.91,text_option_1,,0,5,5,1,1
6140aaf2f4055ef0aacd08e3,63f3cfca20052e4ae7554ebf,6453c746ecaa510ba1f2c895,2023-05-04_16h55.34.777,ga_syllabified_check,2022.2.5,Win32,6.642576257,,,,,,,,,,,,,,./stim/p04_syllable_1_costonhialo_hit.wav,p04,costoñialo,hit,cos-to-nhia-lo,cos-to-ñia-lo,cos-to-ñi-a-lo, ,-0.321296296,-0.092592593,1,0,0,2.6747,text_option_1,,0,6,6,35,1
6140aaf2f4055ef0aacd08e3,63f3cfca20052e4ae7554ebf,6453c746ecaa510ba1f2c895,2023-05-04_16h55.34.777,ga_syllabified_check,2022.2.5,Win32,6.642576257,,,,,,,,,,,,,,./stim/p08_syllable_1_lakabuaisto_hit.wav,p08,lakabuaisto,hit,la-ka-bu-ais-to,la-ka-buais-to,la-ka-bu-ais-to,la-ka-bua-is-to,0.440740741,-0.1,1,0,0,8.3583,text_option_2,,0,7,7,177,1
6140aaf2f4055ef0aacd08e3,63f3cfca20052e4ae7554ebf,6453c746ecaa510ba1f2c895,2023-05-04_16h55.34.777,ga_syllabified_check,2022.2.5,Win32,6.642576257,,,,,,,,,,,,,,./stim/p05_syllable_1_palufauto_hit.wav,p05,palufauto,hit,pa-lu-fau-to,pa-lu-fau-to,pa-lu-fa-u-to, ,-0.4,-0.092592593,1,0,0,4.5377,text_option_1,,0,8,8,94,1
6140aaf2f4055ef0aacd08e3,63f3cfca20052e4ae7554ebf,6453c746ecaa510ba1f2c895,2023-05-04_16h55.34.777,ga_syllabified_check,2022.2.5,Win32,6.642576257,,,,,,,,,,,,,,./stim/p04_syllable_1_lakatiaisto_hit.wav,p04,lakatiaisto,hit,la-ka-kiais-to,la-ka-tiais-to,la-ka-ti-ais-to,la-ka-tia-is-to,-0.39537037,-0.102777778,1,0,0,4.2907,text_option_1,,0,9,9,52,1
6140aaf2f4055ef0aacd08e3,63f3cfca20052e4ae7554ebf,6453c746ecaa510ba1f2c895,2023-05-04_16h55.34.777,ga_syllabified_check,2022.2.5,Win32,6.642576257,,,,,,,,,,,,,,./stim/p03_syllable_1_tuliafo_hit.wav,p03,tuliafo,hit,tu-lia-fo,tu-lia-fo,tu-li-a-fo, ,-0.388888889,-0.107407407,1,0,0,1.7071,text_option_1,,0,10,10,33,1
6140aaf2f4055ef0aacd08e3,63f3cfca20052e4ae7554ebf,6453c746ecaa510ba1f2c895,2023-05-04_16h55.34.777,ga_syllabified_check,2022.2.5,Win32,6.642576257,,,,,,,,,,,,,,./stim/p08_syllable_1_lliape_hit.wav,p08,lliape,hit,li-a-pe,llia-pe,lli-a-pe, ,0.390740741,-0.103703704,1,0,0,4.6418,text_option_2,,0,11,11,190,1
6140aaf2f4055ef0aacd08e3,63f3cfca20052e4ae7554ebf,6453c746ecaa510ba1f2c895,2023-05-04_16h55.34.777,ga_syllabified_check,2022.2.5,Win32,6.642576257,,,,,,,,,,,,,,./stim/p08_syllable_1_lakafuaisto_hit.wav,p08,lakafuaisto,hit,la-ka-fju-ais-to,la-ka-fuais-to,la-ka-fu-ais-to,la-ka-fua-is-to,0.031481481,-0.303703704,1,0,0,6.428,text_option_other,LA-KA-FIUIAIS-TO,0,12,12,181,1
6140aaf2f4055ef0aacd08e3,63f3cfca20052e4ae7554ebf,6453c746ecaa510ba1f2c895,2023-05-04_16h55.34.777,ga_syllabified_check,2022.2.5,Win32,6.642576257,,,,,,,,,,,,,,./stim/p04_syllable_1_manhiala_hit.wav,p04,mañiala,hit,ma-nhia-la,ma-ñia-la,ma-ñi-a-la, ,-0.352777778,-0.105555556,1,0,0,1.1013,text_option_1,,0,13,13,55,1
6140aaf2f4055ef0aacd08e3,63f3cfca20052e4ae7554ebf,6453c746ecaa510ba1f2c895,2023-05-04_16h55.34.777,ga_syllabified_check,2022.2.5,Win32,6.642576257,,,,,,,,,,,,,,./stim/p03_syllable_1_lakatuaisto_hit.wav,p03,lakatuaisto,hit,la-ka-tuais-to,la-ka-tuais-to,la-ka-tu-ais-to,la-ka-tua-is-to,-0.363888889,-0.111111111,1,0,0,2.1758,text_option_1,,0,14,14,19,1
6140aaf2f4055ef0aacd08e3,63f3cfca20052e4ae7554ebf,6453c746ecaa510ba1f2c895,2023-05-04_16h55.34.777,ga_syllabified_check,2022.2.5,Win32,6.642576257,,,,,,,,,,,,,,./stim/p04_syllable_1_lliape_hit.wav,p04,lliape,hit,lia-pe,llia-pe,lli-a-pe, ,-0.381481481,-0.10462963,1,0,0,2.3145,text_option_1,,0,15,15,54,1
6140aaf2f4055ef0aacd08e3,63f3cfca20052e4ae7554ebf,6453c746ecaa510ba1f2c895,2023-05-04_16h55.34.777,ga_syllabified_check,2022.2.5,Win32,6.642576257,,,,,,,,,,,,,,./stim/p06_syllable_1_lakafiaisto_hit.wav,p06,lakafiaisto,hit,la-ka-fia-is-to,la-ka-fiais-to,la-ka-fi-ais-to,la-ka-fia-is-to,0.008333333,-0.106481481,1,0,0,4.0734,text_option_3,,0,16,16,112,1
6140aaf2f4055ef0aacd08e3,63f3cfca20052e4ae7554ebf,6453c746ecaa510ba1f2c895,2023-05-04_16h55.34.777,ga_syllabified_check,2022.2.5,Win32,6.642576257,,,,,,,,,,,,,,./stim/p03_syllable_1_flauro_hit.wav,p03,flauro,hit,flau-ro,flau-ro,fla-u-ro, ,-0.374074074,-0.102777778,1,0,0,1.8567,text_option_1,,0,17,17,5,1
6140aaf2f4055ef0aacd08e3,63f3cfca20052e4ae7554ebf,6453c746ecaa510ba1f2c895,2023-05-04_16h55.34.777,ga_syllabified_check,2022.2.5,Win32,6.642576257,,,,,,,,,,,,,,./stim/p04_syllable_1_lakabiaisto_hit.wav,p04,lakabiaisto,hit,la-ka-biais-to,la-ka-biais-to,la-ka-bi-ais-to,la-ka-bia-is-to,-0.361111111,-0.103703704,1,0,0,2.1926,text_option_1,,0,18,18,40,1
6140aaf2f4055ef0aacd08e3,63f3cfca20052e4ae7554ebf,6453c746ecaa510ba1f2c895,2023-05-04_16h55.34.777,ga_syllabified_check,2022.2.5,Win32,6.642576257,,,,,,,,,,,,,,./stim/p07_syllable_1_lakakiaisto_hit.wav,p07,lakakiaisto,hit,la-ka-kais-to,la-ka-kiais-to,la-ka-ki-ais-to,la-ka-kia-is-to,-0.007407407,-0.311111111,1,0,0,3.4261,text_option_other,LA-KA-KAIS-TO,0,19,19,150,1
6140aaf2f4055ef0aacd08e3,63f3cfca20052e4ae7554ebf,6453c746ecaa510ba1f2c895,2023-05-04_16h55.34.777,ga_syllabified_check,2022.2.5,Win32,6.642576257,,,,,,,,,,,,,,./stim/p03_syllable_1_mebochiana_hit.wav,p03,mebochiana,hit,me-bo-chia-na,me-bo-chia-na,me-bo-chi-a-na, ,-0.362037037,-0.107407407,1,0,0,1.7232,text_option_1,,0,20,20,22,1
6140aaf2f4055ef0aacd08e3,63f3cfca20052e4ae7554ebf,6453c746ecaa510ba1f2c895,2023-05-04_16h55.34.777,ga_syllabified_check,2022.2.5,Win32,6.642576257,,,,,,,,,,,,,,./stim/p07_syllable_1_palutrauco_hit.wav,p07,palutrauco,hit,pa-lu-trau-co,pa-lu-trau-co,pa-lu-tra-u-co, ,-0.34537037,-0.109259259,1,0,0,1.5357,text_option_1,,0,21,21,165,1
6140aaf2f4055ef0aacd08e3,63f3cfca20052e4ae7554ebf,6453c746ecaa510ba1f2c895,2023-05-04_16h55.34.777,ga_syllabified_check,2022.2.5,Win32,6.642576257,,,,,,,,,,,,,,./stim/p08_syllable_1_lakadiaisto_hit.wav,p08,lakadiaisto,hit,la-ka-di-jas-to,la-ka-diais-to,la-ka-di-ais-to,la-ka-dia-is-to,0.05462963,-0.105555556,1,0,0,5.6059,text_option_3,,0,22,22,178,1
6140aaf2f4055ef0aacd08e3,63f3cfca20052e4ae7554ebf,6453c746ecaa510ba1f2c895,2023-05-04_16h55.34.777,ga_syllabified_check,2022.2.5,Win32,6.642576257,,,,,,,,,,,,,,./stim/p05_syllable_1_paluguato_hit.wav,p05,paluguato,hit,pa-lu-gau-to,pa-lu-gua-to,pa-lu-gu-a-to, ,-0.35,-0.111111111,1,0,0,4.5434,text_option_1,,0,23,23,95,1
6140aaf2f4055ef0aacd08e3,63f3cfca20052e4ae7554ebf,6453c746ecaa510ba1f2c895,2023-05-04_16h55.34.777,ga_syllabified_check,2022.2.5,Win32,6.642576257,,,,,,,,,,,,,,./stim/p04_syllable_1_lakabuaisto_hit.wav,p04,lakabuaisto,hit,la-ka-buais-to,la-ka-buais-to,la-ka-bu-ais-to,la-ka-bua-is-to,-0.351851852,-0.111111111,1,0,0,1.231,text_option_1,,0,24,24,41,1
6140aaf2f4055ef0aacd08e3,63f3cfca20052e4ae7554ebf,6453c746ecaa510ba1f2c895,2023-05-04_16h55.34.777,ga_syllabified_check,2022.2.5,Win32,6.642576257,,,,,,,,,,,,,,./stim/p06_syllable_1_nhiape_hit.wav,p06,ñiape,hit,nhi-a-pe,ñia-pe,ñi-a-pe, ,0.368518519,-0.102777778,1,0,0,3.0909,text_option_2,,0,25,25,125,1
6140aaf2f4055ef0aacd08e3,63f3cfca20052e4ae7554ebf,6453c746ecaa510ba1f2c895,2023-05-04_16h55.34.777,ga_syllabified_check,2022.2.5,Win32,6.642576257,,,,,,,,,,,,,,./stim/p06_syllable_1_costonhialo_hit.wav,p06,costoñialo,hit,cos-to-nhia-lo,cos-to-ñia-lo,cos-to-ñi-a-lo, ,-0.362037037,-0.102777778,1,0,0,2.6382,text_option_1,,0,26,26,103,1
6140aaf2f4055ef0aacd08e3,63f3cfca20052e4ae7554ebf,6453c746ecaa510ba1f2c895,2023-05-04_16h55.34.777,ga_syllabified_check,2022.2.5,Win32,6.642576257,,,,,,,,,,,,,,./stim/p07_syllable_1_lakatiaisto_hit.wav,p07,lakatiaisto,hit,la-ka-tiai-sto,la-ka-tiais-to,la-ka-ti-ais-to,la-ka-tia-is-to,0.048148148,-0.105555556,1,0,0,4.8272,text_option_3,,0,27,27,154,1
6140aaf2f4055ef0aacd08e3,63f3cfca20052e4ae7554ebf,6453c746ecaa510ba1f2c895,2023-05-04_16h55.34.777,ga_syllabified_check,2022.2.5,Win32,6.642576257,,,,,,,,,,,,,,./stim/p06_syllable_1_lakaduaisto_hit.wav,p06,lakaduaisto,hit,la-ka-du-a-is,la-ka-duais-to,la-ka-du-ais-to,la-ka-dua-is-to,0.428703704,-0.110185185,1,0,0,4.7023,text_option_2,,0,28,28,111,1
6140aaf2f4055ef0aacd08e3,63f3cfca20052e4ae7554ebf,6453c746ecaa510ba1f2c895,2023-05-04_16h55.34.777,ga_syllabified_check,2022.2.5,Win32,6.642576257,,,,,,,,,,,,,,./stim/p03_syllable_1_payielo_hit.wav,p03,payielo,hit,pa-yie-lo,pa-yie-lo,pa-yi-e-lo, ,-0.383333333,-0.111111111,1,0,0,2.2125,text_option_1,,0,29,29,30,1
6140aaf2f4055ef0aacd08e3,63f3cfca20052e4ae7554ebf,6453c746ecaa510ba1f2c895,2023-05-04_16h55.34.777,ga_syllabified_check,2022.2.5,Win32,6.642576257,,,,,,,,,,,,,,./stim/p08_syllable_1_manhiala_hit.wav,p08,mañiala,hit,ma-nhia-la,ma-ñia-la,ma-ñi-a-la, ,-0.377777778,-0.102777778,1,0,0,3.3801,text_option_1,,0,30,30,191,1
6140aaf2f4055ef0aacd08e3,63f3cfca20052e4ae7554ebf,6453c746ecaa510ba1f2c895,2023-05-04_16h55.34.777,ga_syllabified_check,2022.2.5,Win32,6.642576257,,,,,,,,,,,,,,./stim/p03_syllable_1_palutrauco_hit.wav,p03,palutrauco,hit,pa-lu-trau-co,pa-lu-trau-co,pa-lu-tra-u-co, ,-0.384259259,-0.097222222,1,0,0,1.7285,text_option_1,,0,31,31,29,1
6140aaf2f4055ef0aacd08e3,63f3cfca20052e4ae7554ebf,6453c746ecaa510ba1f2c895,2023-05-04_16h55.34.777,ga_syllabified_check,2022.2.5,Win32,6.642576257,,,,,,,,,,,,,,./stim/p04_syllable_1_lakapiaisto_hit.wav,p04,lakapiaisto,hit,la-ka-piais-to,la-ka-piais-to,la-ka-pi-ais-to,la-ka-pia-is-to,-0.369444444,-0.110185185,1,0,0,1.2476,text_option_1,,0,32,32,50,1
6140aaf2f4055ef0aacd08e3,63f3cfca20052e4ae7554ebf,6453c746ecaa510ba1f2c895,2023-05-04_16h55.34.777,ga_syllabified_check,2022.2.5,Win32,6.642576257,,,,,,,,,,,,,,./stim/p06_syllable_1_payielo_hit.wav,p06,payielo,hit,pa-yi-e-lo,pa-yie-lo,pa-yi-e-lo, ,0.397222222,-0.10462963,1,0,0,3.0948,text_option_2,,0,33,33,132,1
6140aaf2f4055ef0aacd08e3,63f3cfca20052e4ae7554ebf,6453c746ecaa510ba1f2c895,2023-05-04_16h55.34.777,ga_syllabified_check,2022.2.5,Win32,6.642576257,,,,,,,,,,,,,,./stim/p03_syllable_1_lakaduaisto_hit.wav,p03,lakaduaisto,hit,la-ka-duais-to,la-ka-duais-to,la-ka-du-ais-to,la-ka-dua-is-to,-0.351851852,-0.097222222,1,0,0,1.7161,text_option_1,,0,34,34,9,1
6140aaf2f4055ef0aacd08e3,63f3cfca20052e4ae7554ebf,6453c746ecaa510ba1f2c895,2023-05-04_16h55.34.777,ga_syllabified_check,2022.2.5,Win32,6.642576257,,,,,,,,,,,,,,./stim/p03_syllable_1_ruyiola_hit.wav,p03,ruyiola,hit,ru-yio-la,ru-yio-la,ru-yi-o-la, ,-0.348148148,-0.103703704,1,0,0,2.0148,text_option_1,,0,35,35,32,1
6140aaf2f4055ef0aacd08e3,63f3cfca20052e4ae7554ebf,6453c746ecaa510ba1f2c895,2023-05-04_16h55.34.777,ga_syllabified_check,2022.2.5,Win32,6.642576257,,,,,,,,,,,,,,./stim/p05_syllable_1_flauro_hit.wav,p05,flauro,hit,fa-lu-ro,flau-ro,fla-u-ro, ,0.050925926,-0.313888889,1,0,0,3.6393,text_option_other,FA-LU-RO,0,36,36,73,1
6140aaf2f4055ef0aacd08e3,63f3cfca20052e4ae7554ebf,6453c746ecaa510ba1f2c895,2023-05-04_16h55.34.777,ga_syllabified_check,2022.2.5,Win32,6.642576257,,,,,,,,,,,,,,./stim/p03_syllable_1_nhiape_hit.wav,p03,ñiape,hit,nhia-pe,ñia-pe,ñi-a-pe, ,-0.374074074,-0.101851852,1,0,0,1.9997,text_option_1,,0,37,37,23,1
6140aaf2f4055ef0aacd08e3,63f3cfca20052e4ae7554ebf,6453c746ecaa510ba1f2c895,2023-05-04_16h55.34.777,ga_syllabified_check,2022.2.5,Win32,6.642576257,,,,,,,,,,,,,,./stim/p04_syllable_1_ruyiola_hit.wav,p04,ruyiola,hit,ru-yio-la,ru-yio-la,ru-yi-o-la, ,-0.376851852,-0.105555556,1,0,0,1.0835,text_option_1,,0,38,38,66,1
6140aaf2f4055ef0aacd08e3,63f3cfca20052e4ae7554ebf,6453c746ecaa510ba1f2c895,2023-05-04_16h55.34.777,ga_syllabified_check,2022.2.5,Win32,6.642576257,,,,,,,,,,,,,,./stim/p03_syllable_1_lakafuaisto_hit.wav,p03,lakafuaisto,hit,la-ka-fuais-to,la-ka-fuais-to,la-ka-fu-ais-to,la-ka-fua-is-to,-0.376851852,-0.105555556,1,0,0,1.5508,text_option_1,,0,39,39,11,1
6140aaf2f4055ef0aacd08e3,63f3cfca20052e4ae7554ebf,6453c746ecaa510ba1f2c895,2023-05-04_16h55.34.777,ga_syllabified_check,2022.2.5,Win32,6.642576257,,,,,,,,,,,,,,./stim/p07_syllable_1_costonhialo_hit.wav,p07,costoñialo,hit,cos-to-nhia-lo,cos-to-ñia-lo,cos-to-ñi-a-lo, ,0.437962963,-0.118518519,1,0,0,2.5016,text_option_2,,0,40,40,137,1
6140aaf2f4055ef0aacd08e3,63f3cfca20052e4ae7554ebf,6453c746ecaa510ba1f2c895,2023-05-04_16h55.34.777,ga_syllabified_check,2022.2.5,Win32,6.642576257,,,,,,,,,,,,,,./stim/p08_syllable_1_payielo_hit.wav,p08,payielo,hit,pa-yie-lo,pa-yie-lo,pa-yi-e-lo, ,-0.391666667,-0.109259259,1,0,0,2.4882,text_option_1,,0,41,41,200,1
6140aaf2f4055ef0aacd08e3,63f3cfca20052e4ae7554ebf,6453c746ecaa510ba1f2c895,2023-05-04_16h55.34.777,ga_syllabified_check,2022.2.5,Win32,6.642576257,,,,,,,,,,,,,,./stim/p06_syllable_1_palutrauco_hit.wav,p06,palutrauco,hit,pa-lu-tra-u-co,pa-lu-trau-co,pa-lu-tra-u-co, ,0.450925926,-0.105555556,1,0,0,3.4423,text_option_2,,0,42,42,131,1
6140aaf2f4055ef0aacd08e3,63f3cfca20052e4ae7554ebf,6453c746ecaa510ba1f2c895,2023-05-04_16h55.34.777,ga_syllabified_check,2022.2.5,Win32,6.642576257,,,,,,,,,,,,,,./stim/p08_syllable_1_nhiape_hit.wav,p08,ñiape,hit,ni-a-pe,ñia-pe,ñi-a-pe, ,0.431481481,-0.112037037,1,0,0,1.6811,text_option_2,,0,43,43,193,1
6140aaf2f4055ef0aacd08e3,63f3cfca20052e4ae7554ebf,6453c746ecaa510ba1f2c895,2023-05-04_16h55.34.777,ga_syllabified_check,2022.2.5,Win32,6.642576257,,,,,,,,,,,,,,./stim/p03_syllable_1_lakafiaisto_hit.wav,p03,lakafiaisto,hit,la-ka-fiais-to,la-ka-fiais-to,la-ka-fi-ais-to,la-ka-fia-is-to,-0.339814815,-0.112962963,1,0,0,2.3455,text_option_1,,0,44,44,10,1
6140aaf2f4055ef0aacd08e3,63f3cfca20052e4ae7554ebf,6453c746ecaa510ba1f2c895,2023-05-04_16h55.34.777,ga_syllabified_check,2022.2.5,Win32,6.642576257,,,,,,,,,,,,,,./stim/p08_syllable_1_falutraigo_hit.wav,p08,falutraigo,hit,fa-lu-trai-go,fa-lu-trai-go,fa-lu-tra-i-go, ,-0.337037037,-0.1,1,0,0,2.8067,text_option_1,,0,45,45,174,1
6140aaf2f4055ef0aacd08e3,63f3cfca20052e4ae7554ebf,6453c746ecaa510ba1f2c895,2023-05-04_16h55.34.777,ga_syllabified_check,2022.2.5,Win32,6.642576257,,,,,,,,,,,,,,./stim/p03_syllable_1_falufaisto_hit.wav,p03,falufaisto,hit,fa-lu-fais-to,fa-lu-fais-to,fa-lu-fa-is-to, ,-0.331481481,-0.102777778,1,0,0,3.7182,text_option_1,,0,46,46,3,1
6140aaf2f4055ef0aacd08e3,63f3cfca20052e4ae7554ebf,6453c746ecaa510ba1f2c895,2023-05-04_16h55.34.777,ga_syllabified_check,2022.2.5,Win32,6.642576257,,,,,,,,,,,,,,./stim/p04_syllable_1_lakakiaisto_hit.wav,p04,lakakiaisto,hit,la-ka-kiais-to,la-ka-kiais-to,la-ka-ki-ais-to,la-ka-kia-is-to,-0.32962963,-0.106481481,1,0,0,1.8588,text_option_1,,0,47,47,48,1
6140aaf2f4055ef0aacd08e3,63f3cfca20052e4ae7554ebf,6453c746ecaa510ba1f2c895,2023-05-04_16h55.34.777,ga_syllabified_check,2022.2.5,Win32,6.642576257,,,,,,,,,,,,,,./stim/p07_syllable_1_lakatuaisto_hit.wav,p07,lakatuaisto,hit,la-ka-tuais-to,la-ka-tuais-to,la-ka-tu-ais-to,la-ka-tua-is-to,-0.316666667,-0.106481481,1,0,0,2.5369,text_option_1,,0,48,48,155,1
6140aaf2f4055ef0aacd08e3,63f3cfca20052e4ae7554ebf,6453c746ecaa510ba1f2c895,2023-05-04_16h55.34.777,ga_syllabified_check,2022.2.5,Win32,6.642576257,,,,,,,,,,,,,,./stim/p08_syllable_1_faluduako_hit.wav,p08,faluduako,hit,fa-lu-duai-ko,fa-lu-dua-ko,fa-lu-du-a-ko, ,-0.324074074,-0.102777778,1,0,0,3.09,text_option_1,,0,49,49,172,1
6140aaf2f4055ef0aacd08e3,63f3cfca20052e4ae7554ebf,6453c746ecaa510ba1f2c895,2023-05-04_16h55.34.777,ga_syllabified_check,2022.2.5,Win32,6.642576257,,,,,,,,,,,,,,./stim/p07_syllable_1_pachialo_hit.wav,p07,pachialo,hit,pa-cha-lo,pa-chia-lo,pa-chi-a-lo, ,-0.333333333,-0.103703704,1,0,0,2.1714,text_option_1,,0,50,50,160,1
6140aaf2f4055ef0aacd08e3,63f3cfca20052e4ae7554ebf,6453c746ecaa510ba1f2c895,2023-05-04_16h55.34.777,ga_syllabified_check,2022.2.5,Win32,6.642576257,,,,,,,,,,,,,,./stim/p07_syllable_1_rausto_hit.wav,p07,rausto,hit,raus-to,raus-to,ra-us-to, ,-0.371296296,-0.10462963,1,0,0,3.5341,text_option_1,,0,51,51,167,1
6140aaf2f4055ef0aacd08e3,63f3cfca20052e4ae7554ebf,6453c746ecaa510ba1f2c895,2023-05-04_16h55.34.777,ga_syllabified_check,2022.2.5,Win32,6.642576257,,,,,,,,,,,,,,./stim/p03_syllable_1_lakaguaisto_hit.wav,p03,lakaguaisto,hit,la-ka-guais-to,la-ka-guais-to,la-ka-gu-ais-to,la-ka-gua-is-to,-0.378703704,-0.101851852,1,0,0,1.7272,text_option_1,,0,52,52,13,1
6140aaf2f4055ef0aacd08e3,63f3cfca20052e4ae7554ebf,6453c746ecaa510ba1f2c895,2023-05-04_16h55.34.777,ga_syllabified_check,2022.2.5,Win32,6.642576257,,,,,,,,,,,,,,./stim/p07_syllable_1_lakabuaisto_hit.wav,p07,lakabuaisto,hit,la-ka-buais-to,la-ka-buais-to,la-ka-bu-ais-to,la-ka-bua-is-to,-0.371296296,-0.108333333,1,0,0,2.4642,text_option_1,,0,53,53,143,1
6140aaf2f4055ef0aacd08e3,63f3cfca20052e4ae7554ebf,6453c746ecaa510ba1f2c895,2023-05-04_16h55.34.777,ga_syllabified_check,2022.2.5,Win32,6.642576257,,,,,,,,,,,,,,./stim/p03_syllable_1_lakakuaisto_hit.wav,p03,lakakuaisto,hit,la-ka-kuais-to,la-ka-kuais-to,la-ka-ku-ais-to,la-ka-kua-is-to,-0.371296296,-0.108333333,1,0,0,2.1611,text_option_1,,0,54,54,15,1
6140aaf2f4055ef0aacd08e3,63f3cfca20052e4ae7554ebf,6453c746ecaa510ba1f2c895,2023-05-04_16h55.34.777,ga_syllabified_check,2022.2.5,Win32,6.642576257,,,,,,,,,,,,,,./stim/p06_syllable_1_flauro_hit.wav,p06,flauro,hit,fla-u-ro,flau-ro,fla-u-ro, ,0.418518519,-0.108333333,1,0,0,2.3374,text_option_2,,0,55,55,107,1
6140aaf2f4055ef0aacd08e3,63f3cfca20052e4ae7554ebf,6453c746ecaa510ba1f2c895,2023-05-04_16h55.34.777,ga_syllabified_check,2022.2.5,Win32,6.642576257,,,,,,,,,,,,,,./stim/p05_syllable_1_mebochiana_hit.wav,p05,mebochiana,hit,me-cho-chai-na,me-bo-chia-na,me-bo-chi-a-na, ,0.032407407,-0.309259259,1,0,0,1.8672,text_option_other,ME-CHO-CHAI-NA,0,56,56,90,1
6140aaf2f4055ef0aacd08e3,63f3cfca20052e4ae7554ebf,6453c746ecaa510ba1f2c895,2023-05-04_16h55.34.777,ga_syllabified_check,2022.2.5,Win32,6.642576257,,,,,,,,,,,,,,./stim/p05_syllable_1_lakafiaisto_hit.wav,p05,lakafiaisto,hit,la-ka-fi-ais-to,la-ka-fiais-to,la-ka-fi-ais-to,la-ka-fia-is-to,0.032407407,-0.100925926,1,0,0,2.2012,text_option_3,,0,57,57,78,1
6140aaf2f4055ef0aacd08e3,63f3cfca20052e4ae7554ebf,6453c746ecaa510ba1f2c895,2023-05-04_16h55.34.777,ga_syllabified_check,2022.2.5,Win32,6.642576257,,,,,,,,,,,,,,./stim/p08_syllable_1_costonhialo_hit.wav,p08,costoñialo,hit,cos-to-nhia-lo,cos-to-ñia-lo,cos-to-ñi-a-lo, ,-0.352777778,-0.102777778,1,0,0,3.3955,text_option_1,,0,58,58,171,1
6140aaf2f4055ef0aacd08e3,63f3cfca20052e4ae7554ebf,6453c746ecaa510ba1f2c895,2023-05-04_16h55.34.777,ga_syllabified_check,2022.2.5,Win32,6.642576257,,,,,,,,,,,,,,./stim/p05_syllable_1_palutrauco_hit.wav,p05,palutrauco,hit,pa-lu-trai-co,pa-lu-trau-co,pa-lu-tra-u-co, ,-0.363888889,-0.109259259,1,0,0,3.1467,text_option_1,,0,59,59,97,1
6140aaf2f4055ef0aacd08e3,63f3cfca20052e4ae7554ebf,6453c746ecaa510ba1f2c895,2023-05-04_16h55.34.777,ga_syllabified_check,2022.2.5,Win32,6.642576257,,,,,,,,,,,,,,./stim/p08_syllable_1_chiaba_hit.wav,p08,chiaba,hit,chi-a-ba,chia-ba,chi-a-ba, ,0.375925926,-0.109259259,1,0,0,1.6914,text_option_2,,0,60,60,170,1
6140aaf2f4055ef0aacd08e3,63f3cfca20052e4ae7554ebf,6453c746ecaa510ba1f2c895,2023-05-04_16h55.34.777,ga_syllabified_check,2022.2.5,Win32,6.642576257,,,,,,,,,,,,,,./stim/p05_syllable_1_falufaisto_hit.wav,p05,falufaisto,hit,fa-lu-fais-to,fa-lu-fais-to,fa-lu-fa-is-to, ,-0.357407407,-0.101851852,1,0,0,3.2981,text_option_1,,0,61,61,71,1
6140aaf2f4055ef0aacd08e3,63f3cfca20052e4ae7554ebf,6453c746ecaa510ba1f2c895,2023-05-04_16h55.34.777,ga_syllabified_check,2022.2.5,Win32,6.642576257,,,,,,,,,,,,,,./stim/p07_syllable_1_falutraigo_hit.wav,p07,falutraigo,hit,fa-lu-trai-go,fa-lu-trai-go,fa-lu-tra-i-go, ,-0.358333333,-0.100925926,1,0,0,2.6427,text_option_1,,0,62,62,140,1
6140aaf2f4055ef0aacd08e3,63f3cfca20052e4ae7554ebf,6453c746ecaa510ba1f2c895,2023-05-04_16h55.34.777,ga_syllabified_check,2022.2.5,Win32,6.642576257,,,,,,,,,,,,,,./stim/p05_syllable_1_lakatuaisto_hit.wav,p05,lakatuaisto,hit,la-ka-tais-to,la-ka-tuais-to,la-ka-tu-ais-to,la-ka-tua-is-to,-0.346296296,-0.108333333,1,0,0,1.5639,text_option_1,,0,63,63,87,1
6140aaf2f4055ef0aacd08e3,63f3cfca20052e4ae7554ebf,6453c746ecaa510ba1f2c895,2023-05-04_16h55.34.777,ga_syllabified_check,2022.2.5,Win32,6.642576257,,,,,,,,,,,,,,./stim/p04_syllable_1_lakagiaisto_hit.wav,p04,lakagiaisto,hit,la-ka-giais-to,la-ka-giais-to,la-ka-gi-ais-to,la-ka-gia-is-to,-0.357407407,-0.108333333,1,0,0,1.8674,text_option_1,,0,64,64,46,1
6140aaf2f4055ef0aacd08e3,63f3cfca20052e4ae7554ebf,6453c746ecaa510ba1f2c895,2023-05-04_16h55.34.777,ga_syllabified_check,2022.2.5,Win32,6.642576257,,,,,,,,,,,,,,./stim/p08_syllable_1_ruyiola_hit.wav,p08,ruyiola,hit,ru-yio-la,ru-yio-la,ru-yi-o-la, ,-0.381481481,-0.106481481,1,0,0,2.4446,text_option_1,,0,65,65,202,1
6140aaf2f4055ef0aacd08e3,63f3cfca20052e4ae7554ebf,6453c746ecaa510ba1f2c895,2023-05-04_16h55.34.777,ga_syllabified_check,2022.2.5,Win32,6.642576257,,,,,,,,,,,,,,./stim/p04_syllable_1_mebochiana_hit.wav,p04,mebochiana,hit,me-bo-chia-na,me-bo-chia-na,me-bo-chi-a-na, ,-0.378703704,-0.106481481,1,0,0,1.8518,text_option_1,,0,66,66,56,1
6140aaf2f4055ef0aacd08e3,63f3cfca20052e4ae7554ebf,6453c746ecaa510ba1f2c895,2023-05-04_16h55.34.777,ga_syllabified_check,2022.2.5,Win32,6.642576257,,,,,,,,,,,,,,./stim/p06_syllable_1_manhiala_hit.wav,p06,mañiala,hit,ma-nhi-a-la,ma-ñia-la,ma-ñi-a-la, ,0.394444444,-0.098148148,1,0,0,2.4957,text_option_2,,0,67,67,123,1
6140aaf2f4055ef0aacd08e3,63f3cfca20052e4ae7554ebf,6453c746ecaa510ba1f2c895,2023-05-04_16h55.34.777,ga_syllabified_check,2022.2.5,Win32,6.642576257,,,,,,,,,,,,,,./stim/p04_syllable_1_payielo_hit.wav,p04,payielo,hit,pa-yie-lo,pa-yie-lo,pa-yi-e-lo, ,-0.387962963,-0.108333333,1,0,0,1.6877,text_option_1,,0,68,68,64,1
6140aaf2f4055ef0aacd08e3,63f3cfca20052e4ae7554ebf,6453c746ecaa510ba1f2c895,2023-05-04_16h55.34.777,ga_syllabified_check,2022.2.5,Win32,6.642576257,,,,,,,,,,,,,,./stim/p05_syllable_1_lakatiaisto_hit.wav,p05,lakatiaisto,hit,la-ka-ti-ais-to,la-ka-tiais-to,la-ka-ti-ais-to,la-ka-tia-is-to,-0.376851852,-0.099074074,1,0,0,3.2439,text_option_1,,0,69,69,86,1
6140aaf2f4055ef0aacd08e3,63f3cfca20052e4ae7554ebf,6453c746ecaa510ba1f2c895,2023-05-04_16h55.34.777,ga_syllabified_check,2022.2.5,Win32,6.642576257,,,,,,,,,,,,,,./stim/p05_syllable_1_rausto_hit.wav,p05,rausto,hit,raus-to,raus-to,ra-us-to, ,-0.369444444,-0.094444444,1,0,0,1.2208,text_option_1,,0,70,70,99,1
6140aaf2f4055ef0aacd08e3,63f3cfca20052e4ae7554ebf,6453c746ecaa510ba1f2c895,2023-05-04_16h55.34.777,ga_syllabified_check,2022.2.5,Win32,6.642576257,,,,,,,,,,,,,,./stim/p04_syllable_1_palufauro_hit.wav,p04,palufauro,hit,pa-lu-fau-ro,pa-lu-fau-ro,pa-lu-fa-u-ro, ,-0.325,-0.10462963,1,0,0,1.3944,text_option_1,,0,71,71,59,1
6140aaf2f4055ef0aacd08e3,63f3cfca20052e4ae7554ebf,6453c746ecaa510ba1f2c895,2023-05-04_16h55.34.777,ga_syllabified_check,2022.2.5,Win32,6.642576257,,,,,,,,,,,,,,./stim/p04_syllable_1_lakaduaisto_hit.wav,p04,lakaduaisto,hit,la-ka-duais-to,la-ka-duais-to,la-ka-du-ais-to,la-ka-dua-is-to,-0.334259259,-0.105555556,1,0,0,0.9683,text_option_1,,0,72,72,43,1
6140aaf2f4055ef0aacd08e3,63f3cfca20052e4ae7554ebf,6453c746ecaa510ba1f2c895,2023-05-04_16h55.34.777,ga_syllabified_check,2022.2.5,Win32,6.642576257,,,,,,,,,,,,,,./stim/p08_syllable_1_lakaduaisto_hit.wav,p08,lakaduaisto,hit,la-ka-du-ais-to,la-ka-duais-to,la-ka-du-ais-to,la-ka-dua-is-to,0.065740741,-0.108333333,1,0,0,2.7975,text_option_3,,0,73,73,179,1
6140aaf2f4055ef0aacd08e3,63f3cfca20052e4ae7554ebf,6453c746ecaa510ba1f2c895,2023-05-04_16h55.34.777,ga_syllabified_check,2022.2.5,Win32,6.642576257,,,,,,,,,,,,,,./stim/p03_syllable_1_paluguato_hit.wav,p03,paluguato,hit,pa-lu-gua,pa-lu-gua-to,pa-lu-gu-a-to, ,-0.344444444,-0.10462963,1,0,0,1.3003,text_option_1,,0,74,74,27,1
6140aaf2f4055ef0aacd08e3,63f3cfca20052e4ae7554ebf,6453c746ecaa510ba1f2c895,2023-05-04_16h55.34.777,ga_syllabified_check,2022.2.5,Win32,6.642576257,,,,,,,,,,,,,,./stim/p05_syllable_1_lakabiaisto_hit.wav,p05,lakabiaisto,hit,la-ka-bi-ais-to,la-ka-biais-to,la-ka-bi-ais-to,la-ka-bia-is-to,0.382407407,-0.107407407,1,0,0,3.4941,text_option_2,,0,75,75,74,1
6140aaf2f4055ef0aacd08e3,63f3cfca20052e4ae7554ebf,6453c746ecaa510ba1f2c895,2023-05-04_16h55.34.777,ga_syllabified_check,2022.2.5,Win32,6.642576257,,,,,,,,,,,,,,./stim/p05_syllable_1_lliape_hit.wav,p05,lliape,hit,liai-pe,llia-pe,lli-a-pe, ,-0.055555556,-0.319444444,1,0,0,1.6094,text_option_other,LLAI-PE,0,76,76,88,1
6140aaf2f4055ef0aacd08e3,63f3cfca20052e4ae7554ebf,6453c746ecaa510ba1f2c895,2023-05-04_16h55.34.777,ga_syllabified_check,2022.2.5,Win32,6.642576257,,,,,,,,,,,,,,./stim/p04_syllable_1_pachialo_hit.wav,p04,pachialo,hit,pa-chia-lo,pa-chia-lo,pa-chi-a-lo, ,-0.388888889,-0.109259259,1,0,0,1.1266,text_option_1,,0,77,77,58,1
6140aaf2f4055ef0aacd08e3,63f3cfca20052e4ae7554ebf,6453c746ecaa510ba1f2c895,2023-05-04_16h55.34.777,ga_syllabified_check,2022.2.5,Win32,6.642576257,,,,,,,,,,,,,,./stim/p06_syllable_1_lakabuaisto_hit.wav,p06,lakabuaisto,hit,la-ka-bu-a-is,la-ka-buais-to,la-ka-bu-ais-to,la-ka-bua-is-to,0.055555556,-0.312037037,1,0,0,5.1388,text_option_other,LA-KA-BU-A-IS-TO,0,78,78,109,1
6140aaf2f4055ef0aacd08e3,63f3cfca20052e4ae7554ebf,6453c746ecaa510ba1f2c895,2023-05-04_16h55.34.777,ga_syllabified_check,2022.2.5,Win32,6.642576257,,,,,,,,,,,,,,./stim/p08_syllable_1_lakakuaisto_hit.wav,p08,lakakuaisto,hit,la-ka-ku-ais-to,la-ka-kuais-to,la-ka-ku-ais-to,la-ka-kua-is-to,0.419444444,-0.100925926,1,0,0,5.6414,text_option_2,,0,79,79,185,1
6140aaf2f4055ef0aacd08e3,63f3cfca20052e4ae7554ebf,6453c746ecaa510ba1f2c895,2023-05-04_16h55.34.777,ga_syllabified_check,2022.2.5,Win32,6.642576257,,,,,,,,,,,,,,./stim/p04_syllable_1_paluguato_hit.wav,p04,paluguato,hit,pa-lu-gua,pa-lu-gua-to,pa-lu-gu-a-to, ,-0.062962963,-0.292592593,1,0,0,2.1091,text_option_other,PA-LU-GUA,0,80,80,61,1
6140aaf2f4055ef0aacd08e3,63f3cfca20052e4ae7554ebf,6453c746ecaa510ba1f2c895,2023-05-04_16h55.34.777,ga_syllabified_check,2022.2.5,Win32,6.642576257,,,,,,,,,,,,,,./stim/p05_syllable_1_manhiala_hit.wav,p05,mañiala,hit,ma-nhia-la,ma-ñia-la,ma-ñi-a-la, ,-0.368518519,-0.090740741,1,0,0,2.3666,text_option_1,,0,81,81,89,1
6140aaf2f4055ef0aacd08e3,63f3cfca20052e4ae7554ebf,6453c746ecaa510ba1f2c895,2023-05-04_16h55.34.777,ga_syllabified_check,2022.2.5,Win32,6.642576257,,,,,,,,,,,,,,./stim/p06_syllable_1_pachialo_hit.wav,p06,pachialo,hit,pa-shi-a-lo,pa-chia-lo,pa-chi-a-lo, ,0.442592593,-0.109259259,1,0,0,1.4109,text_option_2,,0,82,82,126,1
6140aaf2f4055ef0aacd08e3,63f3cfca20052e4ae7554ebf,6453c746ecaa510ba1f2c895,2023-05-04_16h55.34.777,ga_syllabified_check,2022.2.5,Win32,6.642576257,,,,,,,,,,,,,,./stim/p08_syllable_1_lakafiaisto_hit.wav,p08,lakafiaisto,hit,la-ka-fi-as-to,la-ka-fiais-to,la-ka-fi-ais-to,la-ka-fia-is-to,0.388888889,-0.091666667,1,0,0,6.5609,text_option_2,,0,83,83,180,1
6140aaf2f4055ef0aacd08e3,63f3cfca20052e4ae7554ebf,6453c746ecaa510ba1f2c895,2023-05-04_16h55.34.777,ga_syllabified_check,2022.2.5,Win32,6.642576257,,,,,,,,,,,,,,./stim/p05_syllable_1_lakapuaisto_hit.wav,p05,lakapuaisto,hit,la-ka-pais-to,la-ka-puais-to,la-ka-pu-ais-to,la-ka-pua-is-to,-0.02037037,-0.316666667,1,0,0,2.3944,text_option_other,LA-KA-PAIS-TO,0,84,84,85,1
6140aaf2f4055ef0aacd08e3,63f3cfca20052e4ae7554ebf,6453c746ecaa510ba1f2c895,2023-05-04_16h55.34.777,ga_syllabified_check,2022.2.5,Win32,6.642576257,,,,,,,,,,,,,,./stim/p07_syllable_1_falufaisto_hit.wav,p07,falufaisto,hit,fa-lu-fais-to,fa-lu-fais-to,fa-lu-fa-is-to, ,-0.322222222,-0.107407407,1,0,0,2.3963,text_option_1,,0,85,85,139,1
6140aaf2f4055ef0aacd08e3,63f3cfca20052e4ae7554ebf,6453c746ecaa510ba1f2c895,2023-05-04_16h55.34.777,ga_syllabified_check,2022.2.5,Win32,6.642576257,,,,,,,,,,,,,,./stim/p06_syllable_1_lakapiaisto_hit.wav,p06,lakapiaisto,hit,la-ka-pia-is-to,la-ka-piais-to,la-ka-pi-ais-to,la-ka-pia-is-to,0.048148148,-0.10462963,1,0,0,4.9113,text_option_3,,0,86,86,118,1
6140aaf2f4055ef0aacd08e3,63f3cfca20052e4ae7554ebf,6453c746ecaa510ba1f2c895,2023-05-04_16h55.34.777,ga_syllabified_check,2022.2.5,Win32,6.642576257,,,,,,,,,,,,,,./stim/p05_syllable_1_lakakiaisto_hit.wav,p05,lakakiaisto,hit,la-ka-ki-ais-to,la-ka-kiais-to,la-ka-ki-ais-to,la-ka-kia-is-to,-0.306481481,-0.102777778,1,0,0,1.5964,text_option_1,,0,87,87,82,1
6140aaf2f4055ef0aacd08e3,63f3cfca20052e4ae7554ebf,6453c746ecaa510ba1f2c895,2023-05-04_16h55.34.777,ga_syllabified_check,2022.2.5,Win32,6.642576257,,,,,,,,,,,,,,./stim/p03_syllable_1_manhiala_hit.wav,p03,mañiala,hit,ma-nhia-la,ma-ñia-la,ma-ñi-a-la, ,-0.343518519,-0.092592593,1,0,0,2.0328,text_option_1,,0,88,88,21,1
6140aaf2f4055ef0aacd08e3,63f3cfca20052e4ae7554ebf,6453c746ecaa510ba1f2c895,2023-05-04_16h55.34.777,ga_syllabified_check,2022.2.5,Win32,6.642576257,,,,,,,,,,,,,,./stim/p07_syllable_1_lakaguaisto_hit.wav,p07,lakaguaisto,hit,la-ka-guais-to,la-ka-guais-to,la-ka-gu-ais-to,la-ka-gua-is-to,-0.337037037,-0.09537037,1,0,0,1.9007,text_option_1,,0,89,89,149,1
6140aaf2f4055ef0aacd08e3,63f3cfca20052e4ae7554ebf,6453c746ecaa510ba1f2c895,2023-05-04_16h55.34.777,ga_syllabified_check,2022.2.5,Win32,6.642576257,,,,,,,,,,,,,,./stim/p04_syllable_1_lakakuaisto_hit.wav,p04,lakakuaisto,hit,la-ka-kuais-to,la-ka-kuais-to,la-ka-ku-ais-to,la-ka-kua-is-to,-0.357407407,-0.113888889,1,0,0,3.0205,text_option_1,,0,90,90,49,1
6140aaf2f4055ef0aacd08e3,63f3cfca20052e4ae7554ebf,6453c746ecaa510ba1f2c895,2023-05-04_16h55.34.777,ga_syllabified_check,2022.2.5,Win32,6.642576257,,,,,,,,,,,,,,./stim/p03_syllable_1_lakakiaisto_hit.wav,p03,lakakiaisto,hit,la-ka-kiais-to,la-ka-kiais-to,la-ka-ki-ais-to,la-ka-kia-is-to,-0.350925926,-0.103703704,1,0,0,2.0787,text_option_1,,0,91,91,14,1
6140aaf2f4055ef0aacd08e3,63f3cfca20052e4ae7554ebf,6453c746ecaa510ba1f2c895,2023-05-04_16h55.34.777,ga_syllabified_check,2022.2.5,Win32,6.642576257,,,,,,,,,,,,,,./stim/p06_syllable_1_lakatuaisto_hit.wav,p06,lakatuaisto,hit,la-ka-tu-a-is,la-ka-tuais-to,la-ka-tu-ais-to,la-ka-tua-is-to,0.332407407,-0.121296296,1,0,0,6.3533,text_option_2,,0,92,92,121,1
6140aaf2f4055ef0aacd08e3,63f3cfca20052e4ae7554ebf,6453c746ecaa510ba1f2c895,2023-05-04_16h55.34.777,ga_syllabified_check,2022.2.5,Win32,6.642576257,,,,,,,,,,,,,,./stim/p05_syllable_1_palufauro_hit.wav,p05,palufauro,hit,pa-lu-fau-ro,pa-lu-fau-ro,pa-lu-fa-u-ro, ,-0.367592593,-0.106481481,1,0,0,3.1524,text_option_1,,0,93,93,93,1
6140aaf2f4055ef0aacd08e3,63f3cfca20052e4ae7554ebf,6453c746ecaa510ba1f2c895,2023-05-04_16h55.34.777,ga_syllabified_check,2022.2.5,Win32,6.642576257,,,,,,,,,,,,,,./stim/p05_syllable_1_ruyiola_hit.wav,p05,ruyiola,hit,ru-yio-la,ru-yio-la,ru-yi-o-la, ,-0.371296296,-0.082407407,1,0,0,3.3215,text_option_1,,0,94,94,100,1
6140aaf2f4055ef0aacd08e3,63f3cfca20052e4ae7554ebf,6453c746ecaa510ba1f2c895,2023-05-04_16h55.34.777,ga_syllabified_check,2022.2.5,Win32,6.642576257,,,,,,,,,,,,,,./stim/p03_syllable_1_lakabiaisto_hit.wav,p03,lakabiaisto,hit,la-ka-biais-to,la-ka-biais-to,la-ka-bi-ais-to,la-ka-bia-is-to,-0.377777778,-0.098148148,1,0,0,2.0507,text_option_1,,0,95,95,6,1
6140aaf2f4055ef0aacd08e3,63f3cfca20052e4ae7554ebf,6453c746ecaa510ba1f2c895,2023-05-04_16h55.34.777,ga_syllabified_check,2022.2.5,Win32,6.642576257,,,,,,,,,,,,,,./stim/p07_syllable_1_nhiape_hit.wav,p07,ñiape,hit,nhia-pe,ñia-pe,ñi-a-pe, ,-0.448148148,-0.101851852,1,0,0,2.0521,text_option_1,,0,96,96,159,1
6140aaf2f4055ef0aacd08e3,63f3cfca20052e4ae7554ebf,6453c746ecaa510ba1f2c895,2023-05-04_16h55.34.777,ga_syllabified_check,2022.2.5,Win32,6.642576257,,,,,,,,,,,,,,./stim/p06_syllable_1_lakatiaisto_hit.wav,p06,lakatiaisto,hit,la-ka-pia-is-to,la-ka-tiais-to,la-ka-ti-ais-to,la-ka-tia-is-to,0.025,-0.102777778,1,0,0,3.3239,text_option_3,,0,97,97,120,1
6140aaf2f4055ef0aacd08e3,63f3cfca20052e4ae7554ebf,6453c746ecaa510ba1f2c895,2023-05-04_16h55.34.777,ga_syllabified_check,2022.2.5,Win32,6.642576257,,,,,,,,,,,,,,./stim/p03_syllable_1_faluduako_hit.wav,p03,faluduako,hit,fa-lu-dua-ko,fa-lu-dua-ko,fa-lu-du-a-ko, ,-0.389814815,-0.107407407,1,0,0,3.6012,text_option_1,,0,98,98,2,1
6140aaf2f4055ef0aacd08e3,63f3cfca20052e4ae7554ebf,6453c746ecaa510ba1f2c895,2023-05-04_16h55.34.777,ga_syllabified_check,2022.2.5,Win32,6.642576257,,,,,,,,,,,,,,./stim/p06_syllable_1_ruyiola_hit.wav,p06,ruyiola,hit,ru-yi-o-la,ru-yio-la,ru-yi-o-la, ,0.44537037,-0.102777778,1,0,0,2.2737,text_option_2,,0,99,99,134,1
6140aaf2f4055ef0aacd08e3,63f3cfca20052e4ae7554ebf,6453c746ecaa510ba1f2c895,2023-05-04_16h55.34.777,ga_syllabified_check,2022.2.5,Win32,6.642576257,,,,,,,,,,,,,,./stim/p05_syllable_1_lakakuaisto_hit.wav,p05,lakakuaisto,hit,la-ka-kais-to,la-ka-kuais-to,la-ka-ku-ais-to,la-ka-kua-is-to,-0.32037037,-0.113888889,1,0,0,2.5627,text_option_1,,0,100,100,83,1
6140aaf2f4055ef0aacd08e3,63f3cfca20052e4ae7554ebf,6453c746ecaa510ba1f2c895,2023-05-04_16h55.34.777,ga_syllabified_check,2022.2.5,Win32,6.642576257,,,,,,,,,,,,,,./stim/p06_syllable_1_palumaisto_hit.wav,p06,palumaisto,hit,pa-lu-ma-is-to,pa-lu-mais-to,pa-lu-ma-is-to, ,0.390740741,-0.107407407,1,0,0,3.4503,text_option_2,,0,101,101,130,1
6140aaf2f4055ef0aacd08e3,63f3cfca20052e4ae7554ebf,6453c746ecaa510ba1f2c895,2023-05-04_16h55.34.777,ga_syllabified_check,2022.2.5,Win32,6.642576257,,,,,,,,,,,,,,./stim/p08_syllable_1_palumaisto_hit.wav,p08,palumaisto,hit,pa-lu-mais-to,pa-lu-mais-to,pa-lu-ma-is-to, ,-0.39537037,-0.110185185,1,0,0,3.0498,text_option_1,,0,102,102,198,1
6140aaf2f4055ef0aacd08e3,63f3cfca20052e4ae7554ebf,6453c746ecaa510ba1f2c895,2023-05-04_16h55.34.777,ga_syllabified_check,2022.2.5,Win32,6.642576257,,,,,,,,,,,,,,./stim/p06_syllable_1_palufauro_hit.wav,p06,palufauro,hit,pa-lu-fau-ro,pa-lu-fau-ro,pa-lu-fa-u-ro, ,0.375,-0.100925926,1,0,0,4.7605,text_option_2,,0,103,103,127,1
6140aaf2f4055ef0aacd08e3,63f3cfca20052e4ae7554ebf,6453c746ecaa510ba1f2c895,2023-05-04_16h55.34.777,ga_syllabified_check,2022.2.5,Win32,6.642576257,,,,,,,,,,,,,,./stim/p07_syllable_1_payielo_hit.wav,p07,payielo,hit,pa-yie-lo,pa-yie-lo,pa-yi-e-lo, ,-0.380555556,-0.108333333,1,0,0,1.5726,text_option_1,,0,104,104,166,1
6140aaf2f4055ef0aacd08e3,63f3cfca20052e4ae7554ebf,6453c746ecaa510ba1f2c895,2023-05-04_16h55.34.777,ga_syllabified_check,2022.2.5,Win32,6.642576257,,,,,,,,,,,,,,./stim/p08_syllable_1_palutrauco_hit.wav,p08,palutrauco,hit,pa-lu-trau-ko,pa-lu-trau-co,pa-lu-tra-u-co, ,-0.361111111,-0.1,1,0,0,2.849,text_option_1,,0,105,105,199,1
6140aaf2f4055ef0aacd08e3,63f3cfca20052e4ae7554ebf,6453c746ecaa510ba1f2c895,2023-05-04_16h55.34.777,ga_syllabified_check,2022.2.5,Win32,6.642576257,,,,,,,,,,,,,,./stim/p06_syllable_1_chiaba_hit.wav,p06,chiaba,hit,chi-a-ba,chia-ba,chi-a-ba, ,-0.355555556,-0.097222222,1,0,0,3.8303,text_option_1,,0,106,106,102,1
6140aaf2f4055ef0aacd08e3,63f3cfca20052e4ae7554ebf,6453c746ecaa510ba1f2c895,2023-05-04_16h55.34.777,ga_syllabified_check,2022.2.5,Win32,6.642576257,,,,,,,,,,,,,,./stim/p07_syllable_1_paluguato_hit.wav,p07,paluguato,hit,pa-lu-gua-to,pa-lu-gua-to,pa-lu-gu-a-to, ,-0.381481481,-0.096296296,1,0,0,3.2652,text_option_1,,0,107,107,163,1
6140aaf2f4055ef0aacd08e3,63f3cfca20052e4ae7554ebf,6453c746ecaa510ba1f2c895,2023-05-04_16h55.34.777,ga_syllabified_check,2022.2.5,Win32,6.642576257,,,,,,,,,,,,,,./stim/p03_syllable_1_lakapiaisto_hit.wav,p03,lakapiaisto,hit,la-ka-piais-to,la-ka-piais-to,la-ka-pi-ais-to,la-ka-pia-is-to,-0.360185185,-0.10462963,1,0,0,1.4477,text_option_1,,0,108,108,16,1
6140aaf2f4055ef0aacd08e3,63f3cfca20052e4ae7554ebf,6453c746ecaa510ba1f2c895,2023-05-04_16h55.34.777,ga_syllabified_check,2022.2.5,Win32,6.642576257,,,,,,,,,,,,,,./stim/p08_syllable_1_falufaisto_hit.wav,p08,falufaisto,hit,fa-lu-fais-to,fa-lu-fais-to,fa-lu-fa-is-to, ,-0.364814815,-0.10462963,1,0,0,2.6745,text_option_1,,0,109,109,173,1
6140aaf2f4055ef0aacd08e3,63f3cfca20052e4ae7554ebf,6453c746ecaa510ba1f2c895,2023-05-04_16h55.34.777,ga_syllabified_check,2022.2.5,Win32,6.642576257,,,,,,,,,,,,,,./stim/p07_syllable_1_palumaisto_hit.wav,p07,palumaisto,hit,pa-lu-mais-to,pa-lu-mais-to,pa-lu-ma-is-to, ,-0.356481481,-0.1,1,0,0,2.8071,text_option_1,,0,110,110,164,1
6140aaf2f4055ef0aacd08e3,63f3cfca20052e4ae7554ebf,6453c746ecaa510ba1f2c895,2023-05-04_16h55.34.777,ga_syllabified_check,2022.2.5,Win32,6.642576257,,,,,,,,,,,,,,./stim/p07_syllable_1_lakakuaisto_hit.wav,p07,lakakuaisto,hit,la-ka-kuais-to,la-ka-kuais-to,la-ka-ku-ais-to,la-ka-kua-is-to,-0.413888889,-0.103703704,1,0,0,4.1114,text_option_1,,0,111,111,151,1
6140aaf2f4055ef0aacd08e3,63f3cfca20052e4ae7554ebf,6453c746ecaa510ba1f2c895,2023-05-04_16h55.34.777,ga_syllabified_check,2022.2.5,Win32,6.642576257,,,,,,,,,,,,,,./stim/p07_syllable_1_lakagiaisto_hit.wav,p07,lakagiaisto,hit,la-ka-gais-to,la-ka-giais-to,la-ka-gi-ais-to,la-ka-gia-is-to,-0.407407407,-0.1,1,0,0,2.2111,text_option_1,,0,112,112,148,1
6140aaf2f4055ef0aacd08e3,63f3cfca20052e4ae7554ebf,6453c746ecaa510ba1f2c895,2023-05-04_16h55.34.777,ga_syllabified_check,2022.2.5,Win32,6.642576257,,,,,,,,,,,,,,./stim/p06_syllable_1_falutraigo_hit.wav,p06,falutraigo,hit,fa-lu-tra-i-go,fa-lu-trai-go,fa-lu-tra-i-go, ,0.418518519,-0.106481481,1,0,0,4.2722,text_option_2,,0,113,113,106,1
6140aaf2f4055ef0aacd08e3,63f3cfca20052e4ae7554ebf,6453c746ecaa510ba1f2c895,2023-05-04_16h55.34.777,ga_syllabified_check,2022.2.5,Win32,6.642576257,,,,,,,,,,,,,,./stim/p05_syllable_1_payielo_hit.wav,p05,payielo,hit,pai-yu-we-lo,pa-yie-lo,pa-yi-e-lo, ,-0.350925926,-0.100925926,1,0,0,4.6843,text_option_1,,0,114,114,98,1
6140aaf2f4055ef0aacd08e3,63f3cfca20052e4ae7554ebf,6453c746ecaa510ba1f2c895,2023-05-04_16h55.34.777,ga_syllabified_check,2022.2.5,Win32,6.642576257,,,,,,,,,,,,,,./stim/p08_syllable_1_palufauto_hit.wav,p08,palufauto,hit,pa-lu-fau-to,pa-lu-fau-to,pa-lu-fa-u-to, ,-0.357407407,-0.10462963,1,0,0,3.1576,text_option_1,,0,115,115,196,1
6140aaf2f4055ef0aacd08e3,63f3cfca20052e4ae7554ebf,6453c746ecaa510ba1f2c895,2023-05-04_16h55.34.777,ga_syllabified_check,2022.2.5,Win32,6.642576257,,,,,,,,,,,,,,./stim/p07_syllable_1_lakafuaisto_hit.wav,p07,lakafuaisto,hit,la-ka-fuais-to,la-ka-fuais-to,la-ka-fu-ais-to,la-ka-fua-is-to,-0.357407407,-0.10462963,1,0,0,2.3509,text_option_1,,0,116,116,147,1
6140aaf2f4055ef0aacd08e3,63f3cfca20052e4ae7554ebf,6453c746ecaa510ba1f2c895,2023-05-04_16h55.34.777,ga_syllabified_check,2022.2.5,Win32,6.642576257,,,,,,,,,,,,,,./stim/p08_syllable_1_flauro_hit.wav,p08,flauro,hit,flau-ro,flau-ro,fla-u-ro, ,-0.357407407,-0.10462963,1,0,0,1.2317,text_option_1,,0,117,117,175,1
6140aaf2f4055ef0aacd08e3,63f3cfca20052e4ae7554ebf,6453c746ecaa510ba1f2c895,2023-05-04_16h55.34.777,ga_syllabified_check,2022.2.5,Win32,6.642576257,,,,,,,,,,,,,,./stim/p03_syllable_1_lliape_hit.wav,p03,lliape,hit,llia,llia-pe,lli-a-pe, ,-0.357407407,-0.10462963,1,0,0,2.1646,text_option_1,,0,118,118,20,1
6140aaf2f4055ef0aacd08e3,63f3cfca20052e4ae7554ebf,6453c746ecaa510ba1f2c895,2023-05-04_16h55.34.777,ga_syllabified_check,2022.2.5,Win32,6.642576257,,,,,,,,,,,,,,./stim/p07_syllable_1_palufauto_hit.wav,p07,palufauto,hit,pa-lu-fau-to,pa-lu-fau-to,pa-lu-fa-u-to, ,-0.358333333,-0.10462963,1,0,0,2.8039,text_option_1,,0,119,119,162,1
6140aaf2f4055ef0aacd08e3,63f3cfca20052e4ae7554ebf,6453c746ecaa510ba1f2c895,2023-05-04_16h55.34.777,ga_syllabified_check,2022.2.5,Win32,6.642576257,,,,,,,,,,,,,,./stim/p05_syllable_1_nhiape_hit.wav,p05,ñiape,hit,nhia-pe,ñia-pe,ñi-a-pe, ,-0.358333333,-0.10462963,1,0,0,0.6182,text_option_1,,0,120,120,91,1
6140aaf2f4055ef0aacd08e3,63f3cfca20052e4ae7554ebf,6453c746ecaa510ba1f2c895,2023-05-04_16h55.34.777,ga_syllabified_check,2022.2.5,Win32,6.642576257,,,,,,,,,,,,,,./stim/p04_syllable_1_palutrauco_hit.wav,p04,palutrauco,hit,pa-lu-trau-co,pa-lu-trau-co,pa-lu-tra-u-co, ,-0.358333333,-0.10462963,1,0,0,3.3054,text_option_1,,0,121,121,63,1
6140aaf2f4055ef0aacd08e3,63f3cfca20052e4ae7554ebf,6453c746ecaa510ba1f2c895,2023-05-04_16h55.34.777,ga_syllabified_check,2022.2.5,Win32,6.642576257,,,,,,,,,,,,,,./stim/p08_syllable_1_lakaguaisto_hit.wav,p08,lakaguaisto,hit,la-ka-gu-ais-to,la-ka-guais-to,la-ka-gu-ais-to,la-ka-gua-is-to,0.353703704,-0.107407407,1,0,0,3.5012,text_option_2,,0,122,122,183,1
6140aaf2f4055ef0aacd08e3,63f3cfca20052e4ae7554ebf,6453c746ecaa510ba1f2c895,2023-05-04_16h55.34.777,ga_syllabified_check,2022.2.5,Win32,6.642576257,,,,,,,,,,,,,,./stim/p07_syllable_1_mebochiana_hit.wav,p07,mebochiana,hit,me-bo-chia-na,me-bo-chia-na,me-bo-chi-a-na, ,-0.351851852,-0.108333333,1,0,0,2.2379,text_option_1,,0,123,123,158,1
6140aaf2f4055ef0aacd08e3,63f3cfca20052e4ae7554ebf,6453c746ecaa510ba1f2c895,2023-05-04_16h55.34.777,ga_syllabified_check,2022.2.5,Win32,6.642576257,,,,,,,,,,,,,,./stim/p07_syllable_1_lliape_hit.wav,p07,lliape,hit,lliai-pe,llia-pe,lli-a-pe, ,-0.433333333,-0.103703704,1,0,0,6.9108,text_option_1,,0,124,124,156,1
6140aaf2f4055ef0aacd08e3,63f3cfca20052e4ae7554ebf,6453c746ecaa510ba1f2c895,2023-05-04_16h55.34.777,ga_syllabified_check,2022.2.5,Win32,6.642576257,,,,,,,,,,,,,,./stim/p04_syllable_1_lakapuaisto_hit.wav,p04,lakapuaisto,hit,la-ka-puais-to,la-ka-puais-to,la-ka-pu-ais-to,la-ka-pua-is-to,-0.324074074,-0.096296296,1,0,0,1.2766,text_option_1,,0,125,125,51,1
6140aaf2f4055ef0aacd08e3,63f3cfca20052e4ae7554ebf,6453c746ecaa510ba1f2c895,2023-05-04_16h55.34.777,ga_syllabified_check,2022.2.5,Win32,6.642576257,,,,,,,,,,,,,,./stim/p08_syllable_1_lakapiaisto_hit.wav,p08,lakapiaisto,hit,la-ka-pi-as-to,la-ka-piais-to,la-ka-pi-ais-to,la-ka-pia-is-to,0.465740741,-0.111111111,1,0,0,2.6867,text_option_2,,0,126,126,186,1
6140aaf2f4055ef0aacd08e3,63f3cfca20052e4ae7554ebf,6453c746ecaa510ba1f2c895,2023-05-04_16h55.34.777,ga_syllabified_check,2022.2.5,Win32,6.642576257,,,,,,,,,,,,,,./stim/p05_syllable_1_falutraigo_hit.wav,p05,falutraigo,hit,fa-lu-trai-go,fa-lu-trai-go,fa-lu-tra-i-go, ,-0.387962963,-0.108333333,1,0,0,2.8414,text_option_1,,0,127,127,72,1
6140aaf2f4055ef0aacd08e3,63f3cfca20052e4ae7554ebf,6453c746ecaa510ba1f2c895,2023-05-04_16h55.34.777,ga_syllabified_check,2022.2.5,Win32,6.642576257,,,,,,,,,,,,,,./stim/p03_syllable_1_lakapuaisto_hit.wav,p03,lakapuaisto,hit,la-ka-puais-to,la-ka-puais-to,la-ka-pu-ais-to,la-ka-pua-is-to,-0.408333333,-0.099074074,1,0,0,3.3534,text_option_1,,0,128,128,17,1
6140aaf2f4055ef0aacd08e3,63f3cfca20052e4ae7554ebf,6453c746ecaa510ba1f2c895,2023-05-04_16h55.34.777,ga_syllabified_check,2022.2.5,Win32,6.642576257,,,,,,,,,,,,,,./stim/p06_syllable_1_lakakiaisto_hit.wav,p06,lakakiaisto,hit,la-ka-kia-is-to,la-ka-kiais-to,la-ka-ki-ais-to,la-ka-kia-is-to,0.025925926,-0.108333333,1,0,0,4.8965,text_option_3,,0,129,129,116,1
6140aaf2f4055ef0aacd08e3,63f3cfca20052e4ae7554ebf,6453c746ecaa510ba1f2c895,2023-05-04_16h55.34.777,ga_syllabified_check,2022.2.5,Win32,6.642576257,,,,,,,,,,,,,,./stim/p05_syllable_1_chiaba_hit.wav,p05,chiaba,hit,chia-ba,chia-ba,chi-a-ba, ,-0.426851852,-0.100925926,1,0,0,1.11,text_option_1,,0,130,130,68,1
6140aaf2f4055ef0aacd08e3,63f3cfca20052e4ae7554ebf,6453c746ecaa510ba1f2c895,2023-05-04_16h55.34.777,ga_syllabified_check,2022.2.5,Win32,6.642576257,,,,,,,,,,,,,,./stim/p07_syllable_1_lakadiaisto_hit.wav,p07,lakadiaisto,hit,la-ka-dia-is-to,la-ka-diais-to,la-ka-di-ais-to,la-ka-dia-is-to,0.04537037,-0.1,1,0,0,3.0254,text_option_3,,0,131,131,144,1
6140aaf2f4055ef0aacd08e3,63f3cfca20052e4ae7554ebf,6453c746ecaa510ba1f2c895,2023-05-04_16h55.34.777,ga_syllabified_check,2022.2.5,Win32,6.642576257,,,,,,,,,,,,,,./stim/p07_syllable_1_lakafiaisto_hit.wav,p07,lakafiaisto,hit,la-ka-fiais-to,la-ka-fiais-to,la-ka-fi-ais-to,la-ka-fia-is-to,-0.398148148,-0.10462963,1,0,0,3.8033,text_option_1,,0,132,132,146,1
6140aaf2f4055ef0aacd08e3,63f3cfca20052e4ae7554ebf,6453c746ecaa510ba1f2c895,2023-05-04_16h55.34.777,ga_syllabified_check,2022.2.5,Win32,6.642576257,,,,,,,,,,,,,,./stim/p08_syllable_1_lakatuaisto_hit.wav,p08,lakatuaisto,hit,la-ka-tu-i-jis,la-ka-tuais-to,la-ka-tu-ais-to,la-ka-tua-is-to,0.015740741,-0.309259259,1,0,0,3.7683,text_option_other,LA-KA-TUI-IS-TO,0,133,133,189,1
6140aaf2f4055ef0aacd08e3,63f3cfca20052e4ae7554ebf,6453c746ecaa510ba1f2c895,2023-05-04_16h55.34.777,ga_syllabified_check,2022.2.5,Win32,6.642576257,,,,,,,,,,,,,,./stim/p03_syllable_1_lakadiaisto_hit.wav,p03,lakadiaisto,hit,la-ka-diais-to,la-ka-diais-to,la-ka-di-ais-to,la-ka-dia-is-to,-0.355555556,-0.093518519,1,0,0,2.2133,text_option_1,,0,134,134,8,1
6140aaf2f4055ef0aacd08e3,63f3cfca20052e4ae7554ebf,6453c746ecaa510ba1f2c895,2023-05-04_16h55.34.777,ga_syllabified_check,2022.2.5,Win32,6.642576257,,,,,,,,,,,,,,./stim/p07_syllable_1_lakabiaisto_hit.wav,p07,lakabiaisto,hit,la-ka-bais-to,la-ka-biais-to,la-ka-bi-ais-to,la-ka-bia-is-to,-0.341666667,-0.097222222,1,0,0,1.8825,text_option_1,,0,135,135,142,1
6140aaf2f4055ef0aacd08e3,63f3cfca20052e4ae7554ebf,6453c746ecaa510ba1f2c895,2023-05-04_16h55.34.777,ga_syllabified_check,2022.2.5,Win32,6.642576257,,,,,,,,,,,,,,./stim/p05_syllable_1_lakabuaisto_hit.wav,p05,lakabuaisto,hit,la-ka-buais-to,la-ka-buais-to,la-ka-bu-ais-to,la-ka-bua-is-to,-0.327777778,-0.10462963,1,0,0,1.2802,text_option_1,,0,136,136,75,1
6140aaf2f4055ef0aacd08e3,63f3cfca20052e4ae7554ebf,6453c746ecaa510ba1f2c895,2023-05-04_16h55.34.777,ga_syllabified_check,2022.2.5,Win32,6.642576257,,,,,,,,,,,,,,./stim/p04_syllable_1_lakatuaisto_hit.wav,p04,lakatuaisto,hit,la-ka-kuais-to,la-ka-tuais-to,la-ka-tu-ais-to,la-ka-tua-is-to,-0.353703704,-0.106481481,1,0,0,1.5786,text_option_1,,0,137,137,53,1
6140aaf2f4055ef0aacd08e3,63f3cfca20052e4ae7554ebf,6453c746ecaa510ba1f2c895,2023-05-04_16h55.34.777,ga_syllabified_check,2022.2.5,Win32,6.642576257,,,,,,,,,,,,,,./stim/p05_syllable_1_lakaduaisto_hit.wav,p05,lakaduaisto,hit,la-ka-dais-to,la-ka-duais-to,la-ka-du-ais-to,la-ka-dua-is-to,-0.339814815,-0.101851852,1,0,0,1.5915,text_option_1,,0,138,138,77,1
6140aaf2f4055ef0aacd08e3,63f3cfca20052e4ae7554ebf,6453c746ecaa510ba1f2c895,2023-05-04_16h55.34.777,ga_syllabified_check,2022.2.5,Win32,6.642576257,,,,,,,,,,,,,,./stim/p03_syllable_1_rausto_hit.wav,p03,rausto,hit,raus-to,raus-to,ra-us-to, ,-0.367592593,-0.102777778,1,0,0,1.5528,text_option_1,,0,139,139,31,1
6140aaf2f4055ef0aacd08e3,63f3cfca20052e4ae7554ebf,6453c746ecaa510ba1f2c895,2023-05-04_16h55.34.777,ga_syllabified_check,2022.2.5,Win32,6.642576257,,,,,,,,,,,,,,./stim/p06_syllable_1_palufauto_hit.wav,p06,palufauto,hit,pa-lu-fau-to,pa-lu-fau-to,pa-lu-fa-u-to, ,-0.375,-0.110185185,1,0,0,4.0708,text_option_1,,0,140,140,128,1
6140aaf2f4055ef0aacd08e3,63f3cfca20052e4ae7554ebf,6453c746ecaa510ba1f2c895,2023-05-04_16h55.34.777,ga_syllabified_check,2022.2.5,Win32,6.642576257,,,,,,,,,,,,,,./stim/p05_syllable_1_costonhialo_hit.wav,p05,costoñialo,hit,cos-to-nhia-lo,cos-to-ñia-lo,cos-to-ñi-a-lo, ,-0.347222222,-0.10462963,1,0,0,2.194,text_option_1,,0,141,141,69,1
6140aaf2f4055ef0aacd08e3,63f3cfca20052e4ae7554ebf,6453c746ecaa510ba1f2c895,2023-05-04_16h55.34.777,ga_syllabified_check,2022.2.5,Win32,6.642576257,,,,,,,,,,,,,,./stim/p07_syllable_1_lakapuaisto_hit.wav,p07,lakapuaisto,hit,la-ka-puais-to,la-ka-puais-to,la-ka-pu-ais-to,la-ka-pua-is-to,-0.371296296,-0.1,1,0,0,2.5862,text_option_1,,0,142,142,153,1
6140aaf2f4055ef0aacd08e3,63f3cfca20052e4ae7554ebf,6453c746ecaa510ba1f2c895,2023-05-04_16h55.34.777,ga_syllabified_check,2022.2.5,Win32,6.642576257,,,,,,,,,,,,,,./stim/p06_syllable_1_lakagiaisto_hit.wav,p06,lakagiaisto,hit,la-ka-gia-is-to,la-ka-giais-to,la-ka-gi-ais-to,la-ka-gia-is-to,0.012962963,-0.111111111,1,0,0,4.3036,text_option_3,,0,143,143,114,1
6140aaf2f4055ef0aacd08e3,63f3cfca20052e4ae7554ebf,6453c746ecaa510ba1f2c895,2023-05-04_16h55.34.777,ga_syllabified_check,2022.2.5,Win32,6.642576257,,,,,,,,,,,,,,./stim/p04_syllable_1_lakaguaisto_hit.wav,p04,lakaguaisto,hit,la-ka-guais-to,la-ka-guais-to,la-ka-gu-ais-to,la-ka-gua-is-to,-0.418518519,-0.105555556,1,0,0,2.1164,text_option_1,,0,144,144,47,1
6140aaf2f4055ef0aacd08e3,63f3cfca20052e4ae7554ebf,6453c746ecaa510ba1f2c895,2023-05-04_16h55.34.777,ga_syllabified_check,2022.2.5,Win32,6.642576257,,,,,,,,,,,,,,./stim/p08_syllable_1_palufauro_hit.wav,p08,palufauro,hit,pa-lu-fau-ro,pa-lu-fau-ro,pa-lu-fa-u-ro, ,-0.390740741,-0.102777778,1,0,0,2.8087,text_option_1,,0,145,145,195,1
6140aaf2f4055ef0aacd08e3,63f3cfca20052e4ae7554ebf,6453c746ecaa510ba1f2c895,2023-05-04_16h55.34.777,ga_syllabified_check,2022.2.5,Win32,6.642576257,,,,,,,,,,,,,,./stim/p04_syllable_1_faluduako_hit.wav,p04,faluduako,hit,fa-lu-dua-ko,fa-lu-dua-ko,fa-lu-du-a-ko, ,-0.394444444,-0.101851852,1,0,0,0.7814,text_option_1,,0,146,146,36,1
6140aaf2f4055ef0aacd08e3,63f3cfca20052e4ae7554ebf,6453c746ecaa510ba1f2c895,2023-05-04_16h55.34.777,ga_syllabified_check,2022.2.5,Win32,6.642576257,,,,,,,,,,,,,,./stim/p06_syllable_1_lakadiaisto_hit.wav,p06,lakadiaisto,hit,la-ka-dia-is-to,la-ka-diais-to,la-ka-di-ais-to,la-ka-dia-is-to,-0.343518519,-0.105555556,1,0,0,5.6977,text_option_1,,0,147,147,110,1
6140aaf2f4055ef0aacd08e3,63f3cfca20052e4ae7554ebf,6453c746ecaa510ba1f2c895,2023-05-04_16h55.34.777,ga_syllabified_check,2022.2.5,Win32,6.642576257,,,,,,,,,,,,,,./stim/p04_syllable_1_chiaba_hit.wav,p04,chiaba,hit,chia-ba,chia-ba,chi-a-ba, ,-0.361111111,-0.091666667,1,0,0,1.6184,text_option_1,,0,148,148,34,1
6140aaf2f4055ef0aacd08e3,63f3cfca20052e4ae7554ebf,6453c746ecaa510ba1f2c895,2023-05-04_16h55.34.777,ga_syllabified_check,2022.2.5,Win32,6.642576257,,,,,,,,,,,,,,./stim/p07_syllable_1_tuliafo_hit.wav,p07,tuliafo,hit,tu-lia-fo,tu-lia-fo,tu-li-a-fo, ,-0.378703704,-0.103703704,1,0,0,1.6302,text_option_1,,0,149,149,169,1
6140aaf2f4055ef0aacd08e3,63f3cfca20052e4ae7554ebf,6453c746ecaa510ba1f2c895,2023-05-04_16h55.34.777,ga_syllabified_check,2022.2.5,Win32,6.642576257,,,,,,,,,,,,,,./stim/p08_syllable_1_pachialo_hit.wav,p08,pachialo,hit,pa-chi-ja-lo,pa-chia-lo,pa-chi-a-lo, ,0.340740741,-0.105555556,1,0,0,3.1354,text_option_2,,0,150,150,194,1
6140aaf2f4055ef0aacd08e3,63f3cfca20052e4ae7554ebf,6453c746ecaa510ba1f2c895,2023-05-04_16h55.34.777,ga_syllabified_check,2022.2.5,Win32,6.642576257,,,,,,,,,,,,,,./stim/p06_syllable_1_lakafuaisto_hit.wav,p06,lakafuaisto,hit,la-ka-fu-a-is,la-ka-fuais-to,la-ka-fu-ais-to,la-ka-fua-is-to,0.106481481,-0.10462963,1,0,0,5.4657,text_option_3,,0,151,151,113,1
6140aaf2f4055ef0aacd08e3,63f3cfca20052e4ae7554ebf,6453c746ecaa510ba1f2c895,2023-05-04_16h55.34.777,ga_syllabified_check,2022.2.5,Win32,6.642576257,,,,,,,,,,,,,,./stim/p06_syllable_1_lakakuaisto_hit.wav,p06,lakakuaisto,hit,la-ka-ku-a-is,la-ka-kuais-to,la-ka-ku-ais-to,la-ka-kua-is-to,0.425925926,-0.100925926,1,0,0,2.8169,text_option_2,,0,152,152,117,1
6140aaf2f4055ef0aacd08e3,63f3cfca20052e4ae7554ebf,6453c746ecaa510ba1f2c895,2023-05-04_16h55.34.777,ga_syllabified_check,2022.2.5,Win32,6.642576257,,,,,,,,,,,,,,./stim/p07_syllable_1_faluduako_hit.wav,p07,faluduako,hit,fa-lu-dua-ko,fa-lu-dua-ko,fa-lu-du-a-ko, ,-0.337962963,-0.106481481,1,0,0,2.1947,text_option_1,,0,153,153,138,1
6140aaf2f4055ef0aacd08e3,63f3cfca20052e4ae7554ebf,6453c746ecaa510ba1f2c895,2023-05-04_16h55.34.777,ga_syllabified_check,2022.2.5,Win32,6.642576257,,,,,,,,,,,,,,./stim/p05_syllable_1_tuliafo_hit.wav,p05,tuliafo,hit,tu-lai-fo,tu-lia-fo,tu-li-a-fo, ,-0.35462963,-0.106481481,1,0,0,0.787,text_option_1,,0,154,154,101,1
6140aaf2f4055ef0aacd08e3,63f3cfca20052e4ae7554ebf,6453c746ecaa510ba1f2c895,2023-05-04_16h55.34.777,ga_syllabified_check,2022.2.5,Win32,6.642576257,,,,,,,,,,,,,,./stim/p04_syllable_1_falutraigo_hit.wav,p04,falutraigo,hit,fa-lu-trai-go,fa-lu-trai-go,fa-lu-tra-i-go, ,-0.35462963,-0.106481481,1,0,0,0.9415,text_option_1,,0,155,155,38,1
6140aaf2f4055ef0aacd08e3,63f3cfca20052e4ae7554ebf,6453c746ecaa510ba1f2c895,2023-05-04_16h55.34.777,ga_syllabified_check,2022.2.5,Win32,6.642576257,,,,,,,,,,,,,,./stim/p06_syllable_1_lliape_hit.wav,p06,lliape,hit,lli-lla-pe,llia-pe,lli-a-pe, ,0.367592593,-0.106481481,1,0,0,2.337,text_option_2,,0,156,156,122,1
6140aaf2f4055ef0aacd08e3,63f3cfca20052e4ae7554ebf,6453c746ecaa510ba1f2c895,2023-05-04_16h55.34.777,ga_syllabified_check,2022.2.5,Win32,6.642576257,,,,,,,,,,,,,,./stim/p04_syllable_1_palumaisto_hit.wav,p04,palumaisto,hit,pa-lu-mais-to,pa-lu-mais-to,pa-lu-ma-is-to, ,-0.371296296,-0.109259259,1,0,0,5.2429,text_option_1,,0,157,157,62,1
6140aaf2f4055ef0aacd08e3,63f3cfca20052e4ae7554ebf,6453c746ecaa510ba1f2c895,2023-05-04_16h55.34.777,ga_syllabified_check,2022.2.5,Win32,6.642576257,,,,,,,,,,,,,,./stim/p03_syllable_1_lakagiaisto_hit.wav,p03,lakagiaisto,hit,la-ka-giais-to,la-ka-giais-to,la-ka-gi-ais-to,la-ka-gia-is-to,-0.355555556,-0.089814815,1,0,0,2.7019,text_option_1,,0,158,158,12,1
6140aaf2f4055ef0aacd08e3,63f3cfca20052e4ae7554ebf,6453c746ecaa510ba1f2c895,2023-05-04_16h55.34.777,ga_syllabified_check,2022.2.5,Win32,6.642576257,,,,,,,,,,,,,,./stim/p03_syllable_1_lakabuaisto_hit.wav,p03,lakabuaisto,hit,la-ka-buais-to,la-ka-buais-to,la-ka-bu-ais-to,la-ka-bua-is-to,-0.363888889,-0.105555556,1,0,0,1.7209,text_option_1,,0,159,159,7,1
6140aaf2f4055ef0aacd08e3,63f3cfca20052e4ae7554ebf,6453c746ecaa510ba1f2c895,2023-05-04_16h55.34.777,ga_syllabified_check,2022.2.5,Win32,6.642576257,,,,,,,,,,,,,,./stim/p06_syllable_1_lakabiaisto_hit.wav,p06,lakabiaisto,hit,la-ka-bia-is-to,la-ka-biais-to,la-ka-bi-ais-to,la-ka-bia-is-to,-0.034259259,-0.102777778,1,0,0,3.9218,text_option_3,,0,160,160,108,1
6140aaf2f4055ef0aacd08e3,63f3cfca20052e4ae7554ebf,6453c746ecaa510ba1f2c895,2023-05-04_16h55.34.777,ga_syllabified_check,2022.2.5,Win32,6.642576257,,,,,,,,,,,,,,./stim/p05_syllable_1_faluduako_hit.wav,p05,faluduako,hit,fa-lu-ba-ko,fa-lu-dua-ko,fa-lu-du-a-ko, ,-0.361111111,-0.097222222,1,0,0,1.2552,text_option_1,,0,161,161,70,1
6140aaf2f4055ef0aacd08e3,63f3cfca20052e4ae7554ebf,6453c746ecaa510ba1f2c895,2023-05-04_16h55.34.777,ga_syllabified_check,2022.2.5,Win32,6.642576257,,,,,,,,,,,,,,./stim/p04_syllable_1_lakadiaisto_hit.wav,p04,lakadiaisto,hit,la-ka-dias-to,la-ka-diais-to,la-ka-di-ais-to,la-ka-dia-is-to,-0.372222222,-0.102777778,1,0,0,1.1136,text_option_1,,0,162,162,42,1
6140aaf2f4055ef0aacd08e3,63f3cfca20052e4ae7554ebf,6453c746ecaa510ba1f2c895,2023-05-04_16h55.34.777,ga_syllabified_check,2022.2.5,Win32,6.642576257,,,,,,,,,,,,,,./stim/p08_syllable_1_rausto_hit.wav,p08,rausto,hit,raus-to,raus-to,ra-us-to, ,-0.374074074,-0.102777778,1,0,0,1.0972,text_option_1,,0,163,163,201,1
6140aaf2f4055ef0aacd08e3,63f3cfca20052e4ae7554ebf,6453c746ecaa510ba1f2c895,2023-05-04_16h55.34.777,ga_syllabified_check,2022.2.5,Win32,6.642576257,,,,,,,,,,,,,,./stim/p04_syllable_1_falufaisto_hit.wav,p04,falufaisto,hit,fa-lu-fais-to,fa-lu-fais-to,fa-lu-fa-is-to, ,-0.367592593,-0.106481481,1,0,0,1.2437,text_option_1,,0,164,164,37,1
6140aaf2f4055ef0aacd08e3,63f3cfca20052e4ae7554ebf,6453c746ecaa510ba1f2c895,2023-05-04_16h55.34.777,ga_syllabified_check,2022.2.5,Win32,6.642576257,,,,,,,,,,,,,,./stim/p05_syllable_1_pachialo_hit.wav,p05,pachialo,hit,pan-chia-lo,pa-chia-lo,pa-chi-a-lo, ,-0.369444444,-0.106481481,1,0,0,0.6185,text_option_1,,0,165,165,92,1
6140aaf2f4055ef0aacd08e3,63f3cfca20052e4ae7554ebf,6453c746ecaa510ba1f2c895,2023-05-04_16h55.34.777,ga_syllabified_check,2022.2.5,Win32,6.642576257,,,,,,,,,,,,,,./stim/p08_syllable_1_lakagiaisto_hit.wav,p08,lakagiaisto,hit,la-ka-gi-jas-to,la-ka-giais-to,la-ka-gi-ais-to,la-ka-gia-is-to,-0.340740741,-0.10462963,1,0,0,5.3962,text_option_1,,0,166,166,182,1
6140aaf2f4055ef0aacd08e3,63f3cfca20052e4ae7554ebf,6453c746ecaa510ba1f2c895,2023-05-04_16h55.34.777,ga_syllabified_check,2022.2.5,Win32,6.642576257,,,,,,,,,,,,,,./stim/p04_syllable_1_rausto_hit.wav,p04,rausto,hit,raus-to,raus-to,ra-us-to, ,-0.355555556,-0.109259259,1,0,0,0.3122,text_option_1,,0,167,167,65,1
6140aaf2f4055ef0aacd08e3,63f3cfca20052e4ae7554ebf,6453c746ecaa510ba1f2c895,2023-05-04_16h55.34.777,ga_syllabified_check,2022.2.5,Win32,6.642576257,,,,,,,,,,,,,,./stim/p03_syllable_1_falutraigo_hit.wav,p03,falutraigo,hit,fa-lu-trai-go,fa-lu-trai-go,fa-lu-tra-i-go, ,-0.355555556,-0.109259259,1,0,0,2.7918,text_option_1,,0,168,168,4,1
6140aaf2f4055ef0aacd08e3,63f3cfca20052e4ae7554ebf,6453c746ecaa510ba1f2c895,2023-05-04_16h55.34.777,ga_syllabified_check,2022.2.5,Win32,6.642576257,,,,,,,,,,,,,,./stim/p07_syllable_1_manhiala_hit.wav,p07,mañiala,hit,ma-nhia-la,ma-ñia-la,ma-ñi-a-la, ,-0.369444444,-0.109259259,1,0,0,1.5654,text_option_1,,0,169,169,157,1
6140aaf2f4055ef0aacd08e3,63f3cfca20052e4ae7554ebf,6453c746ecaa510ba1f2c895,2023-05-04_16h55.34.777,ga_syllabified_check,2022.2.5,Win32,6.642576257,,,,,,,,,,,,,,./stim/p03_syllable_1_palumaisto_hit.wav,p03,palumaisto,hit,pa-lu-mais-to,pa-lu-mais-to,pa-lu-ma-is-to, ,-0.369444444,-0.109259259,1,0,0,1.2627,text_option_1,,0,170,170,28,1
6140aaf2f4055ef0aacd08e3,63f3cfca20052e4ae7554ebf,6453c746ecaa510ba1f2c895,2023-05-04_16h55.34.777,ga_syllabified_check,2022.2.5,Win32,6.642576257,,,,,,,,,,,,,,./stim/p05_syllable_1_lakadiaisto_hit.wav,p05,lakadiaisto,hit,la-ka-di-ais-to,la-ka-diais-to,la-ka-di-ais-to,la-ka-dia-is-to,-0.365740741,-0.099074074,1,0,0,2.6994,text_option_1,,0,171,171,76,1
6140aaf2f4055ef0aacd08e3,63f3cfca20052e4ae7554ebf,6453c746ecaa510ba1f2c895,2023-05-04_16h55.34.777,ga_syllabified_check,2022.2.5,Win32,6.642576257,,,,,,,,,,,,,,./stim/p07_syllable_1_lakapiaisto_hit.wav,p07,lakapiaisto,hit,la-ka-pia-sto,la-ka-piais-to,la-ka-pi-ais-to,la-ka-pia-is-to,0.030555556,-0.098148148,1,0,0,4.8485,text_option_3,,0,172,172,152,1
6140aaf2f4055ef0aacd08e3,63f3cfca20052e4ae7554ebf,6453c746ecaa510ba1f2c895,2023-05-04_16h55.34.777,ga_syllabified_check,2022.2.5,Win32,6.642576257,,,,,,,,,,,,,,./stim/p06_syllable_1_lakaguaisto_hit.wav,p06,lakaguaisto,hit,la-ka-gu-a-is,la-ka-guais-to,la-ka-gu-ais-to,la-ka-gua-is-to,0.35462963,-0.103703704,1,0,0,6.1469,text_option_2,,0,173,173,115,1
6140aaf2f4055ef0aacd08e3,63f3cfca20052e4ae7554ebf,6453c746ecaa510ba1f2c895,2023-05-04_16h55.34.777,ga_syllabified_check,2022.2.5,Win32,6.642576257,,,,,,,,,,,,,,./stim/p04_syllable_1_lakafuaisto_hit.wav,p04,lakafuaisto,hit,la-ka-fuais-to,la-ka-fuais-to,la-ka-fu-ais-to,la-ka-fua-is-to,-0.350925926,-0.113888889,1,0,0,1.5853,text_option_1,,0,174,174,45,1
6140aaf2f4055ef0aacd08e3,63f3cfca20052e4ae7554ebf,6453c746ecaa510ba1f2c895,2023-05-04_16h55.34.777,ga_syllabified_check,2022.2.5,Win32,6.642576257,,,,,,,,,,,,,,./stim/p07_syllable_1_palufauro_hit.wav,p07,palufauro,hit,pa-lu-fau-ro,pa-lu-fau-ro,pa-lu-fa-u-ro, ,-0.351851852,-0.112962963,1,0,0,1.5775,text_option_1,,0,175,175,161,1
6140aaf2f4055ef0aacd08e3,63f3cfca20052e4ae7554ebf,6453c746ecaa510ba1f2c895,2023-05-04_16h55.34.777,ga_syllabified_check,2022.2.5,Win32,6.642576257,,,,,,,,,,,,,,./stim/p03_syllable_1_chiaba_hit.wav,p03,chiaba,hit,chia-ba,chia-ba,chi-a-ba, ,-0.353703704,-0.109259259,1,0,0,0.6223,text_option_1,,0,176,176,0,1
6140aaf2f4055ef0aacd08e3,63f3cfca20052e4ae7554ebf,6453c746ecaa510ba1f2c895,2023-05-04_16h55.34.777,ga_syllabified_check,2022.2.5,Win32,6.642576257,,,,,,,,,,,,,,./stim/p05_syllable_1_palumaisto_hit.wav,p05,palumaisto,hit,pa-lu-mais-to,pa-lu-mais-to,pa-lu-ma-is-to, ,-0.353703704,-0.103703704,1,0,0,1.0921,text_option_1,,0,177,177,96,1
6140aaf2f4055ef0aacd08e3,63f3cfca20052e4ae7554ebf,6453c746ecaa510ba1f2c895,2023-05-04_16h55.34.777,ga_syllabified_check,2022.2.5,Win32,6.642576257,,,,,,,,,,,,,,./stim/p07_syllable_1_ruyiola_hit.wav,p07,ruyiola,hit,ru-yio-la,ru-yio-la,ru-yi-o-la, ,-0.359259259,-0.103703704,1,0,0,1.0699,text_option_1,,0,178,178,168,1
6140aaf2f4055ef0aacd08e3,63f3cfca20052e4ae7554ebf,6453c746ecaa510ba1f2c895,2023-05-04_16h55.34.777,ga_syllabified_check,2022.2.5,Win32,6.642576257,,,,,,,,,,,,,,./stim/p06_syllable_1_mebochiana_hit.wav,p06,mebochiana,hit,me-bo-shi-a-na,me-bo-chia-na,me-bo-chi-a-na, ,0.42037037,-0.106481481,1,0,0,3.3208,text_option_2,,0,179,179,124,1
6140aaf2f4055ef0aacd08e3,63f3cfca20052e4ae7554ebf,6453c746ecaa510ba1f2c895,2023-05-04_16h55.34.777,ga_syllabified_check,2022.2.5,Win32,6.642576257,,,,,,,,,,,,,,./stim/p03_syllable_1_palufauro_hit.wav,p03,palufauro,hit,pa-lu-fau-ro,pa-lu-fau-ro,pa-lu-fa-u-ro, ,-0.360185185,-0.101851852,1,0,0,1.7068,text_option_1,,0,180,180,25,1
6140aaf2f4055ef0aacd08e3,63f3cfca20052e4ae7554ebf,6453c746ecaa510ba1f2c895,2023-05-04_16h55.34.777,ga_syllabified_check,2022.2.5,Win32,6.642576257,,,,,,,,,,,,,,./stim/p05_syllable_1_lakagiaisto_hit.wav,p05,lakagiaisto,hit,la-ka-ki-ais-to,la-ka-giais-to,la-ka-gi-ais-to,la-ka-gia-is-to,-0.335185185,-0.109259259,1,0,0,1.8581,text_option_1,,0,181,181,80,1
6140aaf2f4055ef0aacd08e3,63f3cfca20052e4ae7554ebf,6453c746ecaa510ba1f2c895,2023-05-04_16h55.34.777,ga_syllabified_check,2022.2.5,Win32,6.642576257,,,,,,,,,,,,,,./stim/p04_syllable_1_lakafiaisto_hit.wav,p04,lakafiaisto,hit,la-ka-fiais-to,la-ka-fiais-to,la-ka-fi-ais-to,la-ka-fia-is-to,-0.355555556,-0.106481481,1,0,0,1.7173,text_option_1,,0,182,182,44,1
6140aaf2f4055ef0aacd08e3,63f3cfca20052e4ae7554ebf,6453c746ecaa510ba1f2c895,2023-05-04_16h55.34.777,ga_syllabified_check,2022.2.5,Win32,6.642576257,,,,,,,,,,,,,,./stim/p03_syllable_1_lakatiaisto_hit.wav,p03,lakatiaisto,hit,la-ka-tiais-to,la-ka-tiais-to,la-ka-ti-ais-to,la-ka-tia-is-to,-0.355555556,-0.106481481,1,0,0,1.4119,text_option_1,,0,183,183,18,1
6140aaf2f4055ef0aacd08e3,63f3cfca20052e4ae7554ebf,6453c746ecaa510ba1f2c895,2023-05-04_16h55.34.777,ga_syllabified_check,2022.2.5,Win32,6.642576257,,,,,,,,,,,,,,./stim/p04_syllable_1_palufauto_hit.wav,p04,palufauto,hit,pa-lu-fau-to,pa-lu-fau-to,pa-lu-fa-u-to, ,-0.359259259,-0.102777778,1,0,0,1.2383,text_option_1,,0,184,184,60,1
6140aaf2f4055ef0aacd08e3,63f3cfca20052e4ae7554ebf,6453c746ecaa510ba1f2c895,2023-05-04_16h55.34.777,ga_syllabified_check,2022.2.5,Win32,6.642576257,,,,,,,,,,,,,,./stim/p08_syllable_1_lakatiaisto_hit.wav,p08,lakatiaisto,hit,la-ka-ti-as-to,la-ka-tiais-to,la-ka-ti-ais-to,la-ka-tia-is-to,0.025925926,-0.099074074,1,0,0,3.6073,text_option_3,,0,185,185,188,1
6140aaf2f4055ef0aacd08e3,63f3cfca20052e4ae7554ebf,6453c746ecaa510ba1f2c895,2023-05-04_16h55.34.777,ga_syllabified_check,2022.2.5,Win32,6.642576257,,,,,,,,,,,,,,./stim/p06_syllable_1_tuliafo_hit.wav,p06,tuliafo,hit,tu-li-a-fo,tu-lia-fo,tu-li-a-fo, ,0.430555556,-0.111111111,1,0,0,1.7655,text_option_2,,0,186,186,135,1
6140aaf2f4055ef0aacd08e3,63f3cfca20052e4ae7554ebf,6453c746ecaa510ba1f2c895,2023-05-04_16h55.34.777,ga_syllabified_check,2022.2.5,Win32,6.642576257,,,,,,,,,,,,,,./stim/p03_syllable_1_palufauto_hit.wav,p03,palufauto,hit,pa-lu-fau,pa-lu-fau-to,pa-lu-fa-u-to, ,-0.331481481,-0.101851852,1,0,0,0.9477,text_option_1,,0,187,187,26,1
6140aaf2f4055ef0aacd08e3,63f3cfca20052e4ae7554ebf,6453c746ecaa510ba1f2c895,2023-05-04_16h55.34.777,ga_syllabified_check,2022.2.5,Win32,6.642576257,,,,,,,,,,,,,,./stim/p05_syllable_1_lakaguaisto_hit.wav,p05,lakaguaisto,hit,la-ka-gais,la-ka-guais-to,la-ka-gu-ais-to,la-ka-gua-is-to,-0.301851852,-0.088888889,1,0,0,0.9439,text_option_1,,0,188,188,81,1
6140aaf2f4055ef0aacd08e3,63f3cfca20052e4ae7554ebf,6453c746ecaa510ba1f2c895,2023-05-04_16h55.34.777,ga_syllabified_check,2022.2.5,Win32,6.642576257,,,,,,,,,,,,,,./stim/p04_syllable_1_tuliafo_hit.wav,p04,tuliafo,hit,tu-lia-fo,tu-lia-fo,tu-li-a-fo, ,-0.357407407,-0.105555556,1,0,0,1.1028,text_option_1,,0,189,189,67,1
6140aaf2f4055ef0aacd08e3,63f3cfca20052e4ae7554ebf,6453c746ecaa510ba1f2c895,2023-05-04_16h55.34.777,ga_syllabified_check,2022.2.5,Win32,6.642576257,,,,,,,,,,,,,,./stim/p07_syllable_1_chiaba_hit.wav,p07,chiaba,hit,chia-ba,chia-ba,chi-a-ba, ,-0.355555556,-0.10462963,1,0,0,1.8742,text_option_1,,0,190,190,136,1
6140aaf2f4055ef0aacd08e3,63f3cfca20052e4ae7554ebf,6453c746ecaa510ba1f2c895,2023-05-04_16h55.34.777,ga_syllabified_check,2022.2.5,Win32,6.642576257,,,,,,,,,,,,,,./stim/p06_syllable_1_falufaisto_hit.wav,p06,falufaisto,hit,fa-lu-fa-is-to,fa-lu-fais-to,fa-lu-fa-is-to, ,0.359259259,-0.110185185,1,0,0,2.7903,text_option_2,,0,191,191,105,1
6140aaf2f4055ef0aacd08e3,63f3cfca20052e4ae7554ebf,6453c746ecaa510ba1f2c895,2023-05-04_16h55.34.777,ga_syllabified_check,2022.2.5,Win32,6.642576257,,,,,,,,,,,,,,./stim/p03_syllable_1_pachialo_hit.wav,p03,pachialo,hit,pa-chia-lo,pa-chia-lo,pa-chi-a-lo, ,-0.372222222,-0.108333333,1,0,0,0.7811,text_option_1,,0,192,192,24,1
6140aaf2f4055ef0aacd08e3,63f3cfca20052e4ae7554ebf,6453c746ecaa510ba1f2c895,2023-05-04_16h55.34.777,ga_syllabified_check,2022.2.5,Win32,6.642576257,,,,,,,,,,,,,,./stim/p08_syllable_1_paluguato_hit.wav,p08,paluguato,hit,pa-lu-gua-to,pa-lu-gua-to,pa-lu-gu-a-to, ,-0.361111111,-0.108333333,1,0,0,1.5573,text_option_1,,0,193,193,197,1
6140aaf2f4055ef0aacd08e3,63f3cfca20052e4ae7554ebf,6453c746ecaa510ba1f2c895,2023-05-04_16h55.34.777,ga_syllabified_check,2022.2.5,Win32,6.642576257,,,,,,,,,,,,,,./stim/p08_syllable_1_lakapuaisto_hit.wav,p08,lakapuaisto,hit,la-ka-pu-as-to,la-ka-puais-to,la-ka-pu-ais-to,la-ka-pua-is-to,0.001851852,-0.100925926,1,0,0,5.5739,text_option_3,,0,194,194,187,1
6140aaf2f4055ef0aacd08e3,63f3cfca20052e4ae7554ebf,6453c746ecaa510ba1f2c895,2023-05-04_16h55.34.777,ga_syllabified_check,2022.2.5,Win32,6.642576257,,,,,,,,,,,,,,./stim/p06_syllable_1_rausto_hit.wav,p06,rausto,hit,ra-us-to,raus-to,ra-us-to, ,0.338888889,-0.110185185,1,0,0,1.9316,text_option_2,,0,195,195,133,1
6140aaf2f4055ef0aacd08e3,63f3cfca20052e4ae7554ebf,6453c746ecaa510ba1f2c895,2023-05-04_16h55.34.777,ga_syllabified_check,2022.2.5,Win32,6.642576257,,,,,,,,,,,,,,./stim/p06_syllable_1_faluduako_hit.wav,p06,faluduako,hit,fa-lu-dua-ko,fa-lu-dua-ko,fa-lu-du-a-ko, ,0.411111111,-0.106481481,1,0,0,2.8149,text_option_2,,0,196,196,104,1
6140aaf2f4055ef0aacd08e3,63f3cfca20052e4ae7554ebf,6453c746ecaa510ba1f2c895,2023-05-04_16h55.34.777,ga_syllabified_check,2022.2.5,Win32,6.642576257,,,,,,,,,,,,,,./stim/p08_syllable_1_lakabiaisto_hit.wav,p08,lakabiaisto,hit,la-ka-bi-as-to,la-ka-biais-to,la-ka-bi-ais-to,la-ka-bia-is-to,0.02962963,-0.110185185,1,0,0,5.3412,text_option_3,,0,197,197,176,1
6140aaf2f4055ef0aacd08e3,63f3cfca20052e4ae7554ebf,6453c746ecaa510ba1f2c895,2023-05-04_16h55.34.777,ga_syllabified_check,2022.2.5,Win32,6.642576257,,,,,,,,,,,,,,./stim/p06_syllable_1_paluguato_hit.wav,p06,paluguato,hit,pa-lu-gua-to,pa-lu-gua-to,pa-lu-gu-a-to, ,-0.399074074,-0.101851852,1,0,0,3.0002,text_option_1,,0,198,198,129,1
6140aaf2f4055ef0aacd08e3,63f3cfca20052e4ae7554ebf,6453c746ecaa510ba1f2c895,2023-05-04_16h55.34.777,ga_syllabified_check,2022.2.5,Win32,6.642576257,,,,,,,,,,,,,,./stim/p08_syllable_1_mebochiana_hit.wav,p08,mebochiana,hit,me-bo-chi-a-na,me-bo-chia-na,me-bo-chi-a-na, ,0.369444444,-0.102777778,1,0,0,2.0647,text_option_2,,0,199,199,192,1
6140aaf2f4055ef0aacd08e3,63f3cfca20052e4ae7554ebf,6453c746ecaa510ba1f2c895,2023-05-04_16h55.34.777,ga_syllabified_check,2022.2.5,Win32,6.642576257,,,,,,,,,,,,,,./stim/p05_syllable_1_lakapiaisto_hit.wav,p05,lakapiaisto,hit,la-ka-pais-to,la-ka-piais-to,la-ka-pi-ais-to,la-ka-pia-is-to,-0.314814815,-0.092592593,1,0,0,1.5859,text_option_1,,0,200,200,84,1
6140aaf2f4055ef0aacd08e3,63f3cfca20052e4ae7554ebf,6453c746ecaa510ba1f2c895,2023-05-04_16h55.34.777,ga_syllabified_check,2022.2.5,Win32,6.642576257,,,,,,,,,,,,,,./stim/p04_syllable_1_flauro_hit.wav,p04,flauro,hit,flau-ro,flau-ro,fla-u-ro, ,-0.406481481,-0.105555556,1,0,0,0.9276,text_option_1,,0,201,201,39,1
6140aaf2f4055ef0aacd08e3,63f3cfca20052e4ae7554ebf,6453c746ecaa510ba1f2c895,2023-05-04_16h55.34.777,ga_syllabified_check,2022.2.5,Win32,6.642576257,,,,,,,,,,,,,,./stim/p06_syllable_1_lakapuaisto_hit.wav,p06,lakapuaisto,hit,la-ka-pu-a-is,la-ka-puais-to,la-ka-pu-ais-to,la-ka-pua-is-to,0.45462963,-0.097222222,1,0,0,4.4259,text_option_2,,0,202,202,119,1
6140aaf2f4055ef0aacd08e3,63f3cfca20052e4ae7554ebf,6453c746ecaa510ba1f2c895,2023-05-04_16h55.34.777,ga_syllabified_check,2022.2.5,Win32,6.642576257,,,,,,,,,,,,,,./stim/p08_syllable_1_lakakiaisto_hit.wav,p08,lakakiaisto,hit,la-ka-ki-jas-to,la-ka-kiais-to,la-ka-ki-ais-to,la-ka-kia-is-to,0.405555556,-0.108333333,1,0,0,5.6882,text_option_2,,0,203,203,184,1
6140aaf2f4055ef0aacd08e3,63f3cfca20052e4ae7554ebf,6453c746ecaa510ba1f2c895,2023-05-04_16h55.34.777,ga_syllabified_check,2022.2.5,Win32,6.642576257,,,,,,,,,,,,,,,,,,,,,,,,,,,,,,,,,,
