participant,study,session,date,expName,psychopyVersion,OS,frameRate,mouse_practice.x,mouse_practice.y,mouse_practice.leftButton,mouse_practice.midButton,mouse_practice.rightButton,mouse_practice.time,mouse_practice.clicked_name,textbox_followup_practice.text,trials_practice.thisRepN,trials_practice.thisTrialN,trials_practice.thisN,trials_practice.thisIndex,trials_practice.ran,file_path,id,item,status,response,op1,op2,op3,mouse.x,mouse.y,mouse.leftButton,mouse.midButton,mouse.rightButton,mouse.time,mouse.clicked_name,textbox_followup.text,trials.thisRepN,trials.thisTrialN,trials.thisN,trials.thisIndex,trials.ran
61462f791eb4fbf23ec1d583,63f3cfca20052e4ae7554ebf,6453c67e74af6c7cb8a49340,2023-05-04_16h53.19.835,ga_syllabified_check,2022.2.5,Linux x86_64,60.0240096,,,,,,,,,,,,,,,,,,,,,,,,,,,,,,,,,,
61462f791eb4fbf23ec1d583,63f3cfca20052e4ae7554ebf,6453c67e74af6c7cb8a49340,2023-05-04_16h53.19.835,ga_syllabified_check,2022.2.5,Linux x86_64,60.0240096,-0.393518519,-0.1,1,0,0,11.634,text_option_1_practice,,0,0,0,0,1,./stim/p03_syllable_1_liamo_hit.wav,p03,liamo,hit,lia-mo,lia-mo,li-a-mo, ,,,,,,,,,,,,,
61462f791eb4fbf23ec1d583,63f3cfca20052e4ae7554ebf,6453c67e74af6c7cb8a49340,2023-05-04_16h53.19.835,ga_syllabified_check,2022.2.5,Linux x86_64,60.0240096,-0.393518519,-0.1,1,0,0,3.166,text_option_1_practice,,0,1,1,1,1,./stim/p05_syllable_1_matio_hit.wav,p05,matio,hit,ma-tio,ma-tio,ma-ti-o, ,,,,,,,,,,,,,
61462f791eb4fbf23ec1d583,63f3cfca20052e4ae7554ebf,6453c67e74af6c7cb8a49340,2023-05-04_16h53.19.835,ga_syllabified_check,2022.2.5,Linux x86_64,60.0240096,0.392592593,-0.111111111,1,0,0,3.285,text_option_2_practice,,0,2,2,2,1,./stim/p08_syllable_1_liamo_hit.wav,p08,liamo,hit,ja-mo,lia-mo,li-a-mo, ,,,,,,,,,,,,,
61462f791eb4fbf23ec1d583,63f3cfca20052e4ae7554ebf,6453c67e74af6c7cb8a49340,2023-05-04_16h53.19.835,ga_syllabified_check,2022.2.5,Linux x86_64,60.0240096,,,,,,,,,,,,,,,,,,,,,,,,,,,,,,,,,,
61462f791eb4fbf23ec1d583,63f3cfca20052e4ae7554ebf,6453c67e74af6c7cb8a49340,2023-05-04_16h53.19.835,ga_syllabified_check,2022.2.5,Linux x86_64,60.0240096,,,,,,,,,,,,,,./stim/p07_syllable_1_lakapiaisto_hit.wav,p07,lakapiaisto,hit,la-ka-pia-sto,la-ka-piais-to,la-ka-pi-ais-to,la-ka-pia-is-to,-0.3,-0.110185185,1,0,0,48.067,text_option_1,,0,0,0,152,1
61462f791eb4fbf23ec1d583,63f3cfca20052e4ae7554ebf,6453c67e74af6c7cb8a49340,2023-05-04_16h53.19.835,ga_syllabified_check,2022.2.5,Linux x86_64,60.0240096,,,,,,,,,,,,,,./stim/p05_syllable_1_lakaduaisto_hit.wav,p05,lakaduaisto,hit,la-ka-dais-to,la-ka-duais-to,la-ka-du-ais-to,la-ka-dua-is-to,-0.319444444,-0.12037037,1,0,0,7.733,text_option_1,,0,1,1,77,1
61462f791eb4fbf23ec1d583,63f3cfca20052e4ae7554ebf,6453c67e74af6c7cb8a49340,2023-05-04_16h53.19.835,ga_syllabified_check,2022.2.5,Linux x86_64,60.0240096,,,,,,,,,,,,,,./stim/p05_syllable_1_lakakiaisto_hit.wav,p05,lakakiaisto,hit,la-ka-ki-ais-to,la-ka-kiais-to,la-ka-ki-ais-to,la-ka-kia-is-to,-0.338888889,-0.094444444,1,0,0,16.549,text_option_1,,0,2,2,82,1
61462f791eb4fbf23ec1d583,63f3cfca20052e4ae7554ebf,6453c67e74af6c7cb8a49340,2023-05-04_16h53.19.835,ga_syllabified_check,2022.2.5,Linux x86_64,60.0240096,,,,,,,,,,,,,,./stim/p08_syllable_1_mebochiana_hit.wav,p08,mebochiana,hit,me-bo-chi-a-na,me-bo-chia-na,me-bo-chi-a-na, ,0.432407407,-0.109259259,1,0,0,11.067,text_option_2,,0,3,3,192,1
61462f791eb4fbf23ec1d583,63f3cfca20052e4ae7554ebf,6453c67e74af6c7cb8a49340,2023-05-04_16h53.19.835,ga_syllabified_check,2022.2.5,Linux x86_64,60.0240096,,,,,,,,,,,,,,./stim/p07_syllable_1_payielo_hit.wav,p07,payielo,hit,pa-yie-lo,pa-yie-lo,pa-yi-e-lo, ,-0.346296296,-0.090740741,1,0,0,1.35,text_option_1,,0,4,4,166,1
61462f791eb4fbf23ec1d583,63f3cfca20052e4ae7554ebf,6453c67e74af6c7cb8a49340,2023-05-04_16h53.19.835,ga_syllabified_check,2022.2.5,Linux x86_64,60.0240096,,,,,,,,,,,,,,./stim/p08_syllable_1_palutrauco_hit.wav,p08,palutrauco,hit,pa-lu-trau-ko,pa-lu-trau-co,pa-lu-tra-u-co, ,-0.440740741,-0.122222222,1,0,0,3.351,text_option_1,,0,5,5,199,1
61462f791eb4fbf23ec1d583,63f3cfca20052e4ae7554ebf,6453c67e74af6c7cb8a49340,2023-05-04_16h53.19.835,ga_syllabified_check,2022.2.5,Linux x86_64,60.0240096,,,,,,,,,,,,,,./stim/p03_syllable_1_lakaguaisto_hit.wav,p03,lakaguaisto,hit,la-ka-guais-to,la-ka-guais-to,la-ka-gu-ais-to,la-ka-gua-is-to,-0.375925926,-0.103703704,1,0,0,2.634,text_option_1,,0,6,6,13,1
61462f791eb4fbf23ec1d583,63f3cfca20052e4ae7554ebf,6453c67e74af6c7cb8a49340,2023-05-04_16h53.19.835,ga_syllabified_check,2022.2.5,Linux x86_64,60.0240096,,,,,,,,,,,,,,./stim/p08_syllable_1_costonhialo_hit.wav,p08,costoñialo,hit,cos-to-nhia-lo,cos-to-ñia-lo,cos-to-ñi-a-lo, ,-0.338888889,-0.114814815,1,0,0,4.051,text_option_1,,0,7,7,171,1
61462f791eb4fbf23ec1d583,63f3cfca20052e4ae7554ebf,6453c67e74af6c7cb8a49340,2023-05-04_16h53.19.835,ga_syllabified_check,2022.2.5,Linux x86_64,60.0240096,,,,,,,,,,,,,,./stim/p04_syllable_1_lakadiaisto_hit.wav,p04,lakadiaisto,hit,la-ka-dias-to,la-ka-diais-to,la-ka-di-ais-to,la-ka-dia-is-to,0.434259259,-0.094444444,1,0,0,9.918,text_option_2,,0,8,8,42,1
61462f791eb4fbf23ec1d583,63f3cfca20052e4ae7554ebf,6453c67e74af6c7cb8a49340,2023-05-04_16h53.19.835,ga_syllabified_check,2022.2.5,Linux x86_64,60.0240096,,,,,,,,,,,,,,./stim/p03_syllable_1_lliape_hit.wav,p03,lliape,hit,llia,llia-pe,lli-a-pe, ,-0.385185185,-0.083333333,1,0,0,1.134,text_option_1,,0,9,9,20,1
61462f791eb4fbf23ec1d583,63f3cfca20052e4ae7554ebf,6453c67e74af6c7cb8a49340,2023-05-04_16h53.19.835,ga_syllabified_check,2022.2.5,Linux x86_64,60.0240096,,,,,,,,,,,,,,./stim/p08_syllable_1_lakaguaisto_hit.wav,p08,lakaguaisto,hit,la-ka-gu-ais-to,la-ka-guais-to,la-ka-gu-ais-to,la-ka-gua-is-to,0.418518519,-0.099074074,1,0,0,4,text_option_2,,0,10,10,183,1
61462f791eb4fbf23ec1d583,63f3cfca20052e4ae7554ebf,6453c67e74af6c7cb8a49340,2023-05-04_16h53.19.835,ga_syllabified_check,2022.2.5,Linux x86_64,60.0240096,,,,,,,,,,,,,,./stim/p08_syllable_1_lakatuaisto_hit.wav,p08,lakatuaisto,hit,la-ka-tu-i-jis,la-ka-tuais-to,la-ka-tu-ais-to,la-ka-tua-is-to,0.053703704,-0.116666667,1,0,0,6.567,text_option_3,,0,11,11,189,1
61462f791eb4fbf23ec1d583,63f3cfca20052e4ae7554ebf,6453c67e74af6c7cb8a49340,2023-05-04_16h53.19.835,ga_syllabified_check,2022.2.5,Linux x86_64,60.0240096,,,,,,,,,,,,,,./stim/p06_syllable_1_lakadiaisto_hit.wav,p06,lakadiaisto,hit,la-ka-dia-is-to,la-ka-diais-to,la-ka-di-ais-to,la-ka-dia-is-to,0.057407407,-0.096296296,1,0,0,3.85,text_option_3,,0,12,12,110,1
61462f791eb4fbf23ec1d583,63f3cfca20052e4ae7554ebf,6453c67e74af6c7cb8a49340,2023-05-04_16h53.19.835,ga_syllabified_check,2022.2.5,Linux x86_64,60.0240096,,,,,,,,,,,,,,./stim/p05_syllable_1_pachialo_hit.wav,p05,pachialo,hit,pan-chia-lo,pa-chia-lo,pa-chi-a-lo, ,0.336111111,-0.109259259,1,0,0,5.2,text_option_2,,0,13,13,92,1
61462f791eb4fbf23ec1d583,63f3cfca20052e4ae7554ebf,6453c67e74af6c7cb8a49340,2023-05-04_16h53.19.835,ga_syllabified_check,2022.2.5,Linux x86_64,60.0240096,,,,,,,,,,,,,,./stim/p05_syllable_1_chiaba_hit.wav,p05,chiaba,hit,chia-ba,chia-ba,chi-a-ba, ,-0.356481481,-0.115740741,1,0,0,3.633,text_option_1,,0,14,14,68,1
61462f791eb4fbf23ec1d583,63f3cfca20052e4ae7554ebf,6453c67e74af6c7cb8a49340,2023-05-04_16h53.19.835,ga_syllabified_check,2022.2.5,Linux x86_64,60.0240096,,,,,,,,,,,,,,./stim/p08_syllable_1_falufaisto_hit.wav,p08,falufaisto,hit,fa-lu-fais-to,fa-lu-fais-to,fa-lu-fa-is-to, ,-0.346296296,-0.108333333,1,0,0,2.282,text_option_1,,0,15,15,173,1
61462f791eb4fbf23ec1d583,63f3cfca20052e4ae7554ebf,6453c67e74af6c7cb8a49340,2023-05-04_16h53.19.835,ga_syllabified_check,2022.2.5,Linux x86_64,60.0240096,,,,,,,,,,,,,,./stim/p04_syllable_1_payielo_hit.wav,p04,payielo,hit,pa-yie-lo,pa-yie-lo,pa-yi-e-lo, ,-0.346296296,-0.108333333,1,0,0,1.001,text_option_1,,0,16,16,64,1
61462f791eb4fbf23ec1d583,63f3cfca20052e4ae7554ebf,6453c67e74af6c7cb8a49340,2023-05-04_16h53.19.835,ga_syllabified_check,2022.2.5,Linux x86_64,60.0240096,,,,,,,,,,,,,,./stim/p08_syllable_1_pachialo_hit.wav,p08,pachialo,hit,pa-chi-ja-lo,pa-chia-lo,pa-chi-a-lo, ,0.362037037,-0.096296296,1,0,0,1.716,text_option_2,,0,17,17,194,1
61462f791eb4fbf23ec1d583,63f3cfca20052e4ae7554ebf,6453c67e74af6c7cb8a49340,2023-05-04_16h53.19.835,ga_syllabified_check,2022.2.5,Linux x86_64,60.0240096,,,,,,,,,,,,,,./stim/p07_syllable_1_flauro_hit.wav,p07,flauro,hit,flau-ro,flau-ro,fla-u-ro, ,-0.383333333,-0.116666667,1,0,0,1.101,text_option_1,,0,18,18,141,1
61462f791eb4fbf23ec1d583,63f3cfca20052e4ae7554ebf,6453c67e74af6c7cb8a49340,2023-05-04_16h53.19.835,ga_syllabified_check,2022.2.5,Linux x86_64,60.0240096,,,,,,,,,,,,,,./stim/p03_syllable_1_lakafuaisto_hit.wav,p03,lakafuaisto,hit,la-ka-fuais-to,la-ka-fuais-to,la-ka-fu-ais-to,la-ka-fua-is-to,-0.34537037,-0.100925926,1,0,0,2.7,text_option_1,,0,19,19,11,1
61462f791eb4fbf23ec1d583,63f3cfca20052e4ae7554ebf,6453c67e74af6c7cb8a49340,2023-05-04_16h53.19.835,ga_syllabified_check,2022.2.5,Linux x86_64,60.0240096,,,,,,,,,,,,,,./stim/p06_syllable_1_mebochiana_hit.wav,p06,mebochiana,hit,me-bo-shi-a-na,me-bo-chia-na,me-bo-chi-a-na, ,0.448148148,-0.091666667,1,0,0,3.484,text_option_2,,0,20,20,124,1
61462f791eb4fbf23ec1d583,63f3cfca20052e4ae7554ebf,6453c67e74af6c7cb8a49340,2023-05-04_16h53.19.835,ga_syllabified_check,2022.2.5,Linux x86_64,60.0240096,,,,,,,,,,,,,,./stim/p05_syllable_1_nhiape_hit.wav,p05,ñiape,hit,nhia-pe,ñia-pe,ñi-a-pe, ,-0.428703704,-0.105555556,1,0,0,1,text_option_1,,0,21,21,91,1
61462f791eb4fbf23ec1d583,63f3cfca20052e4ae7554ebf,6453c67e74af6c7cb8a49340,2023-05-04_16h53.19.835,ga_syllabified_check,2022.2.5,Linux x86_64,60.0240096,,,,,,,,,,,,,,./stim/p07_syllable_1_palufauro_hit.wav,p07,palufauro,hit,pa-lu-fau-ro,pa-lu-fau-ro,pa-lu-fa-u-ro, ,-0.341666667,-0.099074074,1,0,0,2.418,text_option_1,,0,22,22,161,1
61462f791eb4fbf23ec1d583,63f3cfca20052e4ae7554ebf,6453c67e74af6c7cb8a49340,2023-05-04_16h53.19.835,ga_syllabified_check,2022.2.5,Linux x86_64,60.0240096,,,,,,,,,,,,,,./stim/p03_syllable_1_lakakuaisto_hit.wav,p03,lakakuaisto,hit,la-ka-kuais-to,la-ka-kuais-to,la-ka-ku-ais-to,la-ka-kua-is-to,-0.35462963,-0.118518519,1,0,0,2.5,text_option_1,,0,23,23,15,1
61462f791eb4fbf23ec1d583,63f3cfca20052e4ae7554ebf,6453c67e74af6c7cb8a49340,2023-05-04_16h53.19.835,ga_syllabified_check,2022.2.5,Linux x86_64,60.0240096,,,,,,,,,,,,,,./stim/p07_syllable_1_palutrauco_hit.wav,p07,palutrauco,hit,pa-lu-trau-co,pa-lu-trau-co,pa-lu-tra-u-co, ,-0.312962963,-0.10462963,1,0,0,1.834,text_option_1,,0,24,24,165,1
61462f791eb4fbf23ec1d583,63f3cfca20052e4ae7554ebf,6453c67e74af6c7cb8a49340,2023-05-04_16h53.19.835,ga_syllabified_check,2022.2.5,Linux x86_64,60.0240096,,,,,,,,,,,,,,./stim/p08_syllable_1_chiaba_hit.wav,p08,chiaba,hit,chi-a-ba,chia-ba,chi-a-ba, ,0.439814815,-0.094444444,1,0,0,1.45,text_option_2,,0,25,25,170,1
61462f791eb4fbf23ec1d583,63f3cfca20052e4ae7554ebf,6453c67e74af6c7cb8a49340,2023-05-04_16h53.19.835,ga_syllabified_check,2022.2.5,Linux x86_64,60.0240096,,,,,,,,,,,,,,./stim/p03_syllable_1_costonhialo_hit.wav,p03,costoñialo,hit,cos-to-nhia-lo,cos-to-ñia-lo,cos-to-ñi-a-lo, ,-0.341666667,-0.108333333,1,0,0,1.467,text_option_1,,0,26,26,1,1
61462f791eb4fbf23ec1d583,63f3cfca20052e4ae7554ebf,6453c67e74af6c7cb8a49340,2023-05-04_16h53.19.835,ga_syllabified_check,2022.2.5,Linux x86_64,60.0240096,,,,,,,,,,,,,,./stim/p08_syllable_1_lakagiaisto_hit.wav,p08,lakagiaisto,hit,la-ka-gi-jas-to,la-ka-giais-to,la-ka-gi-ais-to,la-ka-gia-is-to,0.42962963,-0.105555556,1,0,0,3.967,text_option_2,,0,27,27,182,1
61462f791eb4fbf23ec1d583,63f3cfca20052e4ae7554ebf,6453c67e74af6c7cb8a49340,2023-05-04_16h53.19.835,ga_syllabified_check,2022.2.5,Linux x86_64,60.0240096,,,,,,,,,,,,,,./stim/p03_syllable_1_lakabuaisto_hit.wav,p03,lakabuaisto,hit,la-ka-buais-to,la-ka-buais-to,la-ka-bu-ais-to,la-ka-bua-is-to,-0.339814815,-0.107407407,1,0,0,2.068,text_option_1,,0,28,28,7,1
61462f791eb4fbf23ec1d583,63f3cfca20052e4ae7554ebf,6453c67e74af6c7cb8a49340,2023-05-04_16h53.19.835,ga_syllabified_check,2022.2.5,Linux x86_64,60.0240096,,,,,,,,,,,,,,./stim/p07_syllable_1_faluduako_hit.wav,p07,faluduako,hit,fa-lu-dua-ko,fa-lu-dua-ko,fa-lu-du-a-ko, ,-0.356481481,-0.106481481,1,0,0,2.284,text_option_1,,0,29,29,138,1
61462f791eb4fbf23ec1d583,63f3cfca20052e4ae7554ebf,6453c67e74af6c7cb8a49340,2023-05-04_16h53.19.835,ga_syllabified_check,2022.2.5,Linux x86_64,60.0240096,,,,,,,,,,,,,,./stim/p07_syllable_1_lakabuaisto_hit.wav,p07,lakabuaisto,hit,la-ka-buais-to,la-ka-buais-to,la-ka-bu-ais-to,la-ka-bua-is-to,-0.392592593,-0.107407407,1,0,0,2.217,text_option_1,,0,30,30,143,1
61462f791eb4fbf23ec1d583,63f3cfca20052e4ae7554ebf,6453c67e74af6c7cb8a49340,2023-05-04_16h53.19.835,ga_syllabified_check,2022.2.5,Linux x86_64,60.0240096,,,,,,,,,,,,,,./stim/p05_syllable_1_falufaisto_hit.wav,p05,falufaisto,hit,fa-lu-fais-to,fa-lu-fais-to,fa-lu-fa-is-to, ,-0.339814815,-0.107407407,1,0,0,1.184,text_option_1,,0,31,31,71,1
61462f791eb4fbf23ec1d583,63f3cfca20052e4ae7554ebf,6453c67e74af6c7cb8a49340,2023-05-04_16h53.19.835,ga_syllabified_check,2022.2.5,Linux x86_64,60.0240096,,,,,,,,,,,,,,./stim/p03_syllable_1_palufauro_hit.wav,p03,palufauro,hit,pa-lu-fau-ro,pa-lu-fau-ro,pa-lu-fa-u-ro, ,-0.331481481,-0.097222222,1,0,0,1.934,text_option_1,,0,32,32,25,1
61462f791eb4fbf23ec1d583,63f3cfca20052e4ae7554ebf,6453c67e74af6c7cb8a49340,2023-05-04_16h53.19.835,ga_syllabified_check,2022.2.5,Linux x86_64,60.0240096,,,,,,,,,,,,,,./stim/p04_syllable_1_ruyiola_hit.wav,p04,ruyiola,hit,ru-yio-la,ru-yio-la,ru-yi-o-la, ,-0.402777778,-0.110185185,1,0,0,1.6,text_option_1,,0,33,33,66,1
61462f791eb4fbf23ec1d583,63f3cfca20052e4ae7554ebf,6453c67e74af6c7cb8a49340,2023-05-04_16h53.19.835,ga_syllabified_check,2022.2.5,Linux x86_64,60.0240096,,,,,,,,,,,,,,./stim/p08_syllable_1_lakafiaisto_hit.wav,p08,lakafiaisto,hit,la-ka-fi-as-to,la-ka-fiais-to,la-ka-fi-ais-to,la-ka-fia-is-to,0.441666667,-0.10462963,1,0,0,8.466,text_option_2,,0,34,34,180,1
61462f791eb4fbf23ec1d583,63f3cfca20052e4ae7554ebf,6453c67e74af6c7cb8a49340,2023-05-04_16h53.19.835,ga_syllabified_check,2022.2.5,Linux x86_64,60.0240096,,,,,,,,,,,,,,./stim/p08_syllable_1_lakakiaisto_hit.wav,p08,lakakiaisto,hit,la-ka-ki-jas-to,la-ka-kiais-to,la-ka-ki-ais-to,la-ka-kia-is-to,0.453703704,-0.107407407,1,0,0,5.883,text_option_2,,0,35,35,184,1
61462f791eb4fbf23ec1d583,63f3cfca20052e4ae7554ebf,6453c67e74af6c7cb8a49340,2023-05-04_16h53.19.835,ga_syllabified_check,2022.2.5,Linux x86_64,60.0240096,,,,,,,,,,,,,,./stim/p03_syllable_1_flauro_hit.wav,p03,flauro,hit,flau-ro,flau-ro,fla-u-ro, ,-0.403703704,-0.092592593,1,0,0,0.917,text_option_1,,0,36,36,5,1
61462f791eb4fbf23ec1d583,63f3cfca20052e4ae7554ebf,6453c67e74af6c7cb8a49340,2023-05-04_16h53.19.835,ga_syllabified_check,2022.2.5,Linux x86_64,60.0240096,,,,,,,,,,,,,,./stim/p03_syllable_1_manhiala_hit.wav,p03,mañiala,hit,ma-nhia-la,ma-ñia-la,ma-ñi-a-la, ,-0.40462963,-0.106481481,1,0,0,2.517,text_option_1,,0,37,37,21,1
61462f791eb4fbf23ec1d583,63f3cfca20052e4ae7554ebf,6453c67e74af6c7cb8a49340,2023-05-04_16h53.19.835,ga_syllabified_check,2022.2.5,Linux x86_64,60.0240096,,,,,,,,,,,,,,./stim/p05_syllable_1_tuliafo_hit.wav,p05,tuliafo,hit,tu-lai-fo,tu-lia-fo,tu-li-a-fo, ,-0.399074074,-0.111111111,1,0,0,1.632,text_option_1,,0,38,38,101,1
61462f791eb4fbf23ec1d583,63f3cfca20052e4ae7554ebf,6453c67e74af6c7cb8a49340,2023-05-04_16h53.19.835,ga_syllabified_check,2022.2.5,Linux x86_64,60.0240096,,,,,,,,,,,,,,./stim/p06_syllable_1_manhiala_hit.wav,p06,mañiala,hit,ma-nhi-a-la,ma-ñia-la,ma-ñi-a-la, ,0.462962963,-0.091666667,1,0,0,1.917,text_option_2,,0,39,39,123,1
61462f791eb4fbf23ec1d583,63f3cfca20052e4ae7554ebf,6453c67e74af6c7cb8a49340,2023-05-04_16h53.19.835,ga_syllabified_check,2022.2.5,Linux x86_64,60.0240096,,,,,,,,,,,,,,./stim/p06_syllable_1_lliape_hit.wav,p06,lliape,hit,lli-lla-pe,llia-pe,lli-a-pe, ,0.396296296,-0.10462963,1,0,0,0.75,text_option_2,,0,40,40,122,1
61462f791eb4fbf23ec1d583,63f3cfca20052e4ae7554ebf,6453c67e74af6c7cb8a49340,2023-05-04_16h53.19.835,ga_syllabified_check,2022.2.5,Linux x86_64,60.0240096,,,,,,,,,,,,,,./stim/p06_syllable_1_pachialo_hit.wav,p06,pachialo,hit,pa-shi-a-lo,pa-chia-lo,pa-chi-a-lo, ,0.418518519,-0.109259259,1,0,0,2.483,text_option_2,,0,41,41,126,1
61462f791eb4fbf23ec1d583,63f3cfca20052e4ae7554ebf,6453c67e74af6c7cb8a49340,2023-05-04_16h53.19.835,ga_syllabified_check,2022.2.5,Linux x86_64,60.0240096,,,,,,,,,,,,,,./stim/p06_syllable_1_lakakiaisto_hit.wav,p06,lakakiaisto,hit,la-ka-kia-is-to,la-ka-kiais-to,la-ka-ki-ais-to,la-ka-kia-is-to,0.040740741,-0.103703704,1,0,0,3.783,text_option_3,,0,42,42,116,1
61462f791eb4fbf23ec1d583,63f3cfca20052e4ae7554ebf,6453c67e74af6c7cb8a49340,2023-05-04_16h53.19.835,ga_syllabified_check,2022.2.5,Linux x86_64,60.0240096,,,,,,,,,,,,,,./stim/p08_syllable_1_palufauro_hit.wav,p08,palufauro,hit,pa-lu-fau-ro,pa-lu-fau-ro,pa-lu-fa-u-ro, ,-0.356481481,-0.105555556,1,0,0,3.531,text_option_1,,0,43,43,195,1
61462f791eb4fbf23ec1d583,63f3cfca20052e4ae7554ebf,6453c67e74af6c7cb8a49340,2023-05-04_16h53.19.835,ga_syllabified_check,2022.2.5,Linux x86_64,60.0240096,,,,,,,,,,,,,,./stim/p08_syllable_1_lakabiaisto_hit.wav,p08,lakabiaisto,hit,la-ka-bi-as-to,la-ka-biais-to,la-ka-bi-ais-to,la-ka-bia-is-to,0.446296296,-0.105555556,1,0,0,4.501,text_option_2,,0,44,44,176,1
61462f791eb4fbf23ec1d583,63f3cfca20052e4ae7554ebf,6453c67e74af6c7cb8a49340,2023-05-04_16h53.19.835,ga_syllabified_check,2022.2.5,Linux x86_64,60.0240096,,,,,,,,,,,,,,./stim/p07_syllable_1_lakagiaisto_hit.wav,p07,lakagiaisto,hit,la-ka-gais-to,la-ka-giais-to,la-ka-gi-ais-to,la-ka-gia-is-to,-0.364814815,-0.110185185,1,0,0,2.118,text_option_1,,0,45,45,148,1
61462f791eb4fbf23ec1d583,63f3cfca20052e4ae7554ebf,6453c67e74af6c7cb8a49340,2023-05-04_16h53.19.835,ga_syllabified_check,2022.2.5,Linux x86_64,60.0240096,,,,,,,,,,,,,,./stim/p07_syllable_1_lakatuaisto_hit.wav,p07,lakatuaisto,hit,la-ka-tuais-to,la-ka-tuais-to,la-ka-tu-ais-to,la-ka-tua-is-to,-0.337037037,-0.110185185,1,0,0,2.634,text_option_1,,0,46,46,155,1
61462f791eb4fbf23ec1d583,63f3cfca20052e4ae7554ebf,6453c67e74af6c7cb8a49340,2023-05-04_16h53.19.835,ga_syllabified_check,2022.2.5,Linux x86_64,60.0240096,,,,,,,,,,,,,,./stim/p05_syllable_1_lakabuaisto_hit.wav,p05,lakabuaisto,hit,la-ka-buais-to,la-ka-buais-to,la-ka-bu-ais-to,la-ka-bua-is-to,-0.348148148,-0.116666667,1,0,0,2.567,text_option_1,,0,47,47,75,1
61462f791eb4fbf23ec1d583,63f3cfca20052e4ae7554ebf,6453c67e74af6c7cb8a49340,2023-05-04_16h53.19.835,ga_syllabified_check,2022.2.5,Linux x86_64,60.0240096,,,,,,,,,,,,,,./stim/p06_syllable_1_lakafiaisto_hit.wav,p06,lakafiaisto,hit,la-ka-fia-is-to,la-ka-fiais-to,la-ka-fi-ais-to,la-ka-fia-is-to,0.006481481,-0.10462963,1,0,0,3.35,text_option_3,,0,48,48,112,1
61462f791eb4fbf23ec1d583,63f3cfca20052e4ae7554ebf,6453c67e74af6c7cb8a49340,2023-05-04_16h53.19.835,ga_syllabified_check,2022.2.5,Linux x86_64,60.0240096,,,,,,,,,,,,,,./stim/p04_syllable_1_lakatuaisto_hit.wav,p04,lakatuaisto,hit,la-ka-kuais-to,la-ka-tuais-to,la-ka-tu-ais-to,la-ka-tua-is-to,-0.402777778,-0.098148148,1,0,0,1.5,text_option_1,,0,49,49,53,1
61462f791eb4fbf23ec1d583,63f3cfca20052e4ae7554ebf,6453c67e74af6c7cb8a49340,2023-05-04_16h53.19.835,ga_syllabified_check,2022.2.5,Linux x86_64,60.0240096,,,,,,,,,,,,,,./stim/p07_syllable_1_paluguato_hit.wav,p07,paluguato,hit,pa-lu-gua-to,pa-lu-gua-to,pa-lu-gu-a-to, ,-0.416666667,-0.110185185,1,0,0,2.183,text_option_1,,0,50,50,163,1
61462f791eb4fbf23ec1d583,63f3cfca20052e4ae7554ebf,6453c67e74af6c7cb8a49340,2023-05-04_16h53.19.835,ga_syllabified_check,2022.2.5,Linux x86_64,60.0240096,,,,,,,,,,,,,,./stim/p04_syllable_1_faluduako_hit.wav,p04,faluduako,hit,fa-lu-dua-ko,fa-lu-dua-ko,fa-lu-du-a-ko, ,-0.335185185,-0.100925926,1,0,0,1.683,text_option_1,,0,51,51,36,1
61462f791eb4fbf23ec1d583,63f3cfca20052e4ae7554ebf,6453c67e74af6c7cb8a49340,2023-05-04_16h53.19.835,ga_syllabified_check,2022.2.5,Linux x86_64,60.0240096,,,,,,,,,,,,,,./stim/p07_syllable_1_lakafuaisto_hit.wav,p07,lakafuaisto,hit,la-ka-fuais-to,la-ka-fuais-to,la-ka-fu-ais-to,la-ka-fua-is-to,-0.35462963,-0.096296296,1,0,0,2.384,text_option_1,,0,52,52,147,1
61462f791eb4fbf23ec1d583,63f3cfca20052e4ae7554ebf,6453c67e74af6c7cb8a49340,2023-05-04_16h53.19.835,ga_syllabified_check,2022.2.5,Linux x86_64,60.0240096,,,,,,,,,,,,,,./stim/p03_syllable_1_falutraigo_hit.wav,p03,falutraigo,hit,fa-lu-trai-go,fa-lu-trai-go,fa-lu-tra-i-go, ,-0.335185185,-0.098148148,1,0,0,3.033,text_option_1,,0,53,53,4,1
61462f791eb4fbf23ec1d583,63f3cfca20052e4ae7554ebf,6453c67e74af6c7cb8a49340,2023-05-04_16h53.19.835,ga_syllabified_check,2022.2.5,Linux x86_64,60.0240096,,,,,,,,,,,,,,./stim/p05_syllable_1_lakaguaisto_hit.wav,p05,lakaguaisto,hit,la-ka-gais,la-ka-guais-to,la-ka-gu-ais-to,la-ka-gua-is-to,-0.333333333,-0.109259259,1,0,0,1.534,text_option_1,,0,54,54,81,1
61462f791eb4fbf23ec1d583,63f3cfca20052e4ae7554ebf,6453c67e74af6c7cb8a49340,2023-05-04_16h53.19.835,ga_syllabified_check,2022.2.5,Linux x86_64,60.0240096,,,,,,,,,,,,,,./stim/p05_syllable_1_falutraigo_hit.wav,p05,falutraigo,hit,fa-lu-trai-go,fa-lu-trai-go,fa-lu-tra-i-go, ,-0.364814815,-0.106481481,1,0,0,2.017,text_option_1,,0,55,55,72,1
61462f791eb4fbf23ec1d583,63f3cfca20052e4ae7554ebf,6453c67e74af6c7cb8a49340,2023-05-04_16h53.19.835,ga_syllabified_check,2022.2.5,Linux x86_64,60.0240096,,,,,,,,,,,,,,./stim/p03_syllable_1_ruyiola_hit.wav,p03,ruyiola,hit,ru-yio-la,ru-yio-la,ru-yi-o-la, ,-0.384259259,-0.099074074,1,0,0,1.184,text_option_1,,0,56,56,32,1
61462f791eb4fbf23ec1d583,63f3cfca20052e4ae7554ebf,6453c67e74af6c7cb8a49340,2023-05-04_16h53.19.835,ga_syllabified_check,2022.2.5,Linux x86_64,60.0240096,,,,,,,,,,,,,,./stim/p07_syllable_1_palumaisto_hit.wav,p07,palumaisto,hit,pa-lu-mais-to,pa-lu-mais-to,pa-lu-ma-is-to, ,-0.355555556,-0.094444444,1,0,0,2.617,text_option_1,,0,57,57,164,1
61462f791eb4fbf23ec1d583,63f3cfca20052e4ae7554ebf,6453c67e74af6c7cb8a49340,2023-05-04_16h53.19.835,ga_syllabified_check,2022.2.5,Linux x86_64,60.0240096,,,,,,,,,,,,,,./stim/p08_syllable_1_flauro_hit.wav,p08,flauro,hit,flau-ro,flau-ro,fla-u-ro, ,-0.355555556,-0.09537037,1,0,0,0.884,text_option_1,,0,58,58,175,1
61462f791eb4fbf23ec1d583,63f3cfca20052e4ae7554ebf,6453c67e74af6c7cb8a49340,2023-05-04_16h53.19.835,ga_syllabified_check,2022.2.5,Linux x86_64,60.0240096,,,,,,,,,,,,,,./stim/p06_syllable_1_lakatuaisto_hit.wav,p06,lakatuaisto,hit,la-ka-tu-a-is,la-ka-tuais-to,la-ka-tu-ais-to,la-ka-tua-is-to,0.066666667,-0.313888889,1,0,0,8.434,text_option_other,la-ka-tu-a-is-to,0,59,59,121,1
61462f791eb4fbf23ec1d583,63f3cfca20052e4ae7554ebf,6453c67e74af6c7cb8a49340,2023-05-04_16h53.19.835,ga_syllabified_check,2022.2.5,Linux x86_64,60.0240096,,,,,,,,,,,,,,./stim/p08_syllable_1_tuliafo_hit.wav,p08,tuliafo,hit,tu-li-a-fo,tu-lia-fo,tu-li-a-fo, ,0.397222222,-0.118518519,1,0,0,1.999,text_option_2,,0,60,60,203,1
61462f791eb4fbf23ec1d583,63f3cfca20052e4ae7554ebf,6453c67e74af6c7cb8a49340,2023-05-04_16h53.19.835,ga_syllabified_check,2022.2.5,Linux x86_64,60.0240096,,,,,,,,,,,,,,./stim/p03_syllable_1_lakaduaisto_hit.wav,p03,lakaduaisto,hit,la-ka-duais-to,la-ka-duais-to,la-ka-du-ais-to,la-ka-dua-is-to,-0.357407407,-0.09537037,1,0,0,3.7,text_option_1,,0,61,61,9,1
61462f791eb4fbf23ec1d583,63f3cfca20052e4ae7554ebf,6453c67e74af6c7cb8a49340,2023-05-04_16h53.19.835,ga_syllabified_check,2022.2.5,Linux x86_64,60.0240096,,,,,,,,,,,,,,./stim/p05_syllable_1_lakafiaisto_hit.wav,p05,lakafiaisto,hit,la-ka-fi-ais-to,la-ka-fiais-to,la-ka-fi-ais-to,la-ka-fia-is-to,0.455555556,-0.108333333,1,0,0,4.284,text_option_2,,0,62,62,78,1
61462f791eb4fbf23ec1d583,63f3cfca20052e4ae7554ebf,6453c67e74af6c7cb8a49340,2023-05-04_16h53.19.835,ga_syllabified_check,2022.2.5,Linux x86_64,60.0240096,,,,,,,,,,,,,,./stim/p03_syllable_1_mebochiana_hit.wav,p03,mebochiana,hit,me-bo-chia-na,me-bo-chia-na,me-bo-chi-a-na, ,-0.384259259,-0.107407407,1,0,0,1.733,text_option_1,,0,63,63,22,1
61462f791eb4fbf23ec1d583,63f3cfca20052e4ae7554ebf,6453c67e74af6c7cb8a49340,2023-05-04_16h53.19.835,ga_syllabified_check,2022.2.5,Linux x86_64,60.0240096,,,,,,,,,,,,,,./stim/p04_syllable_1_lakapuaisto_hit.wav,p04,lakapuaisto,hit,la-ka-puais-to,la-ka-puais-to,la-ka-pu-ais-to,la-ka-pua-is-to,-0.32037037,-0.105555556,1,0,0,1.784,text_option_1,,0,64,64,51,1
61462f791eb4fbf23ec1d583,63f3cfca20052e4ae7554ebf,6453c67e74af6c7cb8a49340,2023-05-04_16h53.19.835,ga_syllabified_check,2022.2.5,Linux x86_64,60.0240096,,,,,,,,,,,,,,./stim/p04_syllable_1_falufaisto_hit.wav,p04,falufaisto,hit,fa-lu-fais-to,fa-lu-fais-to,fa-lu-fa-is-to, ,-0.402777778,-0.097222222,1,0,0,1.284,text_option_1,,0,65,65,37,1
61462f791eb4fbf23ec1d583,63f3cfca20052e4ae7554ebf,6453c67e74af6c7cb8a49340,2023-05-04_16h53.19.835,ga_syllabified_check,2022.2.5,Linux x86_64,60.0240096,,,,,,,,,,,,,,./stim/p06_syllable_1_chiaba_hit.wav,p06,chiaba,hit,chi-a-ba,chia-ba,chi-a-ba, ,0.416666667,-0.102777778,1,0,0,1.934,text_option_2,,0,66,66,102,1
61462f791eb4fbf23ec1d583,63f3cfca20052e4ae7554ebf,6453c67e74af6c7cb8a49340,2023-05-04_16h53.19.835,ga_syllabified_check,2022.2.5,Linux x86_64,60.0240096,,,,,,,,,,,,,,./stim/p03_syllable_1_palutrauco_hit.wav,p03,palutrauco,hit,pa-lu-trau-co,pa-lu-trau-co,pa-lu-tra-u-co, ,-0.361111111,-0.097222222,1,0,0,1.299,text_option_1,,0,67,67,29,1
61462f791eb4fbf23ec1d583,63f3cfca20052e4ae7554ebf,6453c67e74af6c7cb8a49340,2023-05-04_16h53.19.835,ga_syllabified_check,2022.2.5,Linux x86_64,60.0240096,,,,,,,,,,,,,,./stim/p04_syllable_1_lakabuaisto_hit.wav,p04,lakabuaisto,hit,la-ka-buais-to,la-ka-buais-to,la-ka-bu-ais-to,la-ka-bua-is-to,-0.334259259,-0.10462963,1,0,0,1.633,text_option_1,,0,68,68,41,1
61462f791eb4fbf23ec1d583,63f3cfca20052e4ae7554ebf,6453c67e74af6c7cb8a49340,2023-05-04_16h53.19.835,ga_syllabified_check,2022.2.5,Linux x86_64,60.0240096,,,,,,,,,,,,,,./stim/p05_syllable_1_palufauro_hit.wav,p05,palufauro,hit,pa-lu-fau-ro,pa-lu-fau-ro,pa-lu-fa-u-ro, ,-0.376851852,-0.110185185,1,0,0,1.4,text_option_1,,0,69,69,93,1
61462f791eb4fbf23ec1d583,63f3cfca20052e4ae7554ebf,6453c67e74af6c7cb8a49340,2023-05-04_16h53.19.835,ga_syllabified_check,2022.2.5,Linux x86_64,60.0240096,,,,,,,,,,,,,,./stim/p08_syllable_1_nhiape_hit.wav,p08,ñiape,hit,ni-a-pe,ñia-pe,ñi-a-pe, ,0.453703704,-0.107407407,1,0,0,1.233,text_option_2,,0,70,70,193,1
61462f791eb4fbf23ec1d583,63f3cfca20052e4ae7554ebf,6453c67e74af6c7cb8a49340,2023-05-04_16h53.19.835,ga_syllabified_check,2022.2.5,Linux x86_64,60.0240096,,,,,,,,,,,,,,./stim/p03_syllable_1_payielo_hit.wav,p03,payielo,hit,pa-yie-lo,pa-yie-lo,pa-yi-e-lo, ,-0.388888889,-0.103703704,1,0,0,1.2,text_option_1,,0,71,71,30,1
61462f791eb4fbf23ec1d583,63f3cfca20052e4ae7554ebf,6453c67e74af6c7cb8a49340,2023-05-04_16h53.19.835,ga_syllabified_check,2022.2.5,Linux x86_64,60.0240096,,,,,,,,,,,,,,./stim/p05_syllable_1_lakatiaisto_hit.wav,p05,lakatiaisto,hit,la-ka-ti-ais-to,la-ka-tiais-to,la-ka-ti-ais-to,la-ka-tia-is-to,-0.372222222,-0.096296296,1,0,0,4.233,text_option_1,,0,72,72,86,1
61462f791eb4fbf23ec1d583,63f3cfca20052e4ae7554ebf,6453c67e74af6c7cb8a49340,2023-05-04_16h53.19.835,ga_syllabified_check,2022.2.5,Linux x86_64,60.0240096,,,,,,,,,,,,,,./stim/p03_syllable_1_pachialo_hit.wav,p03,pachialo,hit,pa-chia-lo,pa-chia-lo,pa-chi-a-lo, ,-0.335185185,-0.089814815,1,0,0,1.316,text_option_1,,0,73,73,24,1
61462f791eb4fbf23ec1d583,63f3cfca20052e4ae7554ebf,6453c67e74af6c7cb8a49340,2023-05-04_16h53.19.835,ga_syllabified_check,2022.2.5,Linux x86_64,60.0240096,,,,,,,,,,,,,,./stim/p07_syllable_1_lakadiaisto_hit.wav,p07,lakadiaisto,hit,la-ka-dia-is-to,la-ka-diais-to,la-ka-di-ais-to,la-ka-dia-is-to,-0.000925926,-0.103703704,1,0,0,2.717,text_option_3,,0,74,74,144,1
61462f791eb4fbf23ec1d583,63f3cfca20052e4ae7554ebf,6453c67e74af6c7cb8a49340,2023-05-04_16h53.19.835,ga_syllabified_check,2022.2.5,Linux x86_64,60.0240096,,,,,,,,,,,,,,./stim/p06_syllable_1_lakapiaisto_hit.wav,p06,lakapiaisto,hit,la-ka-pia-is-to,la-ka-piais-to,la-ka-pi-ais-to,la-ka-pia-is-to,0.037037037,-0.102777778,1,0,0,4.601,text_option_3,,0,75,75,118,1
61462f791eb4fbf23ec1d583,63f3cfca20052e4ae7554ebf,6453c67e74af6c7cb8a49340,2023-05-04_16h53.19.835,ga_syllabified_check,2022.2.5,Linux x86_64,60.0240096,,,,,,,,,,,,,,./stim/p07_syllable_1_lakakiaisto_hit.wav,p07,lakakiaisto,hit,la-ka-kais-to,la-ka-kiais-to,la-ka-ki-ais-to,la-ka-kia-is-to,-0.348148148,-0.09537037,1,0,0,2.301,text_option_1,,0,76,76,150,1
61462f791eb4fbf23ec1d583,63f3cfca20052e4ae7554ebf,6453c67e74af6c7cb8a49340,2023-05-04_16h53.19.835,ga_syllabified_check,2022.2.5,Linux x86_64,60.0240096,,,,,,,,,,,,,,./stim/p05_syllable_1_mebochiana_hit.wav,p05,mebochiana,hit,me-cho-chai-na,me-bo-chia-na,me-bo-chi-a-na, ,-0.297222222,-0.099074074,1,0,0,7.651,text_option_1,,0,77,77,90,1
61462f791eb4fbf23ec1d583,63f3cfca20052e4ae7554ebf,6453c67e74af6c7cb8a49340,2023-05-04_16h53.19.835,ga_syllabified_check,2022.2.5,Linux x86_64,60.0240096,,,,,,,,,,,,,,./stim/p04_syllable_1_flauro_hit.wav,p04,flauro,hit,flau-ro,flau-ro,fla-u-ro, ,-0.375925926,-0.1,1,0,0,2.083,text_option_1,,0,78,78,39,1
61462f791eb4fbf23ec1d583,63f3cfca20052e4ae7554ebf,6453c67e74af6c7cb8a49340,2023-05-04_16h53.19.835,ga_syllabified_check,2022.2.5,Linux x86_64,60.0240096,,,,,,,,,,,,,,./stim/p08_syllable_1_lliape_hit.wav,p08,lliape,hit,li-a-pe,llia-pe,lli-a-pe, ,-0.375,-0.098148148,1,0,0,1.166,text_option_1,,0,79,79,190,1
61462f791eb4fbf23ec1d583,63f3cfca20052e4ae7554ebf,6453c67e74af6c7cb8a49340,2023-05-04_16h53.19.835,ga_syllabified_check,2022.2.5,Linux x86_64,60.0240096,,,,,,,,,,,,,,./stim/p04_syllable_1_lakatiaisto_hit.wav,p04,lakatiaisto,hit,la-ka-kiais-to,la-ka-tiais-to,la-ka-ti-ais-to,la-ka-tia-is-to,-0.341666667,-0.107407407,1,0,0,3.55,text_option_1,,0,80,80,52,1
61462f791eb4fbf23ec1d583,63f3cfca20052e4ae7554ebf,6453c67e74af6c7cb8a49340,2023-05-04_16h53.19.835,ga_syllabified_check,2022.2.5,Linux x86_64,60.0240096,,,,,,,,,,,,,,./stim/p03_syllable_1_lakatuaisto_hit.wav,p03,lakatuaisto,hit,la-ka-tuais-to,la-ka-tuais-to,la-ka-tu-ais-to,la-ka-tua-is-to,-0.341666667,-0.107407407,1,0,0,3.416,text_option_1,,0,81,81,19,1
61462f791eb4fbf23ec1d583,63f3cfca20052e4ae7554ebf,6453c67e74af6c7cb8a49340,2023-05-04_16h53.19.835,ga_syllabified_check,2022.2.5,Linux x86_64,60.0240096,,,,,,,,,,,,,,./stim/p03_syllable_1_palumaisto_hit.wav,p03,palumaisto,hit,pa-lu-mais-to,pa-lu-mais-to,pa-lu-ma-is-to, ,-0.341666667,-0.107407407,1,0,0,1.167,text_option_1,,0,82,82,28,1
61462f791eb4fbf23ec1d583,63f3cfca20052e4ae7554ebf,6453c67e74af6c7cb8a49340,2023-05-04_16h53.19.835,ga_syllabified_check,2022.2.5,Linux x86_64,60.0240096,,,,,,,,,,,,,,./stim/p06_syllable_1_costonhialo_hit.wav,p06,costoñialo,hit,cos-to-nhia-lo,cos-to-ñia-lo,cos-to-ñi-a-lo, ,-0.431481481,-0.107407407,1,0,0,2.817,text_option_1,,0,83,83,103,1
61462f791eb4fbf23ec1d583,63f3cfca20052e4ae7554ebf,6453c67e74af6c7cb8a49340,2023-05-04_16h53.19.835,ga_syllabified_check,2022.2.5,Linux x86_64,60.0240096,,,,,,,,,,,,,,./stim/p05_syllable_1_ruyiola_hit.wav,p05,ruyiola,hit,ru-yio-la,ru-yio-la,ru-yi-o-la, ,-0.380555556,-0.103703704,1,0,0,1.099,text_option_1,,0,84,84,100,1
61462f791eb4fbf23ec1d583,63f3cfca20052e4ae7554ebf,6453c67e74af6c7cb8a49340,2023-05-04_16h53.19.835,ga_syllabified_check,2022.2.5,Linux x86_64,60.0240096,,,,,,,,,,,,,,./stim/p07_syllable_1_palufauto_hit.wav,p07,palufauto,hit,pa-lu-fau-to,pa-lu-fau-to,pa-lu-fa-u-to, ,-0.380555556,-0.103703704,1,0,0,1.2,text_option_1,,0,85,85,162,1
61462f791eb4fbf23ec1d583,63f3cfca20052e4ae7554ebf,6453c67e74af6c7cb8a49340,2023-05-04_16h53.19.835,ga_syllabified_check,2022.2.5,Linux x86_64,60.0240096,,,,,,,,,,,,,,./stim/p06_syllable_1_palutrauco_hit.wav,p06,palutrauco,hit,pa-lu-tra-u-co,pa-lu-trau-co,pa-lu-tra-u-co, ,0.397222222,-0.121296296,1,0,0,2.484,text_option_2,,0,86,86,131,1
61462f791eb4fbf23ec1d583,63f3cfca20052e4ae7554ebf,6453c67e74af6c7cb8a49340,2023-05-04_16h53.19.835,ga_syllabified_check,2022.2.5,Linux x86_64,60.0240096,,,,,,,,,,,,,,./stim/p07_syllable_1_rausto_hit.wav,p07,rausto,hit,raus-to,raus-to,ra-us-to, ,-0.346296296,-0.108333333,1,0,0,2.3,text_option_1,,0,87,87,167,1
61462f791eb4fbf23ec1d583,63f3cfca20052e4ae7554ebf,6453c67e74af6c7cb8a49340,2023-05-04_16h53.19.835,ga_syllabified_check,2022.2.5,Linux x86_64,60.0240096,,,,,,,,,,,,,,./stim/p08_syllable_1_manhiala_hit.wav,p08,mañiala,hit,ma-nhia-la,ma-ñia-la,ma-ñi-a-la, ,-0.372222222,-0.107407407,1,0,0,2.783,text_option_1,,0,88,88,191,1
61462f791eb4fbf23ec1d583,63f3cfca20052e4ae7554ebf,6453c67e74af6c7cb8a49340,2023-05-04_16h53.19.835,ga_syllabified_check,2022.2.5,Linux x86_64,60.0240096,,,,,,,,,,,,,,./stim/p06_syllable_1_tuliafo_hit.wav,p06,tuliafo,hit,tu-li-a-fo,tu-lia-fo,tu-li-a-fo, ,0.428703704,-0.101851852,1,0,0,1.517,text_option_2,,0,89,89,135,1
61462f791eb4fbf23ec1d583,63f3cfca20052e4ae7554ebf,6453c67e74af6c7cb8a49340,2023-05-04_16h53.19.835,ga_syllabified_check,2022.2.5,Linux x86_64,60.0240096,,,,,,,,,,,,,,./stim/p03_syllable_1_lakakiaisto_hit.wav,p03,lakakiaisto,hit,la-ka-kiais-to,la-ka-kiais-to,la-ka-ki-ais-to,la-ka-kia-is-to,-0.341666667,-0.106481481,1,0,0,2.517,text_option_1,,0,90,90,14,1
61462f791eb4fbf23ec1d583,63f3cfca20052e4ae7554ebf,6453c67e74af6c7cb8a49340,2023-05-04_16h53.19.835,ga_syllabified_check,2022.2.5,Linux x86_64,60.0240096,,,,,,,,,,,,,,./stim/p04_syllable_1_paluguato_hit.wav,p04,paluguato,hit,pa-lu-gua,pa-lu-gua-to,pa-lu-gu-a-to, ,-0.341666667,-0.106481481,1,0,0,2.701,text_option_1,,0,91,91,61,1
61462f791eb4fbf23ec1d583,63f3cfca20052e4ae7554ebf,6453c67e74af6c7cb8a49340,2023-05-04_16h53.19.835,ga_syllabified_check,2022.2.5,Linux x86_64,60.0240096,,,,,,,,,,,,,,./stim/p07_syllable_1_pachialo_hit.wav,p07,pachialo,hit,pa-cha-lo,pa-chia-lo,pa-chi-a-lo, ,-0.341666667,-0.106481481,1,0,0,1.884,text_option_1,,0,92,92,160,1
61462f791eb4fbf23ec1d583,63f3cfca20052e4ae7554ebf,6453c67e74af6c7cb8a49340,2023-05-04_16h53.19.835,ga_syllabified_check,2022.2.5,Linux x86_64,60.0240096,,,,,,,,,,,,,,./stim/p06_syllable_1_lakakuaisto_hit.wav,p06,lakakuaisto,hit,la-ka-ku-a-is,la-ka-kuais-to,la-ka-ku-ais-to,la-ka-kua-is-to,0.063888889,-0.3,1,0,0,9.284,text_option_other,la-ka-ku-a-is-to,0,93,93,117,1
61462f791eb4fbf23ec1d583,63f3cfca20052e4ae7554ebf,6453c67e74af6c7cb8a49340,2023-05-04_16h53.19.835,ga_syllabified_check,2022.2.5,Linux x86_64,60.0240096,,,,,,,,,,,,,,./stim/p08_syllable_1_faluduako_hit.wav,p08,faluduako,hit,fa-lu-duai-ko,fa-lu-dua-ko,fa-lu-du-a-ko, ,-0.387962963,-0.101851852,1,0,0,2.55,text_option_1,,0,94,94,172,1
61462f791eb4fbf23ec1d583,63f3cfca20052e4ae7554ebf,6453c67e74af6c7cb8a49340,2023-05-04_16h53.19.835,ga_syllabified_check,2022.2.5,Linux x86_64,60.0240096,,,,,,,,,,,,,,./stim/p05_syllable_1_lakatuaisto_hit.wav,p05,lakatuaisto,hit,la-ka-tais-to,la-ka-tuais-to,la-ka-tu-ais-to,la-ka-tua-is-to,-0.335185185,-0.110185185,1,0,0,3.117,text_option_1,,0,95,95,87,1
61462f791eb4fbf23ec1d583,63f3cfca20052e4ae7554ebf,6453c67e74af6c7cb8a49340,2023-05-04_16h53.19.835,ga_syllabified_check,2022.2.5,Linux x86_64,60.0240096,,,,,,,,,,,,,,./stim/p07_syllable_1_costonhialo_hit.wav,p07,costoñialo,hit,cos-to-nhia-lo,cos-to-ñia-lo,cos-to-ñi-a-lo, ,-0.360185185,-0.110185185,1,0,0,2.367,text_option_1,,0,96,96,137,1
61462f791eb4fbf23ec1d583,63f3cfca20052e4ae7554ebf,6453c67e74af6c7cb8a49340,2023-05-04_16h53.19.835,ga_syllabified_check,2022.2.5,Linux x86_64,60.0240096,,,,,,,,,,,,,,./stim/p03_syllable_1_lakapiaisto_hit.wav,p03,lakapiaisto,hit,la-ka-piais-to,la-ka-piais-to,la-ka-pi-ais-to,la-ka-pia-is-to,-0.340740741,-0.106481481,1,0,0,2.651,text_option_1,,0,97,97,16,1
61462f791eb4fbf23ec1d583,63f3cfca20052e4ae7554ebf,6453c67e74af6c7cb8a49340,2023-05-04_16h53.19.835,ga_syllabified_check,2022.2.5,Linux x86_64,60.0240096,,,,,,,,,,,,,,./stim/p04_syllable_1_nhiape_hit.wav,p04,ñiape,hit,nhia-pe,ñia-pe,ñi-a-pe, ,-0.383333333,-0.098148148,1,0,0,0.533,text_option_1,,0,98,98,57,1
61462f791eb4fbf23ec1d583,63f3cfca20052e4ae7554ebf,6453c67e74af6c7cb8a49340,2023-05-04_16h53.19.835,ga_syllabified_check,2022.2.5,Linux x86_64,60.0240096,,,,,,,,,,,,,,./stim/p08_syllable_1_rausto_hit.wav,p08,rausto,hit,raus-to,raus-to,ra-us-to, ,-0.378703704,-0.1,1,0,0,0.708,text_option_1,,0,99,99,201,1
61462f791eb4fbf23ec1d583,63f3cfca20052e4ae7554ebf,6453c67e74af6c7cb8a49340,2023-05-04_16h53.19.835,ga_syllabified_check,2022.2.5,Linux x86_64,60.0240096,,,,,,,,,,,,,,./stim/p07_syllable_1_lakafiaisto_hit.wav,p07,lakafiaisto,hit,la-ka-fiais-to,la-ka-fiais-to,la-ka-fi-ais-to,la-ka-fia-is-to,-0.382407407,-0.113888889,1,0,0,1.499,text_option_1,,0,100,100,146,1
61462f791eb4fbf23ec1d583,63f3cfca20052e4ae7554ebf,6453c67e74af6c7cb8a49340,2023-05-04_16h53.19.835,ga_syllabified_check,2022.2.5,Linux x86_64,60.0240096,,,,,,,,,,,,,,./stim/p07_syllable_1_tuliafo_hit.wav,p07,tuliafo,hit,tu-lia-fo,tu-lia-fo,tu-li-a-fo, ,-0.374074074,-0.103703704,1,0,0,0.798,text_option_1,,0,101,101,169,1
61462f791eb4fbf23ec1d583,63f3cfca20052e4ae7554ebf,6453c67e74af6c7cb8a49340,2023-05-04_16h53.19.835,ga_syllabified_check,2022.2.5,Linux x86_64,60.0240096,,,,,,,,,,,,,,./stim/p07_syllable_1_lliape_hit.wav,p07,lliape,hit,lliai-pe,llia-pe,lli-a-pe, ,-0.362037037,-0.097222222,1,0,0,1.484,text_option_1,,0,102,102,156,1
61462f791eb4fbf23ec1d583,63f3cfca20052e4ae7554ebf,6453c67e74af6c7cb8a49340,2023-05-04_16h53.19.835,ga_syllabified_check,2022.2.5,Linux x86_64,60.0240096,,,,,,,,,,,,,,./stim/p07_syllable_1_lakaduaisto_hit.wav,p07,lakaduaisto,hit,la-ka-duais-to,la-ka-duais-to,la-ka-du-ais-to,la-ka-dua-is-to,-0.388888889,-0.108333333,1,0,0,2.05,text_option_1,,0,103,103,145,1
61462f791eb4fbf23ec1d583,63f3cfca20052e4ae7554ebf,6453c67e74af6c7cb8a49340,2023-05-04_16h53.19.835,ga_syllabified_check,2022.2.5,Linux x86_64,60.0240096,,,,,,,,,,,,,,./stim/p04_syllable_1_lakafiaisto_hit.wav,p04,lakafiaisto,hit,la-ka-fiais-to,la-ka-fiais-to,la-ka-fi-ais-to,la-ka-fia-is-to,-0.366666667,-0.102777778,1,0,0,1.35,text_option_1,,0,104,104,44,1
61462f791eb4fbf23ec1d583,63f3cfca20052e4ae7554ebf,6453c67e74af6c7cb8a49340,2023-05-04_16h53.19.835,ga_syllabified_check,2022.2.5,Linux x86_64,60.0240096,,,,,,,,,,,,,,./stim/p06_syllable_1_paluguato_hit.wav,p06,paluguato,hit,pa-lu-gua-to,pa-lu-gua-to,pa-lu-gu-a-to, ,-0.366666667,-0.102777778,1,0,0,2.551,text_option_1,,0,105,105,129,1
61462f791eb4fbf23ec1d583,63f3cfca20052e4ae7554ebf,6453c67e74af6c7cb8a49340,2023-05-04_16h53.19.835,ga_syllabified_check,2022.2.5,Linux x86_64,60.0240096,,,,,,,,,,,,,,./stim/p05_syllable_1_lakabiaisto_hit.wav,p05,lakabiaisto,hit,la-ka-bi-ais-to,la-ka-biais-to,la-ka-bi-ais-to,la-ka-bia-is-to,0.437037037,-0.114814815,1,0,0,3.801,text_option_2,,0,106,106,74,1
61462f791eb4fbf23ec1d583,63f3cfca20052e4ae7554ebf,6453c67e74af6c7cb8a49340,2023-05-04_16h53.19.835,ga_syllabified_check,2022.2.5,Linux x86_64,60.0240096,,,,,,,,,,,,,,./stim/p05_syllable_1_rausto_hit.wav,p05,rausto,hit,raus-to,raus-to,ra-us-to, ,-0.373148148,-0.096296296,1,0,0,0.317,text_option_1,,0,107,107,99,1
61462f791eb4fbf23ec1d583,63f3cfca20052e4ae7554ebf,6453c67e74af6c7cb8a49340,2023-05-04_16h53.19.835,ga_syllabified_check,2022.2.5,Linux x86_64,60.0240096,,,,,,,,,,,,,,./stim/p04_syllable_1_costonhialo_hit.wav,p04,costoñialo,hit,cos-to-nhia-lo,cos-to-ñia-lo,cos-to-ñi-a-lo, ,-0.335185185,-0.1,1,0,0,1.866,text_option_1,,0,108,108,35,1
61462f791eb4fbf23ec1d583,63f3cfca20052e4ae7554ebf,6453c67e74af6c7cb8a49340,2023-05-04_16h53.19.835,ga_syllabified_check,2022.2.5,Linux x86_64,60.0240096,,,,,,,,,,,,,,./stim/p03_syllable_1_lakapuaisto_hit.wav,p03,lakapuaisto,hit,la-ka-puais-to,la-ka-puais-to,la-ka-pu-ais-to,la-ka-pua-is-to,-0.314814815,-0.109259259,1,0,0,2.585,text_option_1,,0,109,109,17,1
61462f791eb4fbf23ec1d583,63f3cfca20052e4ae7554ebf,6453c67e74af6c7cb8a49340,2023-05-04_16h53.19.835,ga_syllabified_check,2022.2.5,Linux x86_64,60.0240096,,,,,,,,,,,,,,./stim/p03_syllable_1_tuliafo_hit.wav,p03,tuliafo,hit,tu-lia-fo,tu-lia-fo,tu-li-a-fo, ,-0.357407407,-0.103703704,1,0,0,0.783,text_option_1,,0,110,110,33,1
61462f791eb4fbf23ec1d583,63f3cfca20052e4ae7554ebf,6453c67e74af6c7cb8a49340,2023-05-04_16h53.19.835,ga_syllabified_check,2022.2.5,Linux x86_64,60.0240096,,,,,,,,,,,,,,./stim/p03_syllable_1_lakatiaisto_hit.wav,p03,lakatiaisto,hit,la-ka-tiais-to,la-ka-tiais-to,la-ka-ti-ais-to,la-ka-tia-is-to,-0.341666667,-0.109259259,1,0,0,2.8,text_option_1,,0,111,111,18,1
61462f791eb4fbf23ec1d583,63f3cfca20052e4ae7554ebf,6453c67e74af6c7cb8a49340,2023-05-04_16h53.19.835,ga_syllabified_check,2022.2.5,Linux x86_64,60.0240096,,,,,,,,,,,,,,./stim/p08_syllable_1_lakapiaisto_hit.wav,p08,lakapiaisto,hit,la-ka-pi-as-to,la-ka-piais-to,la-ka-pi-ais-to,la-ka-pia-is-to,0.418518519,-0.106481481,1,0,0,4.233,text_option_2,,0,112,112,186,1
61462f791eb4fbf23ec1d583,63f3cfca20052e4ae7554ebf,6453c67e74af6c7cb8a49340,2023-05-04_16h53.19.835,ga_syllabified_check,2022.2.5,Linux x86_64,60.0240096,,,,,,,,,,,,,,./stim/p03_syllable_1_faluduako_hit.wav,p03,faluduako,hit,fa-lu-dua-ko,fa-lu-dua-ko,fa-lu-du-a-ko, ,-0.337962963,-0.088888889,1,0,0,1.483,text_option_1,,0,113,113,2,1
61462f791eb4fbf23ec1d583,63f3cfca20052e4ae7554ebf,6453c67e74af6c7cb8a49340,2023-05-04_16h53.19.835,ga_syllabified_check,2022.2.5,Linux x86_64,60.0240096,,,,,,,,,,,,,,./stim/p06_syllable_1_lakagiaisto_hit.wav,p06,lakagiaisto,hit,la-ka-gia-is-to,la-ka-giais-to,la-ka-gi-ais-to,la-ka-gia-is-to,0.068518519,-0.105555556,1,0,0,3.6,text_option_3,,0,114,114,114,1
61462f791eb4fbf23ec1d583,63f3cfca20052e4ae7554ebf,6453c67e74af6c7cb8a49340,2023-05-04_16h53.19.835,ga_syllabified_check,2022.2.5,Linux x86_64,60.0240096,,,,,,,,,,,,,,./stim/p03_syllable_1_palufauto_hit.wav,p03,palufauto,hit,pa-lu-fau,pa-lu-fau-to,pa-lu-fa-u-to, ,-0.350925926,-0.112037037,1,0,0,1.616,text_option_1,,0,115,115,26,1
61462f791eb4fbf23ec1d583,63f3cfca20052e4ae7554ebf,6453c67e74af6c7cb8a49340,2023-05-04_16h53.19.835,ga_syllabified_check,2022.2.5,Linux x86_64,60.0240096,,,,,,,,,,,,,,./stim/p04_syllable_1_palutrauco_hit.wav,p04,palutrauco,hit,pa-lu-trau-co,pa-lu-trau-co,pa-lu-tra-u-co, ,-0.350925926,-0.112037037,1,0,0,0.85,text_option_1,,0,116,116,63,1
61462f791eb4fbf23ec1d583,63f3cfca20052e4ae7554ebf,6453c67e74af6c7cb8a49340,2023-05-04_16h53.19.835,ga_syllabified_check,2022.2.5,Linux x86_64,60.0240096,,,,,,,,,,,,,,./stim/p05_syllable_1_manhiala_hit.wav,p05,mañiala,hit,ma-nhia-la,ma-ñia-la,ma-ñi-a-la, ,-0.350925926,-0.112037037,1,0,0,1.35,text_option_1,,0,117,117,89,1
61462f791eb4fbf23ec1d583,63f3cfca20052e4ae7554ebf,6453c67e74af6c7cb8a49340,2023-05-04_16h53.19.835,ga_syllabified_check,2022.2.5,Linux x86_64,60.0240096,,,,,,,,,,,,,,./stim/p04_syllable_1_lakakiaisto_hit.wav,p04,lakakiaisto,hit,la-ka-kiais-to,la-ka-kiais-to,la-ka-ki-ais-to,la-ka-kia-is-to,-0.350925926,-0.112037037,1,0,0,1.184,text_option_1,,0,118,118,48,1
61462f791eb4fbf23ec1d583,63f3cfca20052e4ae7554ebf,6453c67e74af6c7cb8a49340,2023-05-04_16h53.19.835,ga_syllabified_check,2022.2.5,Linux x86_64,60.0240096,,,,,,,,,,,,,,./stim/p04_syllable_1_rausto_hit.wav,p04,rausto,hit,raus-to,raus-to,ra-us-to, ,-0.350925926,-0.112037037,1,0,0,0.384,text_option_1,,0,119,119,65,1
61462f791eb4fbf23ec1d583,63f3cfca20052e4ae7554ebf,6453c67e74af6c7cb8a49340,2023-05-04_16h53.19.835,ga_syllabified_check,2022.2.5,Linux x86_64,60.0240096,,,,,,,,,,,,,,./stim/p03_syllable_1_nhiape_hit.wav,p03,ñiape,hit,nhia-pe,ñia-pe,ñi-a-pe, ,-0.350925926,-0.112037037,1,0,0,0.75,text_option_1,,0,120,120,23,1
61462f791eb4fbf23ec1d583,63f3cfca20052e4ae7554ebf,6453c67e74af6c7cb8a49340,2023-05-04_16h53.19.835,ga_syllabified_check,2022.2.5,Linux x86_64,60.0240096,,,,,,,,,,,,,,./stim/p05_syllable_1_faluduako_hit.wav,p05,faluduako,hit,fa-lu-ba-ko,fa-lu-dua-ko,fa-lu-du-a-ko, ,-0.350925926,-0.112037037,1,0,0,4.616,text_option_1,,0,121,121,70,1
61462f791eb4fbf23ec1d583,63f3cfca20052e4ae7554ebf,6453c67e74af6c7cb8a49340,2023-05-04_16h53.19.835,ga_syllabified_check,2022.2.5,Linux x86_64,60.0240096,,,,,,,,,,,,,,./stim/p08_syllable_1_lakapuaisto_hit.wav,p08,lakapuaisto,hit,la-ka-pu-as-to,la-ka-puais-to,la-ka-pu-ais-to,la-ka-pua-is-to,0.501851852,-0.112962963,1,0,0,6.999,text_option_2,,0,122,122,187,1
61462f791eb4fbf23ec1d583,63f3cfca20052e4ae7554ebf,6453c67e74af6c7cb8a49340,2023-05-04_16h53.19.835,ga_syllabified_check,2022.2.5,Linux x86_64,60.0240096,,,,,,,,,,,,,,./stim/p03_syllable_1_rausto_hit.wav,p03,rausto,hit,raus-to,raus-to,ra-us-to, ,-0.355555556,-0.102777778,1,0,0,1.467,text_option_1,,0,123,123,31,1
61462f791eb4fbf23ec1d583,63f3cfca20052e4ae7554ebf,6453c67e74af6c7cb8a49340,2023-05-04_16h53.19.835,ga_syllabified_check,2022.2.5,Linux x86_64,60.0240096,,,,,,,,,,,,,,./stim/p04_syllable_1_lakafuaisto_hit.wav,p04,lakafuaisto,hit,la-ka-fuais-to,la-ka-fuais-to,la-ka-fu-ais-to,la-ka-fua-is-to,-0.318518519,-0.103703704,1,0,0,1.017,text_option_1,,0,124,124,45,1
61462f791eb4fbf23ec1d583,63f3cfca20052e4ae7554ebf,6453c67e74af6c7cb8a49340,2023-05-04_16h53.19.835,ga_syllabified_check,2022.2.5,Linux x86_64,60.0240096,,,,,,,,,,,,,,./stim/p06_syllable_1_lakatiaisto_hit.wav,p06,lakatiaisto,hit,la-ka-pia-is-to,la-ka-tiais-to,la-ka-ti-ais-to,la-ka-tia-is-to,0.025925926,-0.105555556,1,0,0,3.434,text_option_3,,0,125,125,120,1
61462f791eb4fbf23ec1d583,63f3cfca20052e4ae7554ebf,6453c67e74af6c7cb8a49340,2023-05-04_16h53.19.835,ga_syllabified_check,2022.2.5,Linux x86_64,60.0240096,,,,,,,,,,,,,,./stim/p04_syllable_1_lakagiaisto_hit.wav,p04,lakagiaisto,hit,la-ka-giais-to,la-ka-giais-to,la-ka-gi-ais-to,la-ka-gia-is-to,-0.392592593,-0.106481481,1,0,0,1.616,text_option_1,,0,126,126,46,1
61462f791eb4fbf23ec1d583,63f3cfca20052e4ae7554ebf,6453c67e74af6c7cb8a49340,2023-05-04_16h53.19.835,ga_syllabified_check,2022.2.5,Linux x86_64,60.0240096,,,,,,,,,,,,,,./stim/p07_syllable_1_manhiala_hit.wav,p07,mañiala,hit,ma-nhia-la,ma-ñia-la,ma-ñi-a-la, ,-0.35,-0.115740741,1,0,0,1.567,text_option_1,,0,127,127,157,1
61462f791eb4fbf23ec1d583,63f3cfca20052e4ae7554ebf,6453c67e74af6c7cb8a49340,2023-05-04_16h53.19.835,ga_syllabified_check,2022.2.5,Linux x86_64,60.0240096,,,,,,,,,,,,,,./stim/p04_syllable_1_lakapiaisto_hit.wav,p04,lakapiaisto,hit,la-ka-piais-to,la-ka-piais-to,la-ka-pi-ais-to,la-ka-pia-is-to,-0.352777778,-0.093518519,1,0,0,2.884,text_option_1,,0,128,128,50,1
61462f791eb4fbf23ec1d583,63f3cfca20052e4ae7554ebf,6453c67e74af6c7cb8a49340,2023-05-04_16h53.19.835,ga_syllabified_check,2022.2.5,Linux x86_64,60.0240096,,,,,,,,,,,,,,./stim/p06_syllable_1_rausto_hit.wav,p06,rausto,hit,ra-us-to,raus-to,ra-us-to, ,0.351851852,-0.105555556,1,0,0,2.283,text_option_2,,0,129,129,133,1
61462f791eb4fbf23ec1d583,63f3cfca20052e4ae7554ebf,6453c67e74af6c7cb8a49340,2023-05-04_16h53.19.835,ga_syllabified_check,2022.2.5,Linux x86_64,60.0240096,,,,,,,,,,,,,,./stim/p05_syllable_1_palumaisto_hit.wav,p05,palumaisto,hit,pa-lu-mais-to,pa-lu-mais-to,pa-lu-ma-is-to, ,-0.330555556,-0.101851852,1,0,0,1.886,text_option_1,,0,130,130,96,1
61462f791eb4fbf23ec1d583,63f3cfca20052e4ae7554ebf,6453c67e74af6c7cb8a49340,2023-05-04_16h53.19.835,ga_syllabified_check,2022.2.5,Linux x86_64,60.0240096,,,,,,,,,,,,,,./stim/p06_syllable_1_falutraigo_hit.wav,p06,falutraigo,hit,fa-lu-tra-i-go,fa-lu-trai-go,fa-lu-tra-i-go, ,0.401851852,-0.091666667,1,0,0,3.55,text_option_2,,0,131,131,106,1
61462f791eb4fbf23ec1d583,63f3cfca20052e4ae7554ebf,6453c67e74af6c7cb8a49340,2023-05-04_16h53.19.835,ga_syllabified_check,2022.2.5,Linux x86_64,60.0240096,,,,,,,,,,,,,,./stim/p07_syllable_1_lakabiaisto_hit.wav,p07,lakabiaisto,hit,la-ka-bais-to,la-ka-biais-to,la-ka-bi-ais-to,la-ka-bia-is-to,-0.328703704,-0.103703704,1,0,0,3.666,text_option_1,,0,132,132,142,1
61462f791eb4fbf23ec1d583,63f3cfca20052e4ae7554ebf,6453c67e74af6c7cb8a49340,2023-05-04_16h53.19.835,ga_syllabified_check,2022.2.5,Linux x86_64,60.0240096,,,,,,,,,,,,,,./stim/p06_syllable_1_lakaguaisto_hit.wav,p06,lakaguaisto,hit,la-ka-gu-a-is,la-ka-guais-to,la-ka-gu-ais-to,la-ka-gua-is-to,0.426851852,-0.106481481,1,0,0,5.267,text_option_2,,0,133,133,115,1
61462f791eb4fbf23ec1d583,63f3cfca20052e4ae7554ebf,6453c67e74af6c7cb8a49340,2023-05-04_16h53.19.835,ga_syllabified_check,2022.2.5,Linux x86_64,60.0240096,,,,,,,,,,,,,,./stim/p05_syllable_1_paluguato_hit.wav,p05,paluguato,hit,pa-lu-gau-to,pa-lu-gua-to,pa-lu-gu-a-to, ,-0.375925926,-0.10462963,1,0,0,4.067,text_option_1,,0,134,134,95,1
61462f791eb4fbf23ec1d583,63f3cfca20052e4ae7554ebf,6453c67e74af6c7cb8a49340,2023-05-04_16h53.19.835,ga_syllabified_check,2022.2.5,Linux x86_64,60.0240096,,,,,,,,,,,,,,./stim/p08_syllable_1_lakabuaisto_hit.wav,p08,lakabuaisto,hit,la-ka-bu-ais-to,la-ka-buais-to,la-ka-bu-ais-to,la-ka-bua-is-to,0.324074074,-0.09537037,1,0,0,4.066,text_option_2,,0,135,135,177,1
61462f791eb4fbf23ec1d583,63f3cfca20052e4ae7554ebf,6453c67e74af6c7cb8a49340,2023-05-04_16h53.19.835,ga_syllabified_check,2022.2.5,Linux x86_64,60.0240096,,,,,,,,,,,,,,./stim/p07_syllable_1_chiaba_hit.wav,p07,chiaba,hit,chia-ba,chia-ba,chi-a-ba, ,-0.349074074,-0.107407407,1,0,0,0.9,text_option_1,,0,136,136,136,1
61462f791eb4fbf23ec1d583,63f3cfca20052e4ae7554ebf,6453c67e74af6c7cb8a49340,2023-05-04_16h53.19.835,ga_syllabified_check,2022.2.5,Linux x86_64,60.0240096,,,,,,,,,,,,,,./stim/p07_syllable_1_nhiape_hit.wav,p07,ñiape,hit,nhia-pe,ñia-pe,ñi-a-pe, ,-0.35,-0.106481481,1,0,0,0.566,text_option_1,,0,137,137,159,1
61462f791eb4fbf23ec1d583,63f3cfca20052e4ae7554ebf,6453c67e74af6c7cb8a49340,2023-05-04_16h53.19.835,ga_syllabified_check,2022.2.5,Linux x86_64,60.0240096,,,,,,,,,,,,,,./stim/p04_syllable_1_palufauto_hit.wav,p04,palufauto,hit,pa-lu-fau-to,pa-lu-fau-to,pa-lu-fa-u-to, ,-0.35,-0.106481481,1,0,0,1.285,text_option_1,,0,138,138,60,1
61462f791eb4fbf23ec1d583,63f3cfca20052e4ae7554ebf,6453c67e74af6c7cb8a49340,2023-05-04_16h53.19.835,ga_syllabified_check,2022.2.5,Linux x86_64,60.0240096,,,,,,,,,,,,,,./stim/p05_syllable_1_palutrauco_hit.wav,p05,palutrauco,hit,pa-lu-trai-co,pa-lu-trau-co,pa-lu-tra-u-co, ,-0.35,-0.106481481,1,0,0,2.034,text_option_1,,0,139,139,97,1
61462f791eb4fbf23ec1d583,63f3cfca20052e4ae7554ebf,6453c67e74af6c7cb8a49340,2023-05-04_16h53.19.835,ga_syllabified_check,2022.2.5,Linux x86_64,60.0240096,,,,,,,,,,,,,,./stim/p04_syllable_1_lakaguaisto_hit.wav,p04,lakaguaisto,hit,la-ka-guais-to,la-ka-guais-to,la-ka-gu-ais-to,la-ka-gua-is-to,-0.35,-0.106481481,1,0,0,1.966,text_option_1,,0,140,140,47,1
61462f791eb4fbf23ec1d583,63f3cfca20052e4ae7554ebf,6453c67e74af6c7cb8a49340,2023-05-04_16h53.19.835,ga_syllabified_check,2022.2.5,Linux x86_64,60.0240096,,,,,,,,,,,,,,./stim/p05_syllable_1_lakafuaisto_hit.wav,p05,lakafuaisto,hit,la-ka-fais-to,la-ka-fuais-to,la-ka-fu-ais-to,la-ka-fua-is-to,-0.35,-0.106481481,1,0,0,3.417,text_option_1,,0,141,141,79,1
61462f791eb4fbf23ec1d583,63f3cfca20052e4ae7554ebf,6453c67e74af6c7cb8a49340,2023-05-04_16h53.19.835,ga_syllabified_check,2022.2.5,Linux x86_64,60.0240096,,,,,,,,,,,,,,./stim/p03_syllable_1_paluguato_hit.wav,p03,paluguato,hit,pa-lu-gua,pa-lu-gua-to,pa-lu-gu-a-to, ,-0.35,-0.106481481,1,0,0,1.199,text_option_1,,0,142,142,27,1
61462f791eb4fbf23ec1d583,63f3cfca20052e4ae7554ebf,6453c67e74af6c7cb8a49340,2023-05-04_16h53.19.835,ga_syllabified_check,2022.2.5,Linux x86_64,60.0240096,,,,,,,,,,,,,,./stim/p06_syllable_1_falufaisto_hit.wav,p06,falufaisto,hit,fa-lu-fa-is-to,fa-lu-fais-to,fa-lu-fa-is-to, ,0.452777778,-0.100925926,1,0,0,4.683,text_option_2,,0,143,143,105,1
61462f791eb4fbf23ec1d583,63f3cfca20052e4ae7554ebf,6453c67e74af6c7cb8a49340,2023-05-04_16h53.19.835,ga_syllabified_check,2022.2.5,Linux x86_64,60.0240096,,,,,,,,,,,,,,./stim/p06_syllable_1_lakabuaisto_hit.wav,p06,lakabuaisto,hit,la-ka-bu-a-is,la-ka-buais-to,la-ka-bu-ais-to,la-ka-bua-is-to,0.074074074,-0.302777778,1,0,0,6.084,text_option_other,la-ka-bu-a-is-to,0,144,144,109,1
61462f791eb4fbf23ec1d583,63f3cfca20052e4ae7554ebf,6453c67e74af6c7cb8a49340,2023-05-04_16h53.19.835,ga_syllabified_check,2022.2.5,Linux x86_64,60.0240096,,,,,,,,,,,,,,./stim/p06_syllable_1_flauro_hit.wav,p06,flauro,hit,fla-u-ro,flau-ro,fla-u-ro, ,0.406481481,-0.100925926,1,0,0,1.1,text_option_2,,0,145,145,107,1
61462f791eb4fbf23ec1d583,63f3cfca20052e4ae7554ebf,6453c67e74af6c7cb8a49340,2023-05-04_16h53.19.835,ga_syllabified_check,2022.2.5,Linux x86_64,60.0240096,,,,,,,,,,,,,,./stim/p04_syllable_1_palufauro_hit.wav,p04,palufauro,hit,pa-lu-fau-ro,pa-lu-fau-ro,pa-lu-fa-u-ro, ,-0.339814815,-0.118518519,1,0,0,1.717,text_option_1,,0,146,146,59,1
61462f791eb4fbf23ec1d583,63f3cfca20052e4ae7554ebf,6453c67e74af6c7cb8a49340,2023-05-04_16h53.19.835,ga_syllabified_check,2022.2.5,Linux x86_64,60.0240096,,,,,,,,,,,,,,./stim/p08_syllable_1_paluguato_hit.wav,p08,paluguato,hit,pa-lu-gua-to,pa-lu-gua-to,pa-lu-gu-a-to, ,-0.353703704,-0.105555556,1,0,0,2.385,text_option_1,,0,147,147,197,1
61462f791eb4fbf23ec1d583,63f3cfca20052e4ae7554ebf,6453c67e74af6c7cb8a49340,2023-05-04_16h53.19.835,ga_syllabified_check,2022.2.5,Linux x86_64,60.0240096,,,,,,,,,,,,,,./stim/p07_syllable_1_ruyiola_hit.wav,p07,ruyiola,hit,ru-yio-la,ru-yio-la,ru-yi-o-la, ,-0.369444444,-0.106481481,1,0,0,1.1,text_option_1,,0,148,148,168,1
61462f791eb4fbf23ec1d583,63f3cfca20052e4ae7554ebf,6453c67e74af6c7cb8a49340,2023-05-04_16h53.19.835,ga_syllabified_check,2022.2.5,Linux x86_64,60.0240096,,,,,,,,,,,,,,./stim/p08_syllable_1_falutraigo_hit.wav,p08,falutraigo,hit,fa-lu-trai-go,fa-lu-trai-go,fa-lu-tra-i-go, ,-0.356481481,-0.103703704,1,0,0,1.616,text_option_1,,0,149,149,174,1
61462f791eb4fbf23ec1d583,63f3cfca20052e4ae7554ebf,6453c67e74af6c7cb8a49340,2023-05-04_16h53.19.835,ga_syllabified_check,2022.2.5,Linux x86_64,60.0240096,,,,,,,,,,,,,,./stim/p06_syllable_1_faluduako_hit.wav,p06,faluduako,hit,fa-lu-dua-ko,fa-lu-dua-ko,fa-lu-du-a-ko, ,0.466666667,-0.097222222,1,0,0,4.133,text_option_2,,0,150,150,104,1
61462f791eb4fbf23ec1d583,63f3cfca20052e4ae7554ebf,6453c67e74af6c7cb8a49340,2023-05-04_16h53.19.835,ga_syllabified_check,2022.2.5,Linux x86_64,60.0240096,,,,,,,,,,,,,,./stim/p04_syllable_1_falutraigo_hit.wav,p04,falutraigo,hit,fa-lu-trai-go,fa-lu-trai-go,fa-lu-tra-i-go, ,-0.359259259,-0.115740741,1,0,0,1.484,text_option_1,,0,151,151,38,1
61462f791eb4fbf23ec1d583,63f3cfca20052e4ae7554ebf,6453c67e74af6c7cb8a49340,2023-05-04_16h53.19.835,ga_syllabified_check,2022.2.5,Linux x86_64,60.0240096,,,,,,,,,,,,,,./stim/p05_syllable_1_lakadiaisto_hit.wav,p05,lakadiaisto,hit,la-ka-di-ais-to,la-ka-diais-to,la-ka-di-ais-to,la-ka-dia-is-to,0.461111111,-0.107407407,1,0,0,5.717,text_option_2,,0,152,152,76,1
61462f791eb4fbf23ec1d583,63f3cfca20052e4ae7554ebf,6453c67e74af6c7cb8a49340,2023-05-04_16h53.19.835,ga_syllabified_check,2022.2.5,Linux x86_64,60.0240096,,,,,,,,,,,,,,./stim/p06_syllable_1_lakafuaisto_hit.wav,p06,lakafuaisto,hit,la-ka-fu-a-is,la-ka-fuais-to,la-ka-fu-ais-to,la-ka-fua-is-to,0.051851852,-0.293518519,1,0,0,4.95,text_option_other,la-ka-fu-a-is-to,0,153,153,113,1
61462f791eb4fbf23ec1d583,63f3cfca20052e4ae7554ebf,6453c67e74af6c7cb8a49340,2023-05-04_16h53.19.835,ga_syllabified_check,2022.2.5,Linux x86_64,60.0240096,,,,,,,,,,,,,,./stim/p08_syllable_1_palumaisto_hit.wav,p08,palumaisto,hit,pa-lu-mais-to,pa-lu-mais-to,pa-lu-ma-is-to, ,-0.385185185,-0.114814815,1,0,0,1.95,text_option_1,,0,154,154,198,1
61462f791eb4fbf23ec1d583,63f3cfca20052e4ae7554ebf,6453c67e74af6c7cb8a49340,2023-05-04_16h53.19.835,ga_syllabified_check,2022.2.5,Linux x86_64,60.0240096,,,,,,,,,,,,,,./stim/p04_syllable_1_manhiala_hit.wav,p04,mañiala,hit,ma-nhia-la,ma-ñia-la,ma-ñi-a-la, ,-0.375,-0.109259259,1,0,0,0.8,text_option_1,,0,155,155,55,1
61462f791eb4fbf23ec1d583,63f3cfca20052e4ae7554ebf,6453c67e74af6c7cb8a49340,2023-05-04_16h53.19.835,ga_syllabified_check,2022.2.5,Linux x86_64,60.0240096,,,,,,,,,,,,,,./stim/p05_syllable_1_payielo_hit.wav,p05,payielo,hit,pai-yu-we-lo,pa-yie-lo,pa-yi-e-lo, ,0.437962963,-0.122222222,1,0,0,5.717,text_option_2,,0,156,156,98,1
61462f791eb4fbf23ec1d583,63f3cfca20052e4ae7554ebf,6453c67e74af6c7cb8a49340,2023-05-04_16h53.19.835,ga_syllabified_check,2022.2.5,Linux x86_64,60.0240096,,,,,,,,,,,,,,./stim/p06_syllable_1_lakapuaisto_hit.wav,p06,lakapuaisto,hit,la-ka-pu-a-is,la-ka-puais-to,la-ka-pu-ais-to,la-ka-pua-is-to,0.069444444,-0.098148148,1,0,0,18.382,text_option_3,,0,157,157,119,1
61462f791eb4fbf23ec1d583,63f3cfca20052e4ae7554ebf,6453c67e74af6c7cb8a49340,2023-05-04_16h53.19.835,ga_syllabified_check,2022.2.5,Linux x86_64,60.0240096,,,,,,,,,,,,,,./stim/p05_syllable_1_lakagiaisto_hit.wav,p05,lakagiaisto,hit,la-ka-ki-ais-to,la-ka-giais-to,la-ka-gi-ais-to,la-ka-gia-is-to,-0.325925926,-0.117592593,1,0,0,1.833,text_option_1,,0,158,158,80,1
61462f791eb4fbf23ec1d583,63f3cfca20052e4ae7554ebf,6453c67e74af6c7cb8a49340,2023-05-04_16h53.19.835,ga_syllabified_check,2022.2.5,Linux x86_64,60.0240096,,,,,,,,,,,,,,./stim/p04_syllable_1_lakabiaisto_hit.wav,p04,lakabiaisto,hit,la-ka-biais-to,la-ka-biais-to,la-ka-bi-ais-to,la-ka-bia-is-to,-0.334259259,-0.103703704,1,0,0,1.299,text_option_1,,0,159,159,40,1
61462f791eb4fbf23ec1d583,63f3cfca20052e4ae7554ebf,6453c67e74af6c7cb8a49340,2023-05-04_16h53.19.835,ga_syllabified_check,2022.2.5,Linux x86_64,60.0240096,,,,,,,,,,,,,,./stim/p06_syllable_1_palufauro_hit.wav,p06,palufauro,hit,pa-lu-fau-ro,pa-lu-fau-ro,pa-lu-fa-u-ro, ,0.387037037,-0.116666667,1,0,0,4.167,text_option_2,,0,160,160,127,1
61462f791eb4fbf23ec1d583,63f3cfca20052e4ae7554ebf,6453c67e74af6c7cb8a49340,2023-05-04_16h53.19.835,ga_syllabified_check,2022.2.5,Linux x86_64,60.0240096,,,,,,,,,,,,,,./stim/p05_syllable_1_lakakuaisto_hit.wav,p05,lakakuaisto,hit,la-ka-kais-to,la-ka-kuais-to,la-ka-ku-ais-to,la-ka-kua-is-to,-0.35462963,-0.098148148,1,0,0,9.534,text_option_1,,0,161,161,83,1
61462f791eb4fbf23ec1d583,63f3cfca20052e4ae7554ebf,6453c67e74af6c7cb8a49340,2023-05-04_16h53.19.835,ga_syllabified_check,2022.2.5,Linux x86_64,60.0240096,,,,,,,,,,,,,,./stim/p04_syllable_1_palumaisto_hit.wav,p04,palumaisto,hit,pa-lu-mais-to,pa-lu-mais-to,pa-lu-ma-is-to, ,-0.342592593,-0.094444444,1,0,0,0.783,text_option_1,,0,162,162,62,1
61462f791eb4fbf23ec1d583,63f3cfca20052e4ae7554ebf,6453c67e74af6c7cb8a49340,2023-05-04_16h53.19.835,ga_syllabified_check,2022.2.5,Linux x86_64,60.0240096,,,,,,,,,,,,,,./stim/p08_syllable_1_payielo_hit.wav,p08,payielo,hit,pa-yie-lo,pa-yie-lo,pa-yi-e-lo, ,-0.343518519,-0.114814815,1,0,0,1.466,text_option_1,,0,163,163,200,1
61462f791eb4fbf23ec1d583,63f3cfca20052e4ae7554ebf,6453c67e74af6c7cb8a49340,2023-05-04_16h53.19.835,ga_syllabified_check,2022.2.5,Linux x86_64,60.0240096,,,,,,,,,,,,,,./stim/p05_syllable_1_lakapiaisto_hit.wav,p05,lakapiaisto,hit,la-ka-pais-to,la-ka-piais-to,la-ka-pi-ais-to,la-ka-pia-is-to,-0.298148148,-0.112037037,1,0,0,3.634,text_option_1,,0,164,164,84,1
61462f791eb4fbf23ec1d583,63f3cfca20052e4ae7554ebf,6453c67e74af6c7cb8a49340,2023-05-04_16h53.19.835,ga_syllabified_check,2022.2.5,Linux x86_64,60.0240096,,,,,,,,,,,,,,./stim/p03_syllable_1_lakabiaisto_hit.wav,p03,lakabiaisto,hit,la-ka-biais-to,la-ka-biais-to,la-ka-bi-ais-to,la-ka-bia-is-to,-0.294444444,-0.106481481,1,0,0,2.917,text_option_1,,0,165,165,6,1
61462f791eb4fbf23ec1d583,63f3cfca20052e4ae7554ebf,6453c67e74af6c7cb8a49340,2023-05-04_16h53.19.835,ga_syllabified_check,2022.2.5,Linux x86_64,60.0240096,,,,,,,,,,,,,,./stim/p06_syllable_1_payielo_hit.wav,p06,payielo,hit,pa-yi-e-lo,pa-yie-lo,pa-yi-e-lo, ,0.428703704,-0.097222222,1,0,0,1.967,text_option_2,,0,166,166,132,1
61462f791eb4fbf23ec1d583,63f3cfca20052e4ae7554ebf,6453c67e74af6c7cb8a49340,2023-05-04_16h53.19.835,ga_syllabified_check,2022.2.5,Linux x86_64,60.0240096,,,,,,,,,,,,,,./stim/p04_syllable_1_mebochiana_hit.wav,p04,mebochiana,hit,me-bo-chia-na,me-bo-chia-na,me-bo-chi-a-na, ,-0.319444444,-0.102777778,1,0,0,1.283,text_option_1,,0,167,167,56,1
61462f791eb4fbf23ec1d583,63f3cfca20052e4ae7554ebf,6453c67e74af6c7cb8a49340,2023-05-04_16h53.19.835,ga_syllabified_check,2022.2.5,Linux x86_64,60.0240096,,,,,,,,,,,,,,./stim/p08_syllable_1_lakaduaisto_hit.wav,p08,lakaduaisto,hit,la-ka-du-ais-to,la-ka-duais-to,la-ka-du-ais-to,la-ka-dua-is-to,0.464814815,-0.10462963,1,0,0,3.767,text_option_2,,0,168,168,179,1
61462f791eb4fbf23ec1d583,63f3cfca20052e4ae7554ebf,6453c67e74af6c7cb8a49340,2023-05-04_16h53.19.835,ga_syllabified_check,2022.2.5,Linux x86_64,60.0240096,,,,,,,,,,,,,,./stim/p06_syllable_1_lakaduaisto_hit.wav,p06,lakaduaisto,hit,la-ka-du-a-is,la-ka-duais-to,la-ka-du-ais-to,la-ka-dua-is-to,0.448148148,-0.112962963,1,0,0,2.75,text_option_2,,0,169,169,111,1
61462f791eb4fbf23ec1d583,63f3cfca20052e4ae7554ebf,6453c67e74af6c7cb8a49340,2023-05-04_16h53.19.835,ga_syllabified_check,2022.2.5,Linux x86_64,60.0240096,,,,,,,,,,,,,,./stim/p08_syllable_1_lakadiaisto_hit.wav,p08,lakadiaisto,hit,la-ka-di-jas-to,la-ka-diais-to,la-ka-di-ais-to,la-ka-dia-is-to,0.467592593,-0.112962963,1,0,0,3.349,text_option_2,,0,170,170,178,1
61462f791eb4fbf23ec1d583,63f3cfca20052e4ae7554ebf,6453c67e74af6c7cb8a49340,2023-05-04_16h53.19.835,ga_syllabified_check,2022.2.5,Linux x86_64,60.0240096,,,,,,,,,,,,,,./stim/p07_syllable_1_mebochiana_hit.wav,p07,mebochiana,hit,me-bo-chia-na,me-bo-chia-na,me-bo-chi-a-na, ,-0.414814815,-0.096296296,1,0,0,1.801,text_option_1,,0,171,171,158,1
61462f791eb4fbf23ec1d583,63f3cfca20052e4ae7554ebf,6453c67e74af6c7cb8a49340,2023-05-04_16h53.19.835,ga_syllabified_check,2022.2.5,Linux x86_64,60.0240096,,,,,,,,,,,,,,./stim/p05_syllable_1_palufauto_hit.wav,p05,palufauto,hit,pa-lu-fau-to,pa-lu-fau-to,pa-lu-fa-u-to, ,-0.346296296,-0.105555556,1,0,0,1.649,text_option_1,,0,172,172,94,1
61462f791eb4fbf23ec1d583,63f3cfca20052e4ae7554ebf,6453c67e74af6c7cb8a49340,2023-05-04_16h53.19.835,ga_syllabified_check,2022.2.5,Linux x86_64,60.0240096,,,,,,,,,,,,,,./stim/p04_syllable_1_lakaduaisto_hit.wav,p04,lakaduaisto,hit,la-ka-duais-to,la-ka-duais-to,la-ka-du-ais-to,la-ka-dua-is-to,-0.322222222,-0.117592593,1,0,0,1.117,text_option_1,,0,173,173,43,1
61462f791eb4fbf23ec1d583,63f3cfca20052e4ae7554ebf,6453c67e74af6c7cb8a49340,2023-05-04_16h53.19.835,ga_syllabified_check,2022.2.5,Linux x86_64,60.0240096,,,,,,,,,,,,,,./stim/p05_syllable_1_lakapuaisto_hit.wav,p05,lakapuaisto,hit,la-ka-pais-to,la-ka-puais-to,la-ka-pu-ais-to,la-ka-pua-is-to,-0.323148148,-0.117592593,1,0,0,2.517,text_option_1,,0,174,174,85,1
61462f791eb4fbf23ec1d583,63f3cfca20052e4ae7554ebf,6453c67e74af6c7cb8a49340,2023-05-04_16h53.19.835,ga_syllabified_check,2022.2.5,Linux x86_64,60.0240096,,,,,,,,,,,,,,./stim/p04_syllable_1_lliape_hit.wav,p04,lliape,hit,lia-pe,llia-pe,lli-a-pe, ,-0.405555556,-0.106481481,1,0,0,0.534,text_option_1,,0,175,175,54,1
61462f791eb4fbf23ec1d583,63f3cfca20052e4ae7554ebf,6453c67e74af6c7cb8a49340,2023-05-04_16h53.19.835,ga_syllabified_check,2022.2.5,Linux x86_64,60.0240096,,,,,,,,,,,,,,./stim/p06_syllable_1_palufauto_hit.wav,p06,palufauto,hit,pa-lu-fau-to,pa-lu-fau-to,pa-lu-fa-u-to, ,-0.298148148,-0.100925926,1,0,0,3.1,text_option_1,,0,176,176,128,1
61462f791eb4fbf23ec1d583,63f3cfca20052e4ae7554ebf,6453c67e74af6c7cb8a49340,2023-05-04_16h53.19.835,ga_syllabified_check,2022.2.5,Linux x86_64,60.0240096,,,,,,,,,,,,,,./stim/p06_syllable_1_ruyiola_hit.wav,p06,ruyiola,hit,ru-yi-o-la,ru-yio-la,ru-yi-o-la, ,0.442592593,-0.112962963,1,0,0,1.6,text_option_2,,0,177,177,134,1
61462f791eb4fbf23ec1d583,63f3cfca20052e4ae7554ebf,6453c67e74af6c7cb8a49340,2023-05-04_16h53.19.835,ga_syllabified_check,2022.2.5,Linux x86_64,60.0240096,,,,,,,,,,,,,,./stim/p03_syllable_1_chiaba_hit.wav,p03,chiaba,hit,chia-ba,chia-ba,chi-a-ba, ,-0.417592593,-0.102777778,1,0,0,4.6,text_option_1,,0,178,178,0,1
61462f791eb4fbf23ec1d583,63f3cfca20052e4ae7554ebf,6453c67e74af6c7cb8a49340,2023-05-04_16h53.19.835,ga_syllabified_check,2022.2.5,Linux x86_64,60.0240096,,,,,,,,,,,,,,./stim/p08_syllable_1_palufauto_hit.wav,p08,palufauto,hit,pa-lu-fau-to,pa-lu-fau-to,pa-lu-fa-u-to, ,-0.356481481,-0.122222222,1,0,0,3.232,text_option_1,,0,179,179,196,1
61462f791eb4fbf23ec1d583,63f3cfca20052e4ae7554ebf,6453c67e74af6c7cb8a49340,2023-05-04_16h53.19.835,ga_syllabified_check,2022.2.5,Linux x86_64,60.0240096,,,,,,,,,,,,,,./stim/p03_syllable_1_lakagiaisto_hit.wav,p03,lakagiaisto,hit,la-ka-giais-to,la-ka-giais-to,la-ka-gi-ais-to,la-ka-gia-is-to,-0.333333333,-0.112037037,1,0,0,1.2,text_option_1,,0,180,180,12,1
61462f791eb4fbf23ec1d583,63f3cfca20052e4ae7554ebf,6453c67e74af6c7cb8a49340,2023-05-04_16h53.19.835,ga_syllabified_check,2022.2.5,Linux x86_64,60.0240096,,,,,,,,,,,,,,./stim/p08_syllable_1_lakafuaisto_hit.wav,p08,lakafuaisto,hit,la-ka-fju-ais-to,la-ka-fuais-to,la-ka-fu-ais-to,la-ka-fua-is-to,0.473148148,-0.094444444,1,0,0,3.751,text_option_2,,0,181,181,181,1
61462f791eb4fbf23ec1d583,63f3cfca20052e4ae7554ebf,6453c67e74af6c7cb8a49340,2023-05-04_16h53.19.835,ga_syllabified_check,2022.2.5,Linux x86_64,60.0240096,,,,,,,,,,,,,,./stim/p05_syllable_1_flauro_hit.wav,p05,flauro,hit,fa-lu-ro,flau-ro,fla-u-ro, ,0.416666667,-0.101851852,1,0,0,3.017,text_option_2,,0,182,182,73,1
61462f791eb4fbf23ec1d583,63f3cfca20052e4ae7554ebf,6453c67e74af6c7cb8a49340,2023-05-04_16h53.19.835,ga_syllabified_check,2022.2.5,Linux x86_64,60.0240096,,,,,,,,,,,,,,./stim/p03_syllable_1_lakafiaisto_hit.wav,p03,lakafiaisto,hit,la-ka-fiais-to,la-ka-fiais-to,la-ka-fi-ais-to,la-ka-fia-is-to,-0.342592593,-0.102777778,1,0,0,2.864,text_option_1,,0,183,183,10,1
61462f791eb4fbf23ec1d583,63f3cfca20052e4ae7554ebf,6453c67e74af6c7cb8a49340,2023-05-04_16h53.19.835,ga_syllabified_check,2022.2.5,Linux x86_64,60.0240096,,,,,,,,,,,,,,./stim/p03_syllable_1_falufaisto_hit.wav,p03,falufaisto,hit,fa-lu-fais-to,fa-lu-fais-to,fa-lu-fa-is-to, ,-0.344444444,-0.101851852,1,0,0,1.433,text_option_1,,0,184,184,3,1
61462f791eb4fbf23ec1d583,63f3cfca20052e4ae7554ebf,6453c67e74af6c7cb8a49340,2023-05-04_16h53.19.835,ga_syllabified_check,2022.2.5,Linux x86_64,60.0240096,,,,,,,,,,,,,,./stim/p07_syllable_1_falutraigo_hit.wav,p07,falutraigo,hit,fa-lu-trai-go,fa-lu-trai-go,fa-lu-tra-i-go, ,-0.344444444,-0.103703704,1,0,0,2.483,text_option_1,,0,185,185,140,1
61462f791eb4fbf23ec1d583,63f3cfca20052e4ae7554ebf,6453c67e74af6c7cb8a49340,2023-05-04_16h53.19.835,ga_syllabified_check,2022.2.5,Linux x86_64,60.0240096,,,,,,,,,,,,,,./stim/p05_syllable_1_lliape_hit.wav,p05,lliape,hit,liai-pe,llia-pe,lli-a-pe, ,-0.344444444,-0.103703704,1,0,0,1.75,text_option_1,,0,186,186,88,1
61462f791eb4fbf23ec1d583,63f3cfca20052e4ae7554ebf,6453c67e74af6c7cb8a49340,2023-05-04_16h53.19.835,ga_syllabified_check,2022.2.5,Linux x86_64,60.0240096,,,,,,,,,,,,,,./stim/p06_syllable_1_nhiape_hit.wav,p06,ñiape,hit,nhi-a-pe,ñia-pe,ñi-a-pe, ,0.428703704,-0.121296296,1,0,0,1.917,text_option_2,,0,187,187,125,1
61462f791eb4fbf23ec1d583,63f3cfca20052e4ae7554ebf,6453c67e74af6c7cb8a49340,2023-05-04_16h53.19.835,ga_syllabified_check,2022.2.5,Linux x86_64,60.0240096,,,,,,,,,,,,,,./stim/p04_syllable_1_pachialo_hit.wav,p04,pachialo,hit,pa-chia-lo,pa-chia-lo,pa-chi-a-lo, ,-0.325,-0.113888889,1,0,0,2.234,text_option_1,,0,188,188,58,1
61462f791eb4fbf23ec1d583,63f3cfca20052e4ae7554ebf,6453c67e74af6c7cb8a49340,2023-05-04_16h53.19.835,ga_syllabified_check,2022.2.5,Linux x86_64,60.0240096,,,,,,,,,,,,,,./stim/p07_syllable_1_lakatiaisto_hit.wav,p07,lakatiaisto,hit,la-ka-tiai-sto,la-ka-tiais-to,la-ka-ti-ais-to,la-ka-tia-is-to,0.078703704,-0.106481481,1,0,0,3.668,text_option_3,,0,189,189,154,1
61462f791eb4fbf23ec1d583,63f3cfca20052e4ae7554ebf,6453c67e74af6c7cb8a49340,2023-05-04_16h53.19.835,ga_syllabified_check,2022.2.5,Linux x86_64,60.0240096,,,,,,,,,,,,,,./stim/p03_syllable_1_lakadiaisto_hit.wav,p03,lakadiaisto,hit,la-ka-diais-to,la-ka-diais-to,la-ka-di-ais-to,la-ka-dia-is-to,-0.327777778,-0.112962963,1,0,0,2.583,text_option_1,,0,190,190,8,1
61462f791eb4fbf23ec1d583,63f3cfca20052e4ae7554ebf,6453c67e74af6c7cb8a49340,2023-05-04_16h53.19.835,ga_syllabified_check,2022.2.5,Linux x86_64,60.0240096,,,,,,,,,,,,,,./stim/p04_syllable_1_chiaba_hit.wav,p04,chiaba,hit,chia-ba,chia-ba,chi-a-ba, ,-0.342592593,-0.112037037,1,0,0,0.451,text_option_1,,0,191,191,34,1
61462f791eb4fbf23ec1d583,63f3cfca20052e4ae7554ebf,6453c67e74af6c7cb8a49340,2023-05-04_16h53.19.835,ga_syllabified_check,2022.2.5,Linux x86_64,60.0240096,,,,,,,,,,,,,,./stim/p04_syllable_1_lakakuaisto_hit.wav,p04,lakakuaisto,hit,la-ka-kuais-to,la-ka-kuais-to,la-ka-ku-ais-to,la-ka-kua-is-to,-0.342592593,-0.112037037,1,0,0,1.366,text_option_1,,0,192,192,49,1
61462f791eb4fbf23ec1d583,63f3cfca20052e4ae7554ebf,6453c67e74af6c7cb8a49340,2023-05-04_16h53.19.835,ga_syllabified_check,2022.2.5,Linux x86_64,60.0240096,,,,,,,,,,,,,,./stim/p06_syllable_1_palumaisto_hit.wav,p06,palumaisto,hit,pa-lu-ma-is-to,pa-lu-mais-to,pa-lu-ma-is-to, ,0.45,-0.112037037,1,0,0,3.133,text_option_2,,0,193,193,130,1
61462f791eb4fbf23ec1d583,63f3cfca20052e4ae7554ebf,6453c67e74af6c7cb8a49340,2023-05-04_16h53.19.835,ga_syllabified_check,2022.2.5,Linux x86_64,60.0240096,,,,,,,,,,,,,,./stim/p08_syllable_1_lakakuaisto_hit.wav,p08,lakakuaisto,hit,la-ka-ku-ais-to,la-ka-kuais-to,la-ka-ku-ais-to,la-ka-kua-is-to,0.056481481,-0.098148148,1,0,0,2.417,text_option_3,,0,194,194,185,1
61462f791eb4fbf23ec1d583,63f3cfca20052e4ae7554ebf,6453c67e74af6c7cb8a49340,2023-05-04_16h53.19.835,ga_syllabified_check,2022.2.5,Linux x86_64,60.0240096,,,,,,,,,,,,,,./stim/p06_syllable_1_lakabiaisto_hit.wav,p06,lakabiaisto,hit,la-ka-bia-is-to,la-ka-biais-to,la-ka-bi-ais-to,la-ka-bia-is-to,0.00462963,-0.107407407,1,0,0,3.834,text_option_3,,0,195,195,108,1
61462f791eb4fbf23ec1d583,63f3cfca20052e4ae7554ebf,6453c67e74af6c7cb8a49340,2023-05-04_16h53.19.835,ga_syllabified_check,2022.2.5,Linux x86_64,60.0240096,,,,,,,,,,,,,,./stim/p08_syllable_1_ruyiola_hit.wav,p08,ruyiola,hit,ru-yio-la,ru-yio-la,ru-yi-o-la, ,-0.374074074,-0.1,1,0,0,1.816,text_option_1,,0,196,196,202,1
61462f791eb4fbf23ec1d583,63f3cfca20052e4ae7554ebf,6453c67e74af6c7cb8a49340,2023-05-04_16h53.19.835,ga_syllabified_check,2022.2.5,Linux x86_64,60.0240096,,,,,,,,,,,,,,./stim/p07_syllable_1_falufaisto_hit.wav,p07,falufaisto,hit,fa-lu-fais-to,fa-lu-fais-to,fa-lu-fa-is-to, ,-0.341666667,-0.101851852,1,0,0,2.217,text_option_1,,0,197,197,139,1
61462f791eb4fbf23ec1d583,63f3cfca20052e4ae7554ebf,6453c67e74af6c7cb8a49340,2023-05-04_16h53.19.835,ga_syllabified_check,2022.2.5,Linux x86_64,60.0240096,,,,,,,,,,,,,,./stim/p08_syllable_1_lakatiaisto_hit.wav,p08,lakatiaisto,hit,la-ka-ti-as-to,la-ka-tiais-to,la-ka-ti-ais-to,la-ka-tia-is-to,0.389814815,-0.092592593,1,0,0,6.116,text_option_2,,0,198,198,188,1
61462f791eb4fbf23ec1d583,63f3cfca20052e4ae7554ebf,6453c67e74af6c7cb8a49340,2023-05-04_16h53.19.835,ga_syllabified_check,2022.2.5,Linux x86_64,60.0240096,,,,,,,,,,,,,,./stim/p07_syllable_1_lakakuaisto_hit.wav,p07,lakakuaisto,hit,la-ka-kuais-to,la-ka-kuais-to,la-ka-ku-ais-to,la-ka-kua-is-to,-0.283333333,-0.1,1,0,0,1.632,text_option_1,,0,199,199,151,1
61462f791eb4fbf23ec1d583,63f3cfca20052e4ae7554ebf,6453c67e74af6c7cb8a49340,2023-05-04_16h53.19.835,ga_syllabified_check,2022.2.5,Linux x86_64,60.0240096,,,,,,,,,,,,,,./stim/p07_syllable_1_lakapuaisto_hit.wav,p07,lakapuaisto,hit,la-ka-puais-to,la-ka-puais-to,la-ka-pu-ais-to,la-ka-pua-is-to,-0.288888889,-0.113888889,1,0,0,1.683,text_option_1,,0,200,200,153,1
61462f791eb4fbf23ec1d583,63f3cfca20052e4ae7554ebf,6453c67e74af6c7cb8a49340,2023-05-04_16h53.19.835,ga_syllabified_check,2022.2.5,Linux x86_64,60.0240096,,,,,,,,,,,,,,./stim/p07_syllable_1_lakaguaisto_hit.wav,p07,lakaguaisto,hit,la-ka-guais-to,la-ka-guais-to,la-ka-gu-ais-to,la-ka-gua-is-to,-0.289814815,-0.113888889,1,0,0,0.601,text_option_1,,0,201,201,149,1
61462f791eb4fbf23ec1d583,63f3cfca20052e4ae7554ebf,6453c67e74af6c7cb8a49340,2023-05-04_16h53.19.835,ga_syllabified_check,2022.2.5,Linux x86_64,60.0240096,,,,,,,,,,,,,,./stim/p05_syllable_1_costonhialo_hit.wav,p05,costoñialo,hit,cos-to-nhia-lo,cos-to-ñia-lo,cos-to-ñi-a-lo, ,-0.339814815,-0.105555556,1,0,0,1.632,text_option_1,,0,202,202,69,1
61462f791eb4fbf23ec1d583,63f3cfca20052e4ae7554ebf,6453c67e74af6c7cb8a49340,2023-05-04_16h53.19.835,ga_syllabified_check,2022.2.5,Linux x86_64,60.0240096,,,,,,,,,,,,,,./stim/p04_syllable_1_tuliafo_hit.wav,p04,tuliafo,hit,tu-lia-fo,tu-lia-fo,tu-li-a-fo, ,-0.342592593,-0.114814815,1,0,0,1.399,text_option_1,,0,203,203,67,1
61462f791eb4fbf23ec1d583,63f3cfca20052e4ae7554ebf,6453c67e74af6c7cb8a49340,2023-05-04_16h53.19.835,ga_syllabified_check,2022.2.5,Linux x86_64,60.0240096,,,,,,,,,,,,,,,,,,,,,,,,,,,,,,,,,,
