participant,study,session,date,expName,psychopyVersion,OS,frameRate,mouse_practice.x,mouse_practice.y,mouse_practice.leftButton,mouse_practice.midButton,mouse_practice.rightButton,mouse_practice.time,mouse_practice.clicked_name,textbox_followup_practice.text,trials_practice.thisRepN,trials_practice.thisTrialN,trials_practice.thisN,trials_practice.thisIndex,trials_practice.ran,file_path,id,item,status,response,op1,op2,op3,mouse.x,mouse.y,mouse.leftButton,mouse.midButton,mouse.rightButton,mouse.time,mouse.clicked_name,textbox_followup.text,trials.thisRepN,trials.thisTrialN,trials.thisN,trials.thisIndex,trials.ran
615362845380d544dd5466b5,63f3cfca20052e4ae7554ebf,6453cb496285732841f0b066,2023-05-04_17h12.32.073,ga_syllabified_check,2022.2.5,Win32,60.27000964,,,,,,,,,,,,,,,,,,,,,,,,,,,,,,,,,,
615362845380d544dd5466b5,63f3cfca20052e4ae7554ebf,6453cb496285732841f0b066,2023-05-04_17h12.32.073,ga_syllabified_check,2022.2.5,Win32,60.27000964,-0.385416667,-0.095052083,1,0,0,2.0235,text_option_1_practice,,0,0,0,0,1,./stim/p03_syllable_1_liamo_hit.wav,p03,liamo,hit,lia-mo,lia-mo,li-a-mo, ,,,,,,,,,,,,,
615362845380d544dd5466b5,63f3cfca20052e4ae7554ebf,6453cb496285732841f0b066,2023-05-04_17h12.32.073,ga_syllabified_check,2022.2.5,Win32,60.27000964,-0.389322917,-0.114583333,1,0,0,1.3928,text_option_1_practice,,0,1,1,1,1,./stim/p05_syllable_1_matio_hit.wav,p05,matio,hit,ma-tio,ma-tio,ma-ti-o, ,,,,,,,,,,,,,
615362845380d544dd5466b5,63f3cfca20052e4ae7554ebf,6453cb496285732841f0b066,2023-05-04_17h12.32.073,ga_syllabified_check,2022.2.5,Win32,60.27000964,-0.37890625,-0.110677083,1,0,0,2.699,text_option_1_practice,,0,2,2,2,1,./stim/p08_syllable_1_liamo_hit.wav,p08,liamo,hit,ja-mo,lia-mo,li-a-mo, ,,,,,,,,,,,,,
615362845380d544dd5466b5,63f3cfca20052e4ae7554ebf,6453cb496285732841f0b066,2023-05-04_17h12.32.073,ga_syllabified_check,2022.2.5,Win32,60.27000964,,,,,,,,,,,,,,,,,,,,,,,,,,,,,,,,,,
615362845380d544dd5466b5,63f3cfca20052e4ae7554ebf,6453cb496285732841f0b066,2023-05-04_17h12.32.073,ga_syllabified_check,2022.2.5,Win32,60.27000964,,,,,,,,,,,,,,./stim/p08_syllable_1_paluguato_hit.wav,p08,paluguato,hit,pa-lu-gua-to,pa-lu-gua-to,pa-lu-gu-a-to, ,-0.358072917,-0.102864583,1,0,0,3.3785,text_option_1,,0,0,0,197,1
615362845380d544dd5466b5,63f3cfca20052e4ae7554ebf,6453cb496285732841f0b066,2023-05-04_17h12.32.073,ga_syllabified_check,2022.2.5,Win32,60.27000964,,,,,,,,,,,,,,./stim/p03_syllable_1_manhiala_hit.wav,p03,mañiala,hit,ma-nhia-la,ma-ñia-la,ma-ñi-a-la, ,-0.372395833,-0.111979167,1,0,0,3.2121,text_option_1,,0,1,1,21,1
615362845380d544dd5466b5,63f3cfca20052e4ae7554ebf,6453cb496285732841f0b066,2023-05-04_17h12.32.073,ga_syllabified_check,2022.2.5,Win32,60.27000964,,,,,,,,,,,,,,./stim/p08_syllable_1_lakakuaisto_hit.wav,p08,lakakuaisto,hit,la-ka-ku-ais-to,la-ka-kuais-to,la-ka-ku-ais-to,la-ka-kua-is-to,-0.330729167,-0.108072917,1,0,0,7.2153,text_option_1,,0,2,2,185,1
615362845380d544dd5466b5,63f3cfca20052e4ae7554ebf,6453cb496285732841f0b066,2023-05-04_17h12.32.073,ga_syllabified_check,2022.2.5,Win32,60.27000964,,,,,,,,,,,,,,./stim/p06_syllable_1_falufaisto_hit.wav,p06,falufaisto,hit,fa-lu-fa-is-to,fa-lu-fais-to,fa-lu-fa-is-to, ,-0.015625,-0.296875,1,0,0,6.3392,text_option_other,fa-lu-fa-lis-to,0,3,3,105,1
615362845380d544dd5466b5,63f3cfca20052e4ae7554ebf,6453cb496285732841f0b066,2023-05-04_17h12.32.073,ga_syllabified_check,2022.2.5,Win32,60.27000964,,,,,,,,,,,,,,./stim/p05_syllable_1_chiaba_hit.wav,p05,chiaba,hit,chia-ba,chia-ba,chi-a-ba, ,-0.399739583,-0.11328125,1,0,0,4.6546,text_option_1,,0,4,4,68,1
615362845380d544dd5466b5,63f3cfca20052e4ae7554ebf,6453cb496285732841f0b066,2023-05-04_17h12.32.073,ga_syllabified_check,2022.2.5,Win32,60.27000964,,,,,,,,,,,,,,./stim/p07_syllable_1_costonhialo_hit.wav,p07,costoñialo,hit,cos-to-nhia-lo,cos-to-ñia-lo,cos-to-ñi-a-lo, ,-0.404947917,-0.109375,1,0,0,2.7262,text_option_1,,0,5,5,137,1
615362845380d544dd5466b5,63f3cfca20052e4ae7554ebf,6453cb496285732841f0b066,2023-05-04_17h12.32.073,ga_syllabified_check,2022.2.5,Win32,60.27000964,,,,,,,,,,,,,,./stim/p04_syllable_1_lakapuaisto_hit.wav,p04,lakapuaisto,hit,la-ka-puais-to,la-ka-puais-to,la-ka-pu-ais-to,la-ka-pua-is-to,-0.350260417,-0.102864583,1,0,0,5.3689,text_option_1,,0,6,6,51,1
615362845380d544dd5466b5,63f3cfca20052e4ae7554ebf,6453cb496285732841f0b066,2023-05-04_17h12.32.073,ga_syllabified_check,2022.2.5,Win32,60.27000964,,,,,,,,,,,,,,./stim/p08_syllable_1_chiaba_hit.wav,p08,chiaba,hit,chi-a-ba,chia-ba,chi-a-ba, ,0.440104167,-0.102864583,1,0,0,2.4249,text_option_2,,0,7,7,170,1
615362845380d544dd5466b5,63f3cfca20052e4ae7554ebf,6453cb496285732841f0b066,2023-05-04_17h12.32.073,ga_syllabified_check,2022.2.5,Win32,60.27000964,,,,,,,,,,,,,,./stim/p06_syllable_1_flauro_hit.wav,p06,flauro,hit,fla-u-ro,flau-ro,fla-u-ro, ,0.37890625,-0.106770833,1,0,0,1.5172,text_option_2,,0,8,8,107,1
615362845380d544dd5466b5,63f3cfca20052e4ae7554ebf,6453cb496285732841f0b066,2023-05-04_17h12.32.073,ga_syllabified_check,2022.2.5,Win32,60.27000964,,,,,,,,,,,,,,./stim/p06_syllable_1_lakafuaisto_hit.wav,p06,lakafuaisto,hit,la-ka-fu-a-is,la-ka-fuais-to,la-ka-fu-ais-to,la-ka-fua-is-to,0.046875,-0.114583333,1,0,0,5.8098,text_option_3,,0,9,9,113,1
615362845380d544dd5466b5,63f3cfca20052e4ae7554ebf,6453cb496285732841f0b066,2023-05-04_17h12.32.073,ga_syllabified_check,2022.2.5,Win32,60.27000964,,,,,,,,,,,,,,./stim/p05_syllable_1_falutraigo_hit.wav,p05,falutraigo,hit,fa-lu-trai-go,fa-lu-trai-go,fa-lu-tra-i-go, ,-0.33984375,-0.104166667,1,0,0,4.2481,text_option_1,,0,10,10,72,1
615362845380d544dd5466b5,63f3cfca20052e4ae7554ebf,6453cb496285732841f0b066,2023-05-04_17h12.32.073,ga_syllabified_check,2022.2.5,Win32,60.27000964,,,,,,,,,,,,,,./stim/p08_syllable_1_faluduako_hit.wav,p08,faluduako,hit,fa-lu-duai-ko,fa-lu-dua-ko,fa-lu-du-a-ko, ,-0.319010417,-0.106770833,1,0,0,2.6263,text_option_1,,0,11,11,172,1
615362845380d544dd5466b5,63f3cfca20052e4ae7554ebf,6453cb496285732841f0b066,2023-05-04_17h12.32.073,ga_syllabified_check,2022.2.5,Win32,60.27000964,,,,,,,,,,,,,,./stim/p04_syllable_1_lliape_hit.wav,p04,lliape,hit,lia-pe,llia-pe,lli-a-pe, ,-0.373697917,-0.114583333,1,0,0,3.0277,text_option_1,,0,12,12,54,1
615362845380d544dd5466b5,63f3cfca20052e4ae7554ebf,6453cb496285732841f0b066,2023-05-04_17h12.32.073,ga_syllabified_check,2022.2.5,Win32,60.27000964,,,,,,,,,,,,,,./stim/p08_syllable_1_lakatuaisto_hit.wav,p08,lakatuaisto,hit,la-ka-tu-i-jis,la-ka-tuais-to,la-ka-tu-ais-to,la-ka-tua-is-to,0.006510417,-0.110677083,1,0,0,6.562,text_option_3,,0,13,13,189,1
615362845380d544dd5466b5,63f3cfca20052e4ae7554ebf,6453cb496285732841f0b066,2023-05-04_17h12.32.073,ga_syllabified_check,2022.2.5,Win32,60.27000964,,,,,,,,,,,,,,./stim/p05_syllable_1_lakagiaisto_hit.wav,p05,lakagiaisto,hit,la-ka-ki-ais-to,la-ka-giais-to,la-ka-gi-ais-to,la-ka-gia-is-to,-0.329427083,-0.108072917,1,0,0,6.1547,text_option_1,,0,14,14,80,1
615362845380d544dd5466b5,63f3cfca20052e4ae7554ebf,6453cb496285732841f0b066,2023-05-04_17h12.32.073,ga_syllabified_check,2022.2.5,Win32,60.27000964,,,,,,,,,,,,,,./stim/p08_syllable_1_lakapiaisto_hit.wav,p08,lakapiaisto,hit,la-ka-pi-as-to,la-ka-piais-to,la-ka-pi-ais-to,la-ka-pia-is-to,0.369791667,-0.110677083,1,0,0,5.5364,text_option_2,,0,15,15,186,1
615362845380d544dd5466b5,63f3cfca20052e4ae7554ebf,6453cb496285732841f0b066,2023-05-04_17h12.32.073,ga_syllabified_check,2022.2.5,Win32,60.27000964,,,,,,,,,,,,,,./stim/p08_syllable_1_mebochiana_hit.wav,p08,mebochiana,hit,me-bo-chi-a-na,me-bo-chia-na,me-bo-chi-a-na, ,0.4453125,-0.115885417,1,0,0,2.9607,text_option_2,,0,16,16,192,1
615362845380d544dd5466b5,63f3cfca20052e4ae7554ebf,6453cb496285732841f0b066,2023-05-04_17h12.32.073,ga_syllabified_check,2022.2.5,Win32,60.27000964,,,,,,,,,,,,,,./stim/p07_syllable_1_lakatuaisto_hit.wav,p07,lakatuaisto,hit,la-ka-tuais-to,la-ka-tuais-to,la-ka-tu-ais-to,la-ka-tua-is-to,-0.3828125,-0.110677083,1,0,0,3.4958,text_option_1,,0,17,17,155,1
615362845380d544dd5466b5,63f3cfca20052e4ae7554ebf,6453cb496285732841f0b066,2023-05-04_17h12.32.073,ga_syllabified_check,2022.2.5,Win32,60.27000964,,,,,,,,,,,,,,./stim/p05_syllable_1_lakaguaisto_hit.wav,p05,lakaguaisto,hit,la-ka-gais,la-ka-guais-to,la-ka-gu-ais-to,la-ka-gua-is-to,0.029947917,-0.286458333,1,0,0,2.3922,text_option_other,la-ka-gais-to,0,18,18,81,1
615362845380d544dd5466b5,63f3cfca20052e4ae7554ebf,6453cb496285732841f0b066,2023-05-04_17h12.32.073,ga_syllabified_check,2022.2.5,Win32,60.27000964,,,,,,,,,,,,,,./stim/p05_syllable_1_ruyiola_hit.wav,p05,ruyiola,hit,ru-yio-la,ru-yio-la,ru-yi-o-la, ,-0.427083333,-0.114583333,1,0,0,1.5178,text_option_1,,0,19,19,100,1
615362845380d544dd5466b5,63f3cfca20052e4ae7554ebf,6453cb496285732841f0b066,2023-05-04_17h12.32.073,ga_syllabified_check,2022.2.5,Win32,60.27000964,,,,,,,,,,,,,,./stim/p07_syllable_1_flauro_hit.wav,p07,flauro,hit,flau-ro,flau-ro,fla-u-ro, ,-0.415364583,-0.09375,1,0,0,1.6726,text_option_1,,0,20,20,141,1
615362845380d544dd5466b5,63f3cfca20052e4ae7554ebf,6453cb496285732841f0b066,2023-05-04_17h12.32.073,ga_syllabified_check,2022.2.5,Win32,60.27000964,,,,,,,,,,,,,,./stim/p05_syllable_1_lakapiaisto_hit.wav,p05,lakapiaisto,hit,la-ka-pais-to,la-ka-piais-to,la-ka-pi-ais-to,la-ka-pia-is-to,-0.044270833,-0.30859375,1,0,0,3.5225,text_option_other,la-ka-pais-to,0,21,21,84,1
615362845380d544dd5466b5,63f3cfca20052e4ae7554ebf,6453cb496285732841f0b066,2023-05-04_17h12.32.073,ga_syllabified_check,2022.2.5,Win32,60.27000964,,,,,,,,,,,,,,./stim/p06_syllable_1_palumaisto_hit.wav,p06,palumaisto,hit,pa-lu-ma-is-to,pa-lu-mais-to,pa-lu-ma-is-to, ,0.403645833,-0.102864583,1,0,0,3.0442,text_option_2,,0,22,22,130,1
615362845380d544dd5466b5,63f3cfca20052e4ae7554ebf,6453cb496285732841f0b066,2023-05-04_17h12.32.073,ga_syllabified_check,2022.2.5,Win32,60.27000964,,,,,,,,,,,,,,./stim/p07_syllable_1_lakaduaisto_hit.wav,p07,lakaduaisto,hit,la-ka-duais-to,la-ka-duais-to,la-ka-du-ais-to,la-ka-dua-is-to,-0.328125,-0.111979167,1,0,0,2.9773,text_option_1,,0,23,23,145,1
615362845380d544dd5466b5,63f3cfca20052e4ae7554ebf,6453cb496285732841f0b066,2023-05-04_17h12.32.073,ga_syllabified_check,2022.2.5,Win32,60.27000964,,,,,,,,,,,,,,./stim/p03_syllable_1_chiaba_hit.wav,p03,chiaba,hit,chia-ba,chia-ba,chi-a-ba, ,-0.404947917,-0.1171875,1,0,0,1.0821,text_option_1,,0,24,24,0,1
615362845380d544dd5466b5,63f3cfca20052e4ae7554ebf,6453cb496285732841f0b066,2023-05-04_17h12.32.073,ga_syllabified_check,2022.2.5,Win32,60.27000964,,,,,,,,,,,,,,./stim/p05_syllable_1_costonhialo_hit.wav,p05,costoñialo,hit,cos-to-nhia-lo,cos-to-ñia-lo,cos-to-ñi-a-lo, ,-0.359375,-0.110677083,1,0,0,3.2276,text_option_1,,0,25,25,69,1
615362845380d544dd5466b5,63f3cfca20052e4ae7554ebf,6453cb496285732841f0b066,2023-05-04_17h12.32.073,ga_syllabified_check,2022.2.5,Win32,60.27000964,,,,,,,,,,,,,,./stim/p03_syllable_1_falufaisto_hit.wav,p03,falufaisto,hit,fa-lu-fais-to,fa-lu-fais-to,fa-lu-fa-is-to, ,-0.407552083,-0.111979167,1,0,0,4.2151,text_option_1,,0,26,26,3,1
615362845380d544dd5466b5,63f3cfca20052e4ae7554ebf,6453cb496285732841f0b066,2023-05-04_17h12.32.073,ga_syllabified_check,2022.2.5,Win32,60.27000964,,,,,,,,,,,,,,./stim/p08_syllable_1_costonhialo_hit.wav,p08,costoñialo,hit,cos-to-nhia-lo,cos-to-ñia-lo,cos-to-ñi-a-lo, ,-0.35546875,-0.108072917,1,0,0,2.2468,text_option_1,,0,27,27,171,1
615362845380d544dd5466b5,63f3cfca20052e4ae7554ebf,6453cb496285732841f0b066,2023-05-04_17h12.32.073,ga_syllabified_check,2022.2.5,Win32,60.27000964,,,,,,,,,,,,,,./stim/p03_syllable_1_lakapiaisto_hit.wav,p03,lakapiaisto,hit,la-ka-piais-to,la-ka-piais-to,la-ka-pi-ais-to,la-ka-pia-is-to,-0.348958333,-0.104166667,1,0,0,3.1441,text_option_1,,0,28,28,16,1
615362845380d544dd5466b5,63f3cfca20052e4ae7554ebf,6453cb496285732841f0b066,2023-05-04_17h12.32.073,ga_syllabified_check,2022.2.5,Win32,60.27000964,,,,,,,,,,,,,,./stim/p04_syllable_1_costonhialo_hit.wav,p04,costoñialo,hit,cos-to-nhia-lo,cos-to-ñia-lo,cos-to-ñi-a-lo, ,-0.369791667,-0.10546875,1,0,0,2.7316,text_option_1,,0,29,29,35,1
615362845380d544dd5466b5,63f3cfca20052e4ae7554ebf,6453cb496285732841f0b066,2023-05-04_17h12.32.073,ga_syllabified_check,2022.2.5,Win32,60.27000964,,,,,,,,,,,,,,./stim/p07_syllable_1_lakadiaisto_hit.wav,p07,lakadiaisto,hit,la-ka-dia-is-to,la-ka-diais-to,la-ka-di-ais-to,la-ka-dia-is-to,0.037760417,-0.110677083,1,0,0,4.9628,text_option_3,,0,30,30,144,1
615362845380d544dd5466b5,63f3cfca20052e4ae7554ebf,6453cb496285732841f0b066,2023-05-04_17h12.32.073,ga_syllabified_check,2022.2.5,Win32,60.27000964,,,,,,,,,,,,,,./stim/p05_syllable_1_lakakuaisto_hit.wav,p05,lakakuaisto,hit,la-ka-kais-to,la-ka-kuais-to,la-ka-ku-ais-to,la-ka-kua-is-to,-0.020833333,-0.30078125,1,0,0,7.3466,text_option_other,la-ka-kais-to,0,31,31,83,1
615362845380d544dd5466b5,63f3cfca20052e4ae7554ebf,6453cb496285732841f0b066,2023-05-04_17h12.32.073,ga_syllabified_check,2022.2.5,Win32,60.27000964,,,,,,,,,,,,,,./stim/p04_syllable_1_lakadiaisto_hit.wav,p04,lakadiaisto,hit,la-ka-dias-to,la-ka-diais-to,la-ka-di-ais-to,la-ka-dia-is-to,-0.389322917,-0.11328125,1,0,0,2.9604,text_option_1,,0,32,32,42,1
615362845380d544dd5466b5,63f3cfca20052e4ae7554ebf,6453cb496285732841f0b066,2023-05-04_17h12.32.073,ga_syllabified_check,2022.2.5,Win32,60.27000964,,,,,,,,,,,,,,./stim/p08_syllable_1_lakadiaisto_hit.wav,p08,lakadiaisto,hit,la-ka-di-jas-to,la-ka-diais-to,la-ka-di-ais-to,la-ka-dia-is-to,0.05859375,-0.10546875,1,0,0,5.168,text_option_3,,0,33,33,178,1
615362845380d544dd5466b5,63f3cfca20052e4ae7554ebf,6453cb496285732841f0b066,2023-05-04_17h12.32.073,ga_syllabified_check,2022.2.5,Win32,60.27000964,,,,,,,,,,,,,,./stim/p03_syllable_1_tuliafo_hit.wav,p03,tuliafo,hit,tu-lia-fo,tu-lia-fo,tu-li-a-fo, ,-0.4140625,-0.1015625,1,0,0,1.6057,text_option_1,,0,34,34,33,1
615362845380d544dd5466b5,63f3cfca20052e4ae7554ebf,6453cb496285732841f0b066,2023-05-04_17h12.32.073,ga_syllabified_check,2022.2.5,Win32,60.27000964,,,,,,,,,,,,,,./stim/p04_syllable_1_rausto_hit.wav,p04,rausto,hit,raus-to,raus-to,ra-us-to, ,-0.399739583,-0.108072917,1,0,0,0.9523,text_option_1,,0,35,35,65,1
615362845380d544dd5466b5,63f3cfca20052e4ae7554ebf,6453cb496285732841f0b066,2023-05-04_17h12.32.073,ga_syllabified_check,2022.2.5,Win32,60.27000964,,,,,,,,,,,,,,./stim/p03_syllable_1_faluduako_hit.wav,p03,faluduako,hit,fa-lu-dua-ko,fa-lu-dua-ko,fa-lu-du-a-ko, ,-0.41015625,-0.09765625,1,0,0,3.1111,text_option_1,,0,36,36,2,1
615362845380d544dd5466b5,63f3cfca20052e4ae7554ebf,6453cb496285732841f0b066,2023-05-04_17h12.32.073,ga_syllabified_check,2022.2.5,Win32,60.27000964,,,,,,,,,,,,,,./stim/p04_syllable_1_paluguato_hit.wav,p04,paluguato,hit,pa-lu-gua,pa-lu-gua-to,pa-lu-gu-a-to, ,0.057291667,-0.3046875,1,0,0,4.7998,text_option_other,pa-lu-gua,0,37,37,61,1
615362845380d544dd5466b5,63f3cfca20052e4ae7554ebf,6453cb496285732841f0b066,2023-05-04_17h12.32.073,ga_syllabified_check,2022.2.5,Win32,60.27000964,,,,,,,,,,,,,,./stim/p04_syllable_1_palumaisto_hit.wav,p04,palumaisto,hit,pa-lu-mais-to,pa-lu-mais-to,pa-lu-ma-is-to, ,-0.416666667,-0.104166667,1,0,0,1.8228,text_option_1,,0,38,38,62,1
615362845380d544dd5466b5,63f3cfca20052e4ae7554ebf,6453cb496285732841f0b066,2023-05-04_17h12.32.073,ga_syllabified_check,2022.2.5,Win32,60.27000964,,,,,,,,,,,,,,./stim/p07_syllable_1_palumaisto_hit.wav,p07,palumaisto,hit,pa-lu-mais-to,pa-lu-mais-to,pa-lu-ma-is-to, ,-0.338541667,-0.106770833,1,0,0,3.2786,text_option_1,,0,39,39,164,1
615362845380d544dd5466b5,63f3cfca20052e4ae7554ebf,6453cb496285732841f0b066,2023-05-04_17h12.32.073,ga_syllabified_check,2022.2.5,Win32,60.27000964,,,,,,,,,,,,,,./stim/p04_syllable_1_lakabiaisto_hit.wav,p04,lakabiaisto,hit,la-ka-biais-to,la-ka-biais-to,la-ka-bi-ais-to,la-ka-bia-is-to,-0.354166667,-0.1171875,1,0,0,3.6791,text_option_1,,0,40,40,40,1
615362845380d544dd5466b5,63f3cfca20052e4ae7554ebf,6453cb496285732841f0b066,2023-05-04_17h12.32.073,ga_syllabified_check,2022.2.5,Win32,60.27000964,,,,,,,,,,,,,,./stim/p04_syllable_1_lakagiaisto_hit.wav,p04,lakagiaisto,hit,la-ka-giais-to,la-ka-giais-to,la-ka-gi-ais-to,la-ka-gia-is-to,-0.369791667,-0.104166667,1,0,0,3.2109,text_option_1,,0,41,41,46,1
615362845380d544dd5466b5,63f3cfca20052e4ae7554ebf,6453cb496285732841f0b066,2023-05-04_17h12.32.073,ga_syllabified_check,2022.2.5,Win32,60.27000964,,,,,,,,,,,,,,./stim/p04_syllable_1_falufaisto_hit.wav,p04,falufaisto,hit,fa-lu-fais-to,fa-lu-fais-to,fa-lu-fa-is-to, ,-0.369791667,-0.109375,1,0,0,1.1368,text_option_1,,0,42,42,37,1
615362845380d544dd5466b5,63f3cfca20052e4ae7554ebf,6453cb496285732841f0b066,2023-05-04_17h12.32.073,ga_syllabified_check,2022.2.5,Win32,60.27000964,,,,,,,,,,,,,,./stim/p03_syllable_1_palutrauco_hit.wav,p03,palutrauco,hit,pa-lu-trau-co,pa-lu-trau-co,pa-lu-tra-u-co, ,-0.341145833,-0.09375,1,0,0,1.6557,text_option_1,,0,43,43,29,1
615362845380d544dd5466b5,63f3cfca20052e4ae7554ebf,6453cb496285732841f0b066,2023-05-04_17h12.32.073,ga_syllabified_check,2022.2.5,Win32,60.27000964,,,,,,,,,,,,,,./stim/p08_syllable_1_falutraigo_hit.wav,p08,falutraigo,hit,fa-lu-trai-go,fa-lu-trai-go,fa-lu-tra-i-go, ,-0.3515625,-0.114583333,1,0,0,2.977,text_option_1,,0,44,44,174,1
615362845380d544dd5466b5,63f3cfca20052e4ae7554ebf,6453cb496285732841f0b066,2023-05-04_17h12.32.073,ga_syllabified_check,2022.2.5,Win32,60.27000964,,,,,,,,,,,,,,./stim/p06_syllable_1_lakapuaisto_hit.wav,p06,lakapuaisto,hit,la-ka-pu-a-is,la-ka-puais-to,la-ka-pu-ais-to,la-ka-pua-is-to,0.41015625,-0.1015625,1,0,0,5.0513,text_option_2,,0,45,45,119,1
615362845380d544dd5466b5,63f3cfca20052e4ae7554ebf,6453cb496285732841f0b066,2023-05-04_17h12.32.073,ga_syllabified_check,2022.2.5,Win32,60.27000964,,,,,,,,,,,,,,./stim/p03_syllable_1_lakafuaisto_hit.wav,p03,lakafuaisto,hit,la-ka-fuais-to,la-ka-fuais-to,la-ka-fu-ais-to,la-ka-fua-is-to,-0.4921875,-0.104166667,1,0,0,1.7731,text_option_1,,0,46,46,11,1
615362845380d544dd5466b5,63f3cfca20052e4ae7554ebf,6453cb496285732841f0b066,2023-05-04_17h12.32.073,ga_syllabified_check,2022.2.5,Win32,60.27000964,,,,,,,,,,,,,,./stim/p05_syllable_1_palumaisto_hit.wav,p05,palumaisto,hit,pa-lu-mais-to,pa-lu-mais-to,pa-lu-ma-is-to, ,-0.328125,-0.098958333,1,0,0,2.0406,text_option_1,,0,47,47,96,1
615362845380d544dd5466b5,63f3cfca20052e4ae7554ebf,6453cb496285732841f0b066,2023-05-04_17h12.32.073,ga_syllabified_check,2022.2.5,Win32,60.27000964,,,,,,,,,,,,,,./stim/p06_syllable_1_nhiape_hit.wav,p06,ñiape,hit,nhi-a-pe,ñia-pe,ñi-a-pe, ,0.40234375,-0.111979167,1,0,0,2.2582,text_option_2,,0,48,48,125,1
615362845380d544dd5466b5,63f3cfca20052e4ae7554ebf,6453cb496285732841f0b066,2023-05-04_17h12.32.073,ga_syllabified_check,2022.2.5,Win32,60.27000964,,,,,,,,,,,,,,./stim/p06_syllable_1_lakabuaisto_hit.wav,p06,lakabuaisto,hit,la-ka-bu-a-is,la-ka-buais-to,la-ka-bu-ais-to,la-ka-bua-is-to,0.380208333,-0.111979167,1,0,0,5.2351,text_option_2,,0,49,49,109,1
615362845380d544dd5466b5,63f3cfca20052e4ae7554ebf,6453cb496285732841f0b066,2023-05-04_17h12.32.073,ga_syllabified_check,2022.2.5,Win32,60.27000964,,,,,,,,,,,,,,./stim/p04_syllable_1_faluduako_hit.wav,p04,faluduako,hit,fa-lu-dua-ko,fa-lu-dua-ko,fa-lu-du-a-ko, ,-0.420572917,-0.110677083,1,0,0,2.2917,text_option_1,,0,50,50,36,1
615362845380d544dd5466b5,63f3cfca20052e4ae7554ebf,6453cb496285732841f0b066,2023-05-04_17h12.32.073,ga_syllabified_check,2022.2.5,Win32,60.27000964,,,,,,,,,,,,,,./stim/p04_syllable_1_ruyiola_hit.wav,p04,ruyiola,hit,ru-yio-la,ru-yio-la,ru-yi-o-la, ,-0.359375,-0.109375,1,0,0,1.9674,text_option_1,,0,51,51,66,1
615362845380d544dd5466b5,63f3cfca20052e4ae7554ebf,6453cb496285732841f0b066,2023-05-04_17h12.32.073,ga_syllabified_check,2022.2.5,Win32,60.27000964,,,,,,,,,,,,,,./stim/p05_syllable_1_pachialo_hit.wav,p05,pachialo,hit,pan-chia-lo,pa-chia-lo,pa-chi-a-lo, ,0.372395833,-0.1171875,1,0,0,4.3375,text_option_2,,0,52,52,92,1
615362845380d544dd5466b5,63f3cfca20052e4ae7554ebf,6453cb496285732841f0b066,2023-05-04_17h12.32.073,ga_syllabified_check,2022.2.5,Win32,60.27000964,,,,,,,,,,,,,,./stim/p07_syllable_1_lakafuaisto_hit.wav,p07,lakafuaisto,hit,la-ka-fuais-to,la-ka-fuais-to,la-ka-fu-ais-to,la-ka-fua-is-to,-0.37109375,-0.109375,1,0,0,2.8935,text_option_1,,0,53,53,147,1
615362845380d544dd5466b5,63f3cfca20052e4ae7554ebf,6453cb496285732841f0b066,2023-05-04_17h12.32.073,ga_syllabified_check,2022.2.5,Win32,60.27000964,,,,,,,,,,,,,,./stim/p08_syllable_1_ruyiola_hit.wav,p08,ruyiola,hit,ru-yio-la,ru-yio-la,ru-yi-o-la, ,-0.415364583,-0.102864583,1,0,0,2.0915,text_option_1,,0,54,54,202,1
615362845380d544dd5466b5,63f3cfca20052e4ae7554ebf,6453cb496285732841f0b066,2023-05-04_17h12.32.073,ga_syllabified_check,2022.2.5,Win32,60.27000964,,,,,,,,,,,,,,./stim/p06_syllable_1_palutrauco_hit.wav,p06,palutrauco,hit,pa-lu-tra-u-co,pa-lu-trau-co,pa-lu-tra-u-co, ,0.388020833,-0.108072917,1,0,0,3.8798,text_option_2,,0,55,55,131,1
615362845380d544dd5466b5,63f3cfca20052e4ae7554ebf,6453cb496285732841f0b066,2023-05-04_17h12.32.073,ga_syllabified_check,2022.2.5,Win32,60.27000964,,,,,,,,,,,,,,./stim/p06_syllable_1_palufauto_hit.wav,p06,palufauto,hit,pa-lu-fau-to,pa-lu-fau-to,pa-lu-fa-u-to, ,-0.34375,-0.108072917,1,0,0,3.0605,text_option_1,,0,56,56,128,1
615362845380d544dd5466b5,63f3cfca20052e4ae7554ebf,6453cb496285732841f0b066,2023-05-04_17h12.32.073,ga_syllabified_check,2022.2.5,Win32,60.27000964,,,,,,,,,,,,,,./stim/p03_syllable_1_payielo_hit.wav,p03,payielo,hit,pa-yie-lo,pa-yie-lo,pa-yi-e-lo, ,-0.36328125,-0.109375,1,0,0,2.2746,text_option_1,,0,57,57,30,1
615362845380d544dd5466b5,63f3cfca20052e4ae7554ebf,6453cb496285732841f0b066,2023-05-04_17h12.32.073,ga_syllabified_check,2022.2.5,Win32,60.27000964,,,,,,,,,,,,,,./stim/p05_syllable_1_falufaisto_hit.wav,p05,falufaisto,hit,fa-lu-fais-to,fa-lu-fais-to,fa-lu-fa-is-to, ,-0.377604167,-0.083333333,1,0,0,2.38,text_option_1,,0,58,58,71,1
615362845380d544dd5466b5,63f3cfca20052e4ae7554ebf,6453cb496285732841f0b066,2023-05-04_17h12.32.073,ga_syllabified_check,2022.2.5,Win32,60.27000964,,,,,,,,,,,,,,./stim/p07_syllable_1_mebochiana_hit.wav,p07,mebochiana,hit,me-bo-chia-na,me-bo-chia-na,me-bo-chi-a-na, ,-0.3359375,-0.110677083,1,0,0,4.3814,text_option_1,,0,59,59,158,1
615362845380d544dd5466b5,63f3cfca20052e4ae7554ebf,6453cb496285732841f0b066,2023-05-04_17h12.32.073,ga_syllabified_check,2022.2.5,Win32,60.27000964,,,,,,,,,,,,,,./stim/p05_syllable_1_lakafuaisto_hit.wav,p05,lakafuaisto,hit,la-ka-fais-to,la-ka-fuais-to,la-ka-fu-ais-to,la-ka-fua-is-to,0.01171875,-0.317708333,1,0,0,2.9604,text_option_other,la-ka-fais-to,0,60,60,79,1
615362845380d544dd5466b5,63f3cfca20052e4ae7554ebf,6453cb496285732841f0b066,2023-05-04_17h12.32.073,ga_syllabified_check,2022.2.5,Win32,60.27000964,,,,,,,,,,,,,,./stim/p08_syllable_1_lakaduaisto_hit.wav,p08,lakaduaisto,hit,la-ka-du-ais-to,la-ka-duais-to,la-ka-du-ais-to,la-ka-dua-is-to,-0.380208333,-0.09375,1,0,0,3.6963,text_option_1,,0,61,61,179,1
615362845380d544dd5466b5,63f3cfca20052e4ae7554ebf,6453cb496285732841f0b066,2023-05-04_17h12.32.073,ga_syllabified_check,2022.2.5,Win32,60.27000964,,,,,,,,,,,,,,./stim/p08_syllable_1_lakapuaisto_hit.wav,p08,lakapuaisto,hit,la-ka-pu-as-to,la-ka-puais-to,la-ka-pu-ais-to,la-ka-pua-is-to,-0.040364583,-0.298177083,1,0,0,3.9643,text_option_other,la-ka-puas-to,0,62,62,187,1
615362845380d544dd5466b5,63f3cfca20052e4ae7554ebf,6453cb496285732841f0b066,2023-05-04_17h12.32.073,ga_syllabified_check,2022.2.5,Win32,60.27000964,,,,,,,,,,,,,,./stim/p05_syllable_1_flauro_hit.wav,p05,flauro,hit,fa-lu-ro,flau-ro,fla-u-ro, ,-0.01953125,-0.2890625,1,0,0,1.2881,text_option_other,fa-lu-ro,0,63,63,73,1
615362845380d544dd5466b5,63f3cfca20052e4ae7554ebf,6453cb496285732841f0b066,2023-05-04_17h12.32.073,ga_syllabified_check,2022.2.5,Win32,60.27000964,,,,,,,,,,,,,,./stim/p08_syllable_1_flauro_hit.wav,p08,flauro,hit,flau-ro,flau-ro,fla-u-ro, ,-0.391927083,-0.104166667,1,0,0,2.1575,text_option_1,,0,64,64,175,1
615362845380d544dd5466b5,63f3cfca20052e4ae7554ebf,6453cb496285732841f0b066,2023-05-04_17h12.32.073,ga_syllabified_check,2022.2.5,Win32,60.27000964,,,,,,,,,,,,,,./stim/p07_syllable_1_lakafiaisto_hit.wav,p07,lakafiaisto,hit,la-ka-fiais-to,la-ka-fiais-to,la-ka-fi-ais-to,la-ka-fia-is-to,-0.389322917,-0.109375,1,0,0,2.0907,text_option_1,,0,65,65,146,1
615362845380d544dd5466b5,63f3cfca20052e4ae7554ebf,6453cb496285732841f0b066,2023-05-04_17h12.32.073,ga_syllabified_check,2022.2.5,Win32,60.27000964,,,,,,,,,,,,,,./stim/p07_syllable_1_falufaisto_hit.wav,p07,falufaisto,hit,fa-lu-fais-to,fa-lu-fais-to,fa-lu-fa-is-to, ,-0.358072917,-0.106770833,1,0,0,2.4076,text_option_1,,0,66,66,139,1
615362845380d544dd5466b5,63f3cfca20052e4ae7554ebf,6453cb496285732841f0b066,2023-05-04_17h12.32.073,ga_syllabified_check,2022.2.5,Win32,60.27000964,,,,,,,,,,,,,,./stim/p03_syllable_1_lakapuaisto_hit.wav,p03,lakapuaisto,hit,la-ka-puais-to,la-ka-puais-to,la-ka-pu-ais-to,la-ka-pua-is-to,-0.354166667,-0.10546875,1,0,0,2.1246,text_option_1,,0,67,67,17,1
615362845380d544dd5466b5,63f3cfca20052e4ae7554ebf,6453cb496285732841f0b066,2023-05-04_17h12.32.073,ga_syllabified_check,2022.2.5,Win32,60.27000964,,,,,,,,,,,,,,./stim/p03_syllable_1_nhiape_hit.wav,p03,ñiape,hit,nhia-pe,ñia-pe,ñi-a-pe, ,-0.41796875,-0.11328125,1,0,0,0.9867,text_option_1,,0,68,68,23,1
615362845380d544dd5466b5,63f3cfca20052e4ae7554ebf,6453cb496285732841f0b066,2023-05-04_17h12.32.073,ga_syllabified_check,2022.2.5,Win32,60.27000964,,,,,,,,,,,,,,./stim/p03_syllable_1_ruyiola_hit.wav,p03,ruyiola,hit,ru-yio-la,ru-yio-la,ru-yi-o-la, ,-0.37890625,-0.106770833,1,0,0,0.8363,text_option_1,,0,69,69,32,1
615362845380d544dd5466b5,63f3cfca20052e4ae7554ebf,6453cb496285732841f0b066,2023-05-04_17h12.32.073,ga_syllabified_check,2022.2.5,Win32,60.27000964,,,,,,,,,,,,,,./stim/p04_syllable_1_palufauto_hit.wav,p04,palufauto,hit,pa-lu-fau-to,pa-lu-fau-to,pa-lu-fa-u-to, ,-0.361979167,-0.109375,1,0,0,1.7732,text_option_1,,0,70,70,60,1
615362845380d544dd5466b5,63f3cfca20052e4ae7554ebf,6453cb496285732841f0b066,2023-05-04_17h12.32.073,ga_syllabified_check,2022.2.5,Win32,60.27000964,,,,,,,,,,,,,,./stim/p04_syllable_1_payielo_hit.wav,p04,payielo,hit,pa-yie-lo,pa-yie-lo,pa-yi-e-lo, ,-0.397135417,-0.083333333,1,0,0,0.9201,text_option_1,,0,71,71,64,1
615362845380d544dd5466b5,63f3cfca20052e4ae7554ebf,6453cb496285732841f0b066,2023-05-04_17h12.32.073,ga_syllabified_check,2022.2.5,Win32,60.27000964,,,,,,,,,,,,,,./stim/p05_syllable_1_payielo_hit.wav,p05,payielo,hit,pai-yu-we-lo,pa-yie-lo,pa-yi-e-lo, ,-0.022135417,-0.290364583,1,0,0,1.8235,text_option_other,pa-yue-lo,0,72,72,98,1
615362845380d544dd5466b5,63f3cfca20052e4ae7554ebf,6453cb496285732841f0b066,2023-05-04_17h12.32.073,ga_syllabified_check,2022.2.5,Win32,60.27000964,,,,,,,,,,,,,,./stim/p07_syllable_1_palufauro_hit.wav,p07,palufauro,hit,pa-lu-fau-ro,pa-lu-fau-ro,pa-lu-fa-u-ro, ,-0.368489583,-0.1015625,1,0,0,1.6744,text_option_1,,0,73,73,161,1
615362845380d544dd5466b5,63f3cfca20052e4ae7554ebf,6453cb496285732841f0b066,2023-05-04_17h12.32.073,ga_syllabified_check,2022.2.5,Win32,60.27000964,,,,,,,,,,,,,,./stim/p08_syllable_1_palufauto_hit.wav,p08,palufauto,hit,pa-lu-fau-to,pa-lu-fau-to,pa-lu-fa-u-to, ,-0.346354167,-0.102864583,1,0,0,3.9138,text_option_1,,0,74,74,196,1
615362845380d544dd5466b5,63f3cfca20052e4ae7554ebf,6453cb496285732841f0b066,2023-05-04_17h12.32.073,ga_syllabified_check,2022.2.5,Win32,60.27000964,,,,,,,,,,,,,,./stim/p04_syllable_1_mebochiana_hit.wav,p04,mebochiana,hit,me-bo-chia-na,me-bo-chia-na,me-bo-chi-a-na, ,-0.330729167,-0.10546875,1,0,0,2.1243,text_option_1,,0,75,75,56,1
615362845380d544dd5466b5,63f3cfca20052e4ae7554ebf,6453cb496285732841f0b066,2023-05-04_17h12.32.073,ga_syllabified_check,2022.2.5,Win32,60.27000964,,,,,,,,,,,,,,./stim/p05_syllable_1_palutrauco_hit.wav,p05,palutrauco,hit,pa-lu-trai-co,pa-lu-trau-co,pa-lu-tra-u-co, ,0.033854167,-0.2890625,1,0,0,2.3576,text_option_other,pa-lo-trai-co,0,76,76,97,1
615362845380d544dd5466b5,63f3cfca20052e4ae7554ebf,6453cb496285732841f0b066,2023-05-04_17h12.32.073,ga_syllabified_check,2022.2.5,Win32,60.27000964,,,,,,,,,,,,,,./stim/p04_syllable_1_flauro_hit.wav,p04,flauro,hit,flau-ro,flau-ro,fla-u-ro, ,-0.423177083,-0.09375,1,0,0,1.2709,text_option_1,,0,77,77,39,1
615362845380d544dd5466b5,63f3cfca20052e4ae7554ebf,6453cb496285732841f0b066,2023-05-04_17h12.32.073,ga_syllabified_check,2022.2.5,Win32,60.27000964,,,,,,,,,,,,,,./stim/p07_syllable_1_manhiala_hit.wav,p07,mañiala,hit,ma-nhia-la,ma-ñia-la,ma-ñi-a-la, ,-0.388020833,-0.104166667,1,0,0,2.8101,text_option_1,,0,78,78,157,1
615362845380d544dd5466b5,63f3cfca20052e4ae7554ebf,6453cb496285732841f0b066,2023-05-04_17h12.32.073,ga_syllabified_check,2022.2.5,Win32,60.27000964,,,,,,,,,,,,,,./stim/p05_syllable_1_mebochiana_hit.wav,p05,mebochiana,hit,me-cho-chai-na,me-bo-chia-na,me-bo-chi-a-na, ,-0.013020833,-0.28125,1,0,0,1.9974,text_option_other,me-cho-chia-na,0,79,79,90,1
615362845380d544dd5466b5,63f3cfca20052e4ae7554ebf,6453cb496285732841f0b066,2023-05-04_17h12.32.073,ga_syllabified_check,2022.2.5,Win32,60.27000964,,,,,,,,,,,,,,./stim/p03_syllable_1_lakafiaisto_hit.wav,p03,lakafiaisto,hit,la-ka-fiais-to,la-ka-fiais-to,la-ka-fi-ais-to,la-ka-fia-is-to,-0.356770833,-0.1015625,1,0,0,2.2583,text_option_1,,0,80,80,10,1
615362845380d544dd5466b5,63f3cfca20052e4ae7554ebf,6453cb496285732841f0b066,2023-05-04_17h12.32.073,ga_syllabified_check,2022.2.5,Win32,60.27000964,,,,,,,,,,,,,,./stim/p05_syllable_1_lakadiaisto_hit.wav,p05,lakadiaisto,hit,la-ka-di-ais-to,la-ka-diais-to,la-ka-di-ais-to,la-ka-dia-is-to,-0.3671875,-0.08984375,1,0,0,1.9119,text_option_1,,0,81,81,76,1
615362845380d544dd5466b5,63f3cfca20052e4ae7554ebf,6453cb496285732841f0b066,2023-05-04_17h12.32.073,ga_syllabified_check,2022.2.5,Win32,60.27000964,,,,,,,,,,,,,,./stim/p06_syllable_1_paluguato_hit.wav,p06,paluguato,hit,pa-lu-gua-to,pa-lu-gua-to,pa-lu-gu-a-to, ,-0.3515625,-0.1015625,1,0,0,2.358,text_option_1,,0,82,82,129,1
615362845380d544dd5466b5,63f3cfca20052e4ae7554ebf,6453cb496285732841f0b066,2023-05-04_17h12.32.073,ga_syllabified_check,2022.2.5,Win32,60.27000964,,,,,,,,,,,,,,./stim/p08_syllable_1_palutrauco_hit.wav,p08,palutrauco,hit,pa-lu-trau-ko,pa-lu-trau-co,pa-lu-tra-u-co, ,-0.346354167,-0.109375,1,0,0,3.629,text_option_1,,0,83,83,199,1
615362845380d544dd5466b5,63f3cfca20052e4ae7554ebf,6453cb496285732841f0b066,2023-05-04_17h12.32.073,ga_syllabified_check,2022.2.5,Win32,60.27000964,,,,,,,,,,,,,,./stim/p05_syllable_1_lakabuaisto_hit.wav,p05,lakabuaisto,hit,la-ka-buais-to,la-ka-buais-to,la-ka-bu-ais-to,la-ka-bua-is-to,-0.325520833,-0.096354167,1,0,0,3.279,text_option_1,,0,84,84,75,1
615362845380d544dd5466b5,63f3cfca20052e4ae7554ebf,6453cb496285732841f0b066,2023-05-04_17h12.32.073,ga_syllabified_check,2022.2.5,Win32,60.27000964,,,,,,,,,,,,,,./stim/p03_syllable_1_falutraigo_hit.wav,p03,falutraigo,hit,fa-lu-trai-go,fa-lu-trai-go,fa-lu-tra-i-go, ,-0.34765625,-0.111979167,1,0,0,2.475,text_option_1,,0,85,85,4,1
615362845380d544dd5466b5,63f3cfca20052e4ae7554ebf,6453cb496285732841f0b066,2023-05-04_17h12.32.073,ga_syllabified_check,2022.2.5,Win32,60.27000964,,,,,,,,,,,,,,./stim/p03_syllable_1_lakatiaisto_hit.wav,p03,lakatiaisto,hit,la-ka-tiais-to,la-ka-tiais-to,la-ka-ti-ais-to,la-ka-tia-is-to,-0.307291667,-0.102864583,1,0,0,2.3418,text_option_1,,0,86,86,18,1
615362845380d544dd5466b5,63f3cfca20052e4ae7554ebf,6453cb496285732841f0b066,2023-05-04_17h12.32.073,ga_syllabified_check,2022.2.5,Win32,60.27000964,,,,,,,,,,,,,,./stim/p08_syllable_1_falufaisto_hit.wav,p08,falufaisto,hit,fa-lu-fais-to,fa-lu-fais-to,fa-lu-fa-is-to, ,0.40625,-0.091145833,1,0,0,3.9468,text_option_2,,0,87,87,173,1
615362845380d544dd5466b5,63f3cfca20052e4ae7554ebf,6453cb496285732841f0b066,2023-05-04_17h12.32.073,ga_syllabified_check,2022.2.5,Win32,60.27000964,,,,,,,,,,,,,,./stim/p08_syllable_1_lakaguaisto_hit.wav,p08,lakaguaisto,hit,la-ka-gu-ais-to,la-ka-guais-to,la-ka-gu-ais-to,la-ka-gua-is-to,0.3984375,-0.100260417,1,0,0,3.2448,text_option_2,,0,88,88,183,1
615362845380d544dd5466b5,63f3cfca20052e4ae7554ebf,6453cb496285732841f0b066,2023-05-04_17h12.32.073,ga_syllabified_check,2022.2.5,Win32,60.27000964,,,,,,,,,,,,,,./stim/p03_syllable_1_palufauto_hit.wav,p03,palufauto,hit,pa-lu-fau,pa-lu-fau-to,pa-lu-fa-u-to, ,-0.397135417,-0.114583333,1,0,0,2.1739,text_option_1,,0,89,89,26,1
615362845380d544dd5466b5,63f3cfca20052e4ae7554ebf,6453cb496285732841f0b066,2023-05-04_17h12.32.073,ga_syllabified_check,2022.2.5,Win32,60.27000964,,,,,,,,,,,,,,./stim/p06_syllable_1_tuliafo_hit.wav,p06,tuliafo,hit,tu-li-a-fo,tu-lia-fo,tu-li-a-fo, ,0.401041667,-0.109375,1,0,0,2.5245,text_option_2,,0,90,90,135,1
615362845380d544dd5466b5,63f3cfca20052e4ae7554ebf,6453cb496285732841f0b066,2023-05-04_17h12.32.073,ga_syllabified_check,2022.2.5,Win32,60.27000964,,,,,,,,,,,,,,./stim/p05_syllable_1_faluduako_hit.wav,p05,faluduako,hit,fa-lu-ba-ko,fa-lu-dua-ko,fa-lu-du-a-ko, ,-0.321614583,-0.114583333,1,0,0,2.408,text_option_1,,0,91,91,70,1
615362845380d544dd5466b5,63f3cfca20052e4ae7554ebf,6453cb496285732841f0b066,2023-05-04_17h12.32.073,ga_syllabified_check,2022.2.5,Win32,60.27000964,,,,,,,,,,,,,,./stim/p05_syllable_1_lakapuaisto_hit.wav,p05,lakapuaisto,hit,la-ka-pais-to,la-ka-puais-to,la-ka-pu-ais-to,la-ka-pua-is-to,-0.401041667,-0.087239583,1,0,0,3.9968,text_option_1,,0,92,92,85,1
615362845380d544dd5466b5,63f3cfca20052e4ae7554ebf,6453cb496285732841f0b066,2023-05-04_17h12.32.073,ga_syllabified_check,2022.2.5,Win32,60.27000964,,,,,,,,,,,,,,./stim/p04_syllable_1_chiaba_hit.wav,p04,chiaba,hit,chia-ba,chia-ba,chi-a-ba, ,-0.404947917,-0.10546875,1,0,0,1.0367,text_option_1,,0,93,93,34,1
615362845380d544dd5466b5,63f3cfca20052e4ae7554ebf,6453cb496285732841f0b066,2023-05-04_17h12.32.073,ga_syllabified_check,2022.2.5,Win32,60.27000964,,,,,,,,,,,,,,./stim/p04_syllable_1_lakaduaisto_hit.wav,p04,lakaduaisto,hit,la-ka-duais-to,la-ka-duais-to,la-ka-du-ais-to,la-ka-dua-is-to,-0.3671875,-0.108072917,1,0,0,1.8561,text_option_1,,0,94,94,43,1
615362845380d544dd5466b5,63f3cfca20052e4ae7554ebf,6453cb496285732841f0b066,2023-05-04_17h12.32.073,ga_syllabified_check,2022.2.5,Win32,60.27000964,,,,,,,,,,,,,,./stim/p04_syllable_1_palutrauco_hit.wav,p04,palutrauco,hit,pa-lu-trau-co,pa-lu-trau-co,pa-lu-tra-u-co, ,-0.3359375,-0.098958333,1,0,0,1.3711,text_option_1,,0,95,95,63,1
615362845380d544dd5466b5,63f3cfca20052e4ae7554ebf,6453cb496285732841f0b066,2023-05-04_17h12.32.073,ga_syllabified_check,2022.2.5,Win32,60.27000964,,,,,,,,,,,,,,./stim/p06_syllable_1_lakabiaisto_hit.wav,p06,lakabiaisto,hit,la-ka-bia-is-to,la-ka-biais-to,la-ka-bi-ais-to,la-ka-bia-is-to,0.05078125,-0.115885417,1,0,0,6.6776,text_option_3,,0,96,96,108,1
615362845380d544dd5466b5,63f3cfca20052e4ae7554ebf,6453cb496285732841f0b066,2023-05-04_17h12.32.073,ga_syllabified_check,2022.2.5,Win32,60.27000964,,,,,,,,,,,,,,./stim/p08_syllable_1_lakafuaisto_hit.wav,p08,lakafuaisto,hit,la-ka-fju-ais-to,la-ka-fuais-to,la-ka-fu-ais-to,la-ka-fua-is-to,-0.338541667,-0.104166667,1,0,0,3.6474,text_option_1,,0,97,97,181,1
615362845380d544dd5466b5,63f3cfca20052e4ae7554ebf,6453cb496285732841f0b066,2023-05-04_17h12.32.073,ga_syllabified_check,2022.2.5,Win32,60.27000964,,,,,,,,,,,,,,./stim/p05_syllable_1_rausto_hit.wav,p05,rausto,hit,raus-to,raus-to,ra-us-to, ,-0.391927083,-0.109375,1,0,0,1.0367,text_option_1,,0,98,98,99,1
615362845380d544dd5466b5,63f3cfca20052e4ae7554ebf,6453cb496285732841f0b066,2023-05-04_17h12.32.073,ga_syllabified_check,2022.2.5,Win32,60.27000964,,,,,,,,,,,,,,./stim/p04_syllable_1_pachialo_hit.wav,p04,pachialo,hit,pa-chia-lo,pa-chia-lo,pa-chi-a-lo, ,-0.356770833,-0.102864583,1,0,0,2.1571,text_option_1,,0,99,99,58,1
615362845380d544dd5466b5,63f3cfca20052e4ae7554ebf,6453cb496285732841f0b066,2023-05-04_17h12.32.073,ga_syllabified_check,2022.2.5,Win32,60.27000964,,,,,,,,,,,,,,./stim/p06_syllable_1_lliape_hit.wav,p06,lliape,hit,lli-lla-pe,llia-pe,lli-a-pe, ,0.375,-0.10546875,1,0,0,1.7052,text_option_2,,0,100,100,122,1
615362845380d544dd5466b5,63f3cfca20052e4ae7554ebf,6453cb496285732841f0b066,2023-05-04_17h12.32.073,ga_syllabified_check,2022.2.5,Win32,60.27000964,,,,,,,,,,,,,,./stim/p04_syllable_1_manhiala_hit.wav,p04,mañiala,hit,ma-nhia-la,ma-ñia-la,ma-ñi-a-la, ,-0.354166667,-0.110677083,1,0,0,1.5556,text_option_1,,0,101,101,55,1
615362845380d544dd5466b5,63f3cfca20052e4ae7554ebf,6453cb496285732841f0b066,2023-05-04_17h12.32.073,ga_syllabified_check,2022.2.5,Win32,60.27000964,,,,,,,,,,,,,,./stim/p05_syllable_1_palufauto_hit.wav,p05,palufauto,hit,pa-lu-fau-to,pa-lu-fau-to,pa-lu-fa-u-to, ,0.466145833,-0.0859375,1,0,0,2.2743,text_option_2,,0,102,102,94,1
615362845380d544dd5466b5,63f3cfca20052e4ae7554ebf,6453cb496285732841f0b066,2023-05-04_17h12.32.073,ga_syllabified_check,2022.2.5,Win32,60.27000964,,,,,,,,,,,,,,./stim/p03_syllable_1_mebochiana_hit.wav,p03,mebochiana,hit,me-bo-chia-na,me-bo-chia-na,me-bo-chi-a-na, ,-0.352864583,-0.108072917,1,0,0,2.1413,text_option_1,,0,103,103,22,1
615362845380d544dd5466b5,63f3cfca20052e4ae7554ebf,6453cb496285732841f0b066,2023-05-04_17h12.32.073,ga_syllabified_check,2022.2.5,Win32,60.27000964,,,,,,,,,,,,,,./stim/p07_syllable_1_payielo_hit.wav,p07,payielo,hit,pa-yie-lo,pa-yie-lo,pa-yi-e-lo, ,-0.3671875,-0.106770833,1,0,0,3.4121,text_option_1,,0,104,104,166,1
615362845380d544dd5466b5,63f3cfca20052e4ae7554ebf,6453cb496285732841f0b066,2023-05-04_17h12.32.073,ga_syllabified_check,2022.2.5,Win32,60.27000964,,,,,,,,,,,,,,./stim/p03_syllable_1_lakagiaisto_hit.wav,p03,lakagiaisto,hit,la-ka-giais-to,la-ka-giais-to,la-ka-gi-ais-to,la-ka-gia-is-to,-0.3671875,-0.110677083,1,0,0,4.7499,text_option_1,,0,105,105,12,1
615362845380d544dd5466b5,63f3cfca20052e4ae7554ebf,6453cb496285732841f0b066,2023-05-04_17h12.32.073,ga_syllabified_check,2022.2.5,Win32,60.27000964,,,,,,,,,,,,,,./stim/p03_syllable_1_palumaisto_hit.wav,p03,palumaisto,hit,pa-lu-mais-to,pa-lu-mais-to,pa-lu-ma-is-to, ,-0.325520833,-0.111979167,1,0,0,4.5993,text_option_1,,0,106,106,28,1
615362845380d544dd5466b5,63f3cfca20052e4ae7554ebf,6453cb496285732841f0b066,2023-05-04_17h12.32.073,ga_syllabified_check,2022.2.5,Win32,60.27000964,,,,,,,,,,,,,,./stim/p06_syllable_1_lakakiaisto_hit.wav,p06,lakakiaisto,hit,la-ka-kia-is-to,la-ka-kiais-to,la-ka-ki-ais-to,la-ka-kia-is-to,0.016927083,-0.106770833,1,0,0,5.5708,text_option_3,,0,107,107,116,1
615362845380d544dd5466b5,63f3cfca20052e4ae7554ebf,6453cb496285732841f0b066,2023-05-04_17h12.32.073,ga_syllabified_check,2022.2.5,Win32,60.27000964,,,,,,,,,,,,,,./stim/p06_syllable_1_costonhialo_hit.wav,p06,costoñialo,hit,cos-to-nhia-lo,cos-to-ñia-lo,cos-to-ñi-a-lo, ,-0.40234375,-0.106770833,1,0,0,5.9037,text_option_1,,0,108,108,103,1
615362845380d544dd5466b5,63f3cfca20052e4ae7554ebf,6453cb496285732841f0b066,2023-05-04_17h12.32.073,ga_syllabified_check,2022.2.5,Win32,60.27000964,,,,,,,,,,,,,,./stim/p07_syllable_1_paluguato_hit.wav,p07,paluguato,hit,pa-lu-gua-to,pa-lu-gua-to,pa-lu-gu-a-to, ,-0.373697917,-0.1015625,1,0,0,3.9466,text_option_1,,0,109,109,163,1
615362845380d544dd5466b5,63f3cfca20052e4ae7554ebf,6453cb496285732841f0b066,2023-05-04_17h12.32.073,ga_syllabified_check,2022.2.5,Win32,60.27000964,,,,,,,,,,,,,,./stim/p03_syllable_1_palufauro_hit.wav,p03,palufauro,hit,pa-lu-fau-ro,pa-lu-fau-ro,pa-lu-fa-u-ro, ,-0.34375,-0.100260417,1,0,0,1.7388,text_option_1,,0,110,110,25,1
615362845380d544dd5466b5,63f3cfca20052e4ae7554ebf,6453cb496285732841f0b066,2023-05-04_17h12.32.073,ga_syllabified_check,2022.2.5,Win32,60.27000964,,,,,,,,,,,,,,./stim/p08_syllable_1_tuliafo_hit.wav,p08,tuliafo,hit,tu-li-a-fo,tu-lia-fo,tu-li-a-fo, ,0.36328125,-0.104166667,1,0,0,4.1372,text_option_2,,0,111,111,203,1
615362845380d544dd5466b5,63f3cfca20052e4ae7554ebf,6453cb496285732841f0b066,2023-05-04_17h12.32.073,ga_syllabified_check,2022.2.5,Win32,60.27000964,,,,,,,,,,,,,,./stim/p07_syllable_1_lakakuaisto_hit.wav,p07,lakakuaisto,hit,la-ka-kuais-to,la-ka-kuais-to,la-ka-ku-ais-to,la-ka-kua-is-to,-0.42578125,-0.10546875,1,0,0,3.5629,text_option_1,,0,112,112,151,1
615362845380d544dd5466b5,63f3cfca20052e4ae7554ebf,6453cb496285732841f0b066,2023-05-04_17h12.32.073,ga_syllabified_check,2022.2.5,Win32,60.27000964,,,,,,,,,,,,,,./stim/p06_syllable_1_lakakuaisto_hit.wav,p06,lakakuaisto,hit,la-ka-ku-a-is,la-ka-kuais-to,la-ka-ku-ais-to,la-ka-kua-is-to,0.434895833,-0.109375,1,0,0,2.9102,text_option_2,,0,113,113,117,1
615362845380d544dd5466b5,63f3cfca20052e4ae7554ebf,6453cb496285732841f0b066,2023-05-04_17h12.32.073,ga_syllabified_check,2022.2.5,Win32,60.27000964,,,,,,,,,,,,,,./stim/p05_syllable_1_lliape_hit.wav,p05,lliape,hit,liai-pe,llia-pe,lli-a-pe, ,-0.373697917,-0.102864583,1,0,0,2.655,text_option_1,,0,114,114,88,1
615362845380d544dd5466b5,63f3cfca20052e4ae7554ebf,6453cb496285732841f0b066,2023-05-04_17h12.32.073,ga_syllabified_check,2022.2.5,Win32,60.27000964,,,,,,,,,,,,,,./stim/p06_syllable_1_lakapiaisto_hit.wav,p06,lakapiaisto,hit,la-ka-pia-is-to,la-ka-piais-to,la-ka-pi-ais-to,la-ka-pia-is-to,0.041666667,-0.100260417,1,0,0,5.5651,text_option_3,,0,115,115,118,1
615362845380d544dd5466b5,63f3cfca20052e4ae7554ebf,6453cb496285732841f0b066,2023-05-04_17h12.32.073,ga_syllabified_check,2022.2.5,Win32,60.27000964,,,,,,,,,,,,,,./stim/p07_syllable_1_tuliafo_hit.wav,p07,tuliafo,hit,tu-lia-fo,tu-lia-fo,tu-li-a-fo, ,-0.391927083,-0.098958333,1,0,0,1.7551,text_option_1,,0,116,116,169,1
615362845380d544dd5466b5,63f3cfca20052e4ae7554ebf,6453cb496285732841f0b066,2023-05-04_17h12.32.073,ga_syllabified_check,2022.2.5,Win32,60.27000964,,,,,,,,,,,,,,./stim/p03_syllable_1_lakakiaisto_hit.wav,p03,lakakiaisto,hit,la-ka-kiais-to,la-ka-kiais-to,la-ka-ki-ais-to,la-ka-kia-is-to,-0.32421875,-0.109375,1,0,0,4.7999,text_option_1,,0,117,117,14,1
615362845380d544dd5466b5,63f3cfca20052e4ae7554ebf,6453cb496285732841f0b066,2023-05-04_17h12.32.073,ga_syllabified_check,2022.2.5,Win32,60.27000964,,,,,,,,,,,,,,./stim/p04_syllable_1_falutraigo_hit.wav,p04,falutraigo,hit,fa-lu-trai-go,fa-lu-trai-go,fa-lu-tra-i-go, ,-0.337239583,-0.095052083,1,0,0,4.1977,text_option_1,,0,118,118,38,1
615362845380d544dd5466b5,63f3cfca20052e4ae7554ebf,6453cb496285732841f0b066,2023-05-04_17h12.32.073,ga_syllabified_check,2022.2.5,Win32,60.27000964,,,,,,,,,,,,,,./stim/p08_syllable_1_lakakiaisto_hit.wav,p08,lakakiaisto,hit,la-ka-ki-jas-to,la-ka-kiais-to,la-ka-ki-ais-to,la-ka-kia-is-to,0.46875,-0.091145833,1,0,0,6.0703,text_option_2,,0,119,119,184,1
615362845380d544dd5466b5,63f3cfca20052e4ae7554ebf,6453cb496285732841f0b066,2023-05-04_17h12.32.073,ga_syllabified_check,2022.2.5,Win32,60.27000964,,,,,,,,,,,,,,./stim/p05_syllable_1_lakatiaisto_hit.wav,p05,lakatiaisto,hit,la-ka-ti-ais-to,la-ka-tiais-to,la-ka-ti-ais-to,la-ka-tia-is-to,-0.319010417,-0.111979167,1,0,0,6.6735,text_option_1,,0,120,120,86,1
615362845380d544dd5466b5,63f3cfca20052e4ae7554ebf,6453cb496285732841f0b066,2023-05-04_17h12.32.073,ga_syllabified_check,2022.2.5,Win32,60.27000964,,,,,,,,,,,,,,./stim/p03_syllable_1_lliape_hit.wav,p03,lliape,hit,llia,llia-pe,lli-a-pe, ,-0.421875,-0.098958333,1,0,0,2.0575,text_option_1,,0,121,121,20,1
615362845380d544dd5466b5,63f3cfca20052e4ae7554ebf,6453cb496285732841f0b066,2023-05-04_17h12.32.073,ga_syllabified_check,2022.2.5,Win32,60.27000964,,,,,,,,,,,,,,./stim/p08_syllable_1_lakafiaisto_hit.wav,p08,lakafiaisto,hit,la-ka-fi-as-to,la-ka-fiais-to,la-ka-fi-ais-to,la-ka-fia-is-to,0.373697917,-0.114583333,1,0,0,7.1754,text_option_2,,0,122,122,180,1
615362845380d544dd5466b5,63f3cfca20052e4ae7554ebf,6453cb496285732841f0b066,2023-05-04_17h12.32.073,ga_syllabified_check,2022.2.5,Win32,60.27000964,,,,,,,,,,,,,,./stim/p06_syllable_1_mebochiana_hit.wav,p06,mebochiana,hit,me-bo-shi-a-na,me-bo-chia-na,me-bo-chi-a-na, ,0.423177083,-0.095052083,1,0,0,3.5915,text_option_2,,0,123,123,124,1
615362845380d544dd5466b5,63f3cfca20052e4ae7554ebf,6453cb496285732841f0b066,2023-05-04_17h12.32.073,ga_syllabified_check,2022.2.5,Win32,60.27000964,,,,,,,,,,,,,,./stim/p06_syllable_1_lakatiaisto_hit.wav,p06,lakatiaisto,hit,la-ka-pia-is-to,la-ka-tiais-to,la-ka-ti-ais-to,la-ka-tia-is-to,0.055989583,-0.109375,1,0,0,4.8114,text_option_3,,0,124,124,120,1
615362845380d544dd5466b5,63f3cfca20052e4ae7554ebf,6453cb496285732841f0b066,2023-05-04_17h12.32.073,ga_syllabified_check,2022.2.5,Win32,60.27000964,,,,,,,,,,,,,,./stim/p04_syllable_1_lakafiaisto_hit.wav,p04,lakafiaisto,hit,la-ka-fiais-to,la-ka-fiais-to,la-ka-fi-ais-to,la-ka-fia-is-to,-0.365885417,-0.114583333,1,0,0,1.9964,text_option_1,,0,125,125,44,1
615362845380d544dd5466b5,63f3cfca20052e4ae7554ebf,6453cb496285732841f0b066,2023-05-04_17h12.32.073,ga_syllabified_check,2022.2.5,Win32,60.27000964,,,,,,,,,,,,,,./stim/p04_syllable_1_tuliafo_hit.wav,p04,tuliafo,hit,tu-lia-fo,tu-lia-fo,tu-li-a-fo, ,-0.419270833,-0.11328125,1,0,0,2.2241,text_option_1,,0,126,126,67,1
615362845380d544dd5466b5,63f3cfca20052e4ae7554ebf,6453cb496285732841f0b066,2023-05-04_17h12.32.073,ga_syllabified_check,2022.2.5,Win32,60.27000964,,,,,,,,,,,,,,./stim/p06_syllable_1_lakaguaisto_hit.wav,p06,lakaguaisto,hit,la-ka-gu-a-is,la-ka-guais-to,la-ka-gu-ais-to,la-ka-gua-is-to,0.45703125,-0.119791667,1,0,0,7.493,text_option_2,,0,127,127,115,1
615362845380d544dd5466b5,63f3cfca20052e4ae7554ebf,6453cb496285732841f0b066,2023-05-04_17h12.32.073,ga_syllabified_check,2022.2.5,Win32,60.27000964,,,,,,,,,,,,,,./stim/p05_syllable_1_lakaduaisto_hit.wav,p05,lakaduaisto,hit,la-ka-dais-to,la-ka-duais-to,la-ka-du-ais-to,la-ka-dua-is-to,-0.450520833,-0.095052083,1,0,0,4.215,text_option_1,,0,128,128,77,1
615362845380d544dd5466b5,63f3cfca20052e4ae7554ebf,6453cb496285732841f0b066,2023-05-04_17h12.32.073,ga_syllabified_check,2022.2.5,Win32,60.27000964,,,,,,,,,,,,,,./stim/p07_syllable_1_faluduako_hit.wav,p07,faluduako,hit,fa-lu-dua-ko,fa-lu-dua-ko,fa-lu-du-a-ko, ,-0.358072917,-0.106770833,1,0,0,2.8767,text_option_1,,0,129,129,138,1
615362845380d544dd5466b5,63f3cfca20052e4ae7554ebf,6453cb496285732841f0b066,2023-05-04_17h12.32.073,ga_syllabified_check,2022.2.5,Win32,60.27000964,,,,,,,,,,,,,,./stim/p06_syllable_1_lakaduaisto_hit.wav,p06,lakaduaisto,hit,la-ka-du-a-is,la-ka-duais-to,la-ka-du-ais-to,la-ka-dua-is-to,0.419270833,-0.108072917,1,0,0,2.865,text_option_2,,0,130,130,111,1
615362845380d544dd5466b5,63f3cfca20052e4ae7554ebf,6453cb496285732841f0b066,2023-05-04_17h12.32.073,ga_syllabified_check,2022.2.5,Win32,60.27000964,,,,,,,,,,,,,,./stim/p08_syllable_1_manhiala_hit.wav,p08,mañiala,hit,ma-nhia-la,ma-ñia-la,ma-ñi-a-la, ,-0.388020833,-0.108072917,1,0,0,2.3081,text_option_1,,0,131,131,191,1
615362845380d544dd5466b5,63f3cfca20052e4ae7554ebf,6453cb496285732841f0b066,2023-05-04_17h12.32.073,ga_syllabified_check,2022.2.5,Win32,60.27000964,,,,,,,,,,,,,,./stim/p04_syllable_1_lakakiaisto_hit.wav,p04,lakakiaisto,hit,la-ka-kiais-to,la-ka-kiais-to,la-ka-ki-ais-to,la-ka-kia-is-to,-0.368489583,-0.102864583,1,0,0,2.1251,text_option_1,,0,132,132,48,1
615362845380d544dd5466b5,63f3cfca20052e4ae7554ebf,6453cb496285732841f0b066,2023-05-04_17h12.32.073,ga_syllabified_check,2022.2.5,Win32,60.27000964,,,,,,,,,,,,,,./stim/p04_syllable_1_lakapiaisto_hit.wav,p04,lakapiaisto,hit,la-ka-piais-to,la-ka-piais-to,la-ka-pi-ais-to,la-ka-pia-is-to,-0.3359375,-0.106770833,1,0,0,1.5892,text_option_1,,0,133,133,50,1
615362845380d544dd5466b5,63f3cfca20052e4ae7554ebf,6453cb496285732841f0b066,2023-05-04_17h12.32.073,ga_syllabified_check,2022.2.5,Win32,60.27000964,,,,,,,,,,,,,,./stim/p08_syllable_1_rausto_hit.wav,p08,rausto,hit,raus-to,raus-to,ra-us-to, ,-0.368489583,-0.104166667,1,0,0,1.2896,text_option_1,,0,134,134,201,1
615362845380d544dd5466b5,63f3cfca20052e4ae7554ebf,6453cb496285732841f0b066,2023-05-04_17h12.32.073,ga_syllabified_check,2022.2.5,Win32,60.27000964,,,,,,,,,,,,,,./stim/p03_syllable_1_costonhialo_hit.wav,p03,costoñialo,hit,cos-to-nhia-lo,cos-to-ñia-lo,cos-to-ñi-a-lo, ,-0.319010417,-0.106770833,1,0,0,1.7226,text_option_1,,0,135,135,1,1
615362845380d544dd5466b5,63f3cfca20052e4ae7554ebf,6453cb496285732841f0b066,2023-05-04_17h12.32.073,ga_syllabified_check,2022.2.5,Win32,60.27000964,,,,,,,,,,,,,,./stim/p07_syllable_1_lakagiaisto_hit.wav,p07,lakagiaisto,hit,la-ka-gais-to,la-ka-giais-to,la-ka-gi-ais-to,la-ka-gia-is-to,-0.31640625,-0.09765625,1,0,0,3.5622,text_option_1,,0,136,136,148,1
615362845380d544dd5466b5,63f3cfca20052e4ae7554ebf,6453cb496285732841f0b066,2023-05-04_17h12.32.073,ga_syllabified_check,2022.2.5,Win32,60.27000964,,,,,,,,,,,,,,./stim/p04_syllable_1_nhiape_hit.wav,p04,ñiape,hit,nhia-pe,ñia-pe,ñi-a-pe, ,-0.381510417,-0.111979167,1,0,0,0.8025,text_option_1,,0,137,137,57,1
615362845380d544dd5466b5,63f3cfca20052e4ae7554ebf,6453cb496285732841f0b066,2023-05-04_17h12.32.073,ga_syllabified_check,2022.2.5,Win32,60.27000964,,,,,,,,,,,,,,./stim/p07_syllable_1_nhiape_hit.wav,p07,ñiape,hit,nhia-pe,ñia-pe,ñi-a-pe, ,-0.388020833,-0.1015625,1,0,0,1.2662,text_option_1,,0,138,138,159,1
615362845380d544dd5466b5,63f3cfca20052e4ae7554ebf,6453cb496285732841f0b066,2023-05-04_17h12.32.073,ga_syllabified_check,2022.2.5,Win32,60.27000964,,,,,,,,,,,,,,./stim/p07_syllable_1_lakabuaisto_hit.wav,p07,lakabuaisto,hit,la-ka-buais-to,la-ka-buais-to,la-ka-bu-ais-to,la-ka-bua-is-to,-0.345052083,-0.104166667,1,0,0,2.5085,text_option_1,,0,139,139,143,1
615362845380d544dd5466b5,63f3cfca20052e4ae7554ebf,6453cb496285732841f0b066,2023-05-04_17h12.32.073,ga_syllabified_check,2022.2.5,Win32,60.27000964,,,,,,,,,,,,,,./stim/p08_syllable_1_lakabuaisto_hit.wav,p08,lakabuaisto,hit,la-ka-bu-ais-to,la-ka-buais-to,la-ka-bu-ais-to,la-ka-bua-is-to,0.466145833,-0.109375,1,0,0,2.9662,text_option_2,,0,140,140,177,1
615362845380d544dd5466b5,63f3cfca20052e4ae7554ebf,6453cb496285732841f0b066,2023-05-04_17h12.32.073,ga_syllabified_check,2022.2.5,Win32,60.27000964,,,,,,,,,,,,,,./stim/p07_syllable_1_lliape_hit.wav,p07,lliape,hit,lliai-pe,llia-pe,lli-a-pe, ,-0.384114583,-0.108072917,1,0,0,2.7763,text_option_1,,0,141,141,156,1
615362845380d544dd5466b5,63f3cfca20052e4ae7554ebf,6453cb496285732841f0b066,2023-05-04_17h12.32.073,ga_syllabified_check,2022.2.5,Win32,60.27000964,,,,,,,,,,,,,,./stim/p06_syllable_1_pachialo_hit.wav,p06,pachialo,hit,pa-shi-a-lo,pa-chia-lo,pa-chi-a-lo, ,0.4140625,-0.104166667,1,0,0,1.7227,text_option_2,,0,142,142,126,1
615362845380d544dd5466b5,63f3cfca20052e4ae7554ebf,6453cb496285732841f0b066,2023-05-04_17h12.32.073,ga_syllabified_check,2022.2.5,Win32,60.27000964,,,,,,,,,,,,,,./stim/p08_syllable_1_palufauro_hit.wav,p08,palufauro,hit,pa-lu-fau-ro,pa-lu-fau-ro,pa-lu-fa-u-ro, ,0.494791667,-0.11328125,1,0,0,3.1443,text_option_2,,0,143,143,195,1
615362845380d544dd5466b5,63f3cfca20052e4ae7554ebf,6453cb496285732841f0b066,2023-05-04_17h12.32.073,ga_syllabified_check,2022.2.5,Win32,60.27000964,,,,,,,,,,,,,,./stim/p05_syllable_1_lakafiaisto_hit.wav,p05,lakafiaisto,hit,la-ka-fi-ais-to,la-ka-fiais-to,la-ka-fi-ais-to,la-ka-fia-is-to,-0.39453125,-0.088541667,1,0,0,2.7595,text_option_1,,0,144,144,78,1
615362845380d544dd5466b5,63f3cfca20052e4ae7554ebf,6453cb496285732841f0b066,2023-05-04_17h12.32.073,ga_syllabified_check,2022.2.5,Win32,60.27000964,,,,,,,,,,,,,,./stim/p04_syllable_1_lakatuaisto_hit.wav,p04,lakatuaisto,hit,la-ka-kuais-to,la-ka-tuais-to,la-ka-tu-ais-to,la-ka-tua-is-to,-0.391927083,-0.115885417,1,0,0,1.2547,text_option_1,,0,145,145,53,1
615362845380d544dd5466b5,63f3cfca20052e4ae7554ebf,6453cb496285732841f0b066,2023-05-04_17h12.32.073,ga_syllabified_check,2022.2.5,Win32,60.27000964,,,,,,,,,,,,,,./stim/p07_syllable_1_rausto_hit.wav,p07,rausto,hit,raus-to,raus-to,ra-us-to, ,-0.389322917,-0.108072917,1,0,0,1.6881,text_option_1,,0,146,146,167,1
615362845380d544dd5466b5,63f3cfca20052e4ae7554ebf,6453cb496285732841f0b066,2023-05-04_17h12.32.073,ga_syllabified_check,2022.2.5,Win32,60.27000964,,,,,,,,,,,,,,./stim/p07_syllable_1_ruyiola_hit.wav,p07,ruyiola,hit,ru-yio-la,ru-yio-la,ru-yi-o-la, ,-0.38671875,-0.106770833,1,0,0,1.5725,text_option_1,,0,147,147,168,1
615362845380d544dd5466b5,63f3cfca20052e4ae7554ebf,6453cb496285732841f0b066,2023-05-04_17h12.32.073,ga_syllabified_check,2022.2.5,Win32,60.27000964,,,,,,,,,,,,,,./stim/p08_syllable_1_palumaisto_hit.wav,p08,palumaisto,hit,pa-lu-mais-to,pa-lu-mais-to,pa-lu-ma-is-to, ,-0.33984375,-0.10546875,1,0,0,2.392,text_option_1,,0,148,148,198,1
615362845380d544dd5466b5,63f3cfca20052e4ae7554ebf,6453cb496285732841f0b066,2023-05-04_17h12.32.073,ga_syllabified_check,2022.2.5,Win32,60.27000964,,,,,,,,,,,,,,./stim/p03_syllable_1_paluguato_hit.wav,p03,paluguato,hit,pa-lu-gua,pa-lu-gua-to,pa-lu-gu-a-to, ,-0.388020833,-0.110677083,1,0,0,1.6557,text_option_1,,0,149,149,27,1
615362845380d544dd5466b5,63f3cfca20052e4ae7554ebf,6453cb496285732841f0b066,2023-05-04_17h12.32.073,ga_syllabified_check,2022.2.5,Win32,60.27000964,,,,,,,,,,,,,,./stim/p03_syllable_1_flauro_hit.wav,p03,flauro,hit,flau-ro,flau-ro,fla-u-ro, ,-0.393229167,-0.106770833,1,0,0,0.7692,text_option_1,,0,150,150,5,1
615362845380d544dd5466b5,63f3cfca20052e4ae7554ebf,6453cb496285732841f0b066,2023-05-04_17h12.32.073,ga_syllabified_check,2022.2.5,Win32,60.27000964,,,,,,,,,,,,,,./stim/p06_syllable_1_lakadiaisto_hit.wav,p06,lakadiaisto,hit,la-ka-dia-is-to,la-ka-diais-to,la-ka-di-ais-to,la-ka-dia-is-to,0.010416667,-0.1015625,1,0,0,3.0774,text_option_3,,0,151,151,110,1
615362845380d544dd5466b5,63f3cfca20052e4ae7554ebf,6453cb496285732841f0b066,2023-05-04_17h12.32.073,ga_syllabified_check,2022.2.5,Win32,60.27000964,,,,,,,,,,,,,,./stim/p07_syllable_1_lakatiaisto_hit.wav,p07,lakatiaisto,hit,la-ka-tiai-sto,la-ka-tiais-to,la-ka-ti-ais-to,la-ka-tia-is-to,-0.375,-0.109375,1,0,0,5.5525,text_option_1,,0,152,152,154,1
615362845380d544dd5466b5,63f3cfca20052e4ae7554ebf,6453cb496285732841f0b066,2023-05-04_17h12.32.073,ga_syllabified_check,2022.2.5,Win32,60.27000964,,,,,,,,,,,,,,./stim/p05_syllable_1_nhiape_hit.wav,p05,ñiape,hit,nhia-pe,ñia-pe,ñi-a-pe, ,-0.393229167,-0.108072917,1,0,0,0.6679,text_option_1,,0,153,153,91,1
615362845380d544dd5466b5,63f3cfca20052e4ae7554ebf,6453cb496285732841f0b066,2023-05-04_17h12.32.073,ga_syllabified_check,2022.2.5,Win32,60.27000964,,,,,,,,,,,,,,./stim/p03_syllable_1_pachialo_hit.wav,p03,pachialo,hit,pa-chia-lo,pa-chia-lo,pa-chi-a-lo, ,-0.354166667,-0.109375,1,0,0,1.3382,text_option_1,,0,154,154,24,1
615362845380d544dd5466b5,63f3cfca20052e4ae7554ebf,6453cb496285732841f0b066,2023-05-04_17h12.32.073,ga_syllabified_check,2022.2.5,Win32,60.27000964,,,,,,,,,,,,,,./stim/p03_syllable_1_lakakuaisto_hit.wav,p03,lakakuaisto,hit,la-ka-kuais-to,la-ka-kuais-to,la-ka-ku-ais-to,la-ka-kua-is-to,-0.342447917,-0.111979167,1,0,0,2.2582,text_option_1,,0,155,155,15,1
615362845380d544dd5466b5,63f3cfca20052e4ae7554ebf,6453cb496285732841f0b066,2023-05-04_17h12.32.073,ga_syllabified_check,2022.2.5,Win32,60.27000964,,,,,,,,,,,,,,./stim/p07_syllable_1_pachialo_hit.wav,p07,pachialo,hit,pa-cha-lo,pa-chia-lo,pa-chi-a-lo, ,-0.345052083,-0.11328125,1,0,0,1.4883,text_option_1,,0,156,156,160,1
615362845380d544dd5466b5,63f3cfca20052e4ae7554ebf,6453cb496285732841f0b066,2023-05-04_17h12.32.073,ga_syllabified_check,2022.2.5,Win32,60.27000964,,,,,,,,,,,,,,./stim/p07_syllable_1_falutraigo_hit.wav,p07,falutraigo,hit,fa-lu-trai-go,fa-lu-trai-go,fa-lu-tra-i-go, ,-0.3515625,-0.114583333,1,0,0,2.3576,text_option_1,,0,157,157,140,1
615362845380d544dd5466b5,63f3cfca20052e4ae7554ebf,6453cb496285732841f0b066,2023-05-04_17h12.32.073,ga_syllabified_check,2022.2.5,Win32,60.27000964,,,,,,,,,,,,,,./stim/p04_syllable_1_lakafuaisto_hit.wav,p04,lakafuaisto,hit,la-ka-fuais-to,la-ka-fuais-to,la-ka-fu-ais-to,la-ka-fua-is-to,-0.341145833,-0.10546875,1,0,0,1.1491,text_option_1,,0,158,158,45,1
615362845380d544dd5466b5,63f3cfca20052e4ae7554ebf,6453cb496285732841f0b066,2023-05-04_17h12.32.073,ga_syllabified_check,2022.2.5,Win32,60.27000964,,,,,,,,,,,,,,./stim/p03_syllable_1_lakadiaisto_hit.wav,p03,lakadiaisto,hit,la-ka-diais-to,la-ka-diais-to,la-ka-di-ais-to,la-ka-dia-is-to,-0.337239583,-0.102864583,1,0,0,2.2968,text_option_1,,0,159,159,8,1
615362845380d544dd5466b5,63f3cfca20052e4ae7554ebf,6453cb496285732841f0b066,2023-05-04_17h12.32.073,ga_syllabified_check,2022.2.5,Win32,60.27000964,,,,,,,,,,,,,,./stim/p04_syllable_1_lakakuaisto_hit.wav,p04,lakakuaisto,hit,la-ka-kuais-to,la-ka-kuais-to,la-ka-ku-ais-to,la-ka-kua-is-to,-0.338541667,-0.102864583,1,0,0,1.2817,text_option_1,,0,160,160,49,1
615362845380d544dd5466b5,63f3cfca20052e4ae7554ebf,6453cb496285732841f0b066,2023-05-04_17h12.32.073,ga_syllabified_check,2022.2.5,Win32,60.27000964,,,,,,,,,,,,,,./stim/p03_syllable_1_lakaduaisto_hit.wav,p03,lakaduaisto,hit,la-ka-duais-to,la-ka-duais-to,la-ka-du-ais-to,la-ka-dua-is-to,-0.338541667,-0.104166667,1,0,0,1.8387,text_option_1,,0,161,161,9,1
615362845380d544dd5466b5,63f3cfca20052e4ae7554ebf,6453cb496285732841f0b066,2023-05-04_17h12.32.073,ga_syllabified_check,2022.2.5,Win32,60.27000964,,,,,,,,,,,,,,./stim/p06_syllable_1_manhiala_hit.wav,p06,mañiala,hit,ma-nhi-a-la,ma-ñia-la,ma-ñi-a-la, ,0.381510417,-0.104166667,1,0,0,2.4806,text_option_2,,0,162,162,123,1
615362845380d544dd5466b5,63f3cfca20052e4ae7554ebf,6453cb496285732841f0b066,2023-05-04_17h12.32.073,ga_syllabified_check,2022.2.5,Win32,60.27000964,,,,,,,,,,,,,,./stim/p07_syllable_1_lakakiaisto_hit.wav,p07,lakakiaisto,hit,la-ka-kais-to,la-ka-kiais-to,la-ka-ki-ais-to,la-ka-kia-is-to,-0.37890625,-0.104166667,1,0,0,3.3113,text_option_1,,0,163,163,150,1
615362845380d544dd5466b5,63f3cfca20052e4ae7554ebf,6453cb496285732841f0b066,2023-05-04_17h12.32.073,ga_syllabified_check,2022.2.5,Win32,60.27000964,,,,,,,,,,,,,,./stim/p07_syllable_1_palufauto_hit.wav,p07,palufauto,hit,pa-lu-fau-to,pa-lu-fau-to,pa-lu-fa-u-to, ,-0.337239583,-0.102864583,1,0,0,1.7681,text_option_1,,0,164,164,162,1
615362845380d544dd5466b5,63f3cfca20052e4ae7554ebf,6453cb496285732841f0b066,2023-05-04_17h12.32.073,ga_syllabified_check,2022.2.5,Win32,60.27000964,,,,,,,,,,,,,,./stim/p08_syllable_1_nhiape_hit.wav,p08,ñiape,hit,ni-a-pe,ñia-pe,ñi-a-pe, ,0.393229167,-0.108072917,1,0,0,1.5777,text_option_2,,0,165,165,193,1
615362845380d544dd5466b5,63f3cfca20052e4ae7554ebf,6453cb496285732841f0b066,2023-05-04_17h12.32.073,ga_syllabified_check,2022.2.5,Win32,60.27000964,,,,,,,,,,,,,,./stim/p05_syllable_1_lakabiaisto_hit.wav,p05,lakabiaisto,hit,la-ka-bi-ais-to,la-ka-biais-to,la-ka-bi-ais-to,la-ka-bia-is-to,0.440104167,-0.09375,1,0,0,5.285,text_option_2,,0,166,166,74,1
615362845380d544dd5466b5,63f3cfca20052e4ae7554ebf,6453cb496285732841f0b066,2023-05-04_17h12.32.073,ga_syllabified_check,2022.2.5,Win32,60.27000964,,,,,,,,,,,,,,./stim/p07_syllable_1_palutrauco_hit.wav,p07,palutrauco,hit,pa-lu-trau-co,pa-lu-trau-co,pa-lu-tra-u-co, ,-0.40625,-0.098958333,1,0,0,2.5823,text_option_1,,0,167,167,165,1
615362845380d544dd5466b5,63f3cfca20052e4ae7554ebf,6453cb496285732841f0b066,2023-05-04_17h12.32.073,ga_syllabified_check,2022.2.5,Win32,60.27000964,,,,,,,,,,,,,,./stim/p06_syllable_1_payielo_hit.wav,p06,payielo,hit,pa-yi-e-lo,pa-yie-lo,pa-yi-e-lo, ,0.375,-0.109375,1,0,0,2.3081,text_option_2,,0,168,168,132,1
615362845380d544dd5466b5,63f3cfca20052e4ae7554ebf,6453cb496285732841f0b066,2023-05-04_17h12.32.073,ga_syllabified_check,2022.2.5,Win32,60.27000964,,,,,,,,,,,,,,./stim/p06_syllable_1_lakagiaisto_hit.wav,p06,lakagiaisto,hit,la-ka-gia-is-to,la-ka-giais-to,la-ka-gi-ais-to,la-ka-gia-is-to,0.040364583,-0.1015625,1,0,0,4.2594,text_option_3,,0,169,169,114,1
615362845380d544dd5466b5,63f3cfca20052e4ae7554ebf,6453cb496285732841f0b066,2023-05-04_17h12.32.073,ga_syllabified_check,2022.2.5,Win32,60.27000964,,,,,,,,,,,,,,./stim/p05_syllable_1_manhiala_hit.wav,p05,mañiala,hit,ma-nhia-la,ma-ñia-la,ma-ñi-a-la, ,0.375,-0.102864583,1,0,0,2.6763,text_option_2,,0,170,170,89,1
615362845380d544dd5466b5,63f3cfca20052e4ae7554ebf,6453cb496285732841f0b066,2023-05-04_17h12.32.073,ga_syllabified_check,2022.2.5,Win32,60.27000964,,,,,,,,,,,,,,./stim/p08_syllable_1_lliape_hit.wav,p08,lliape,hit,li-a-pe,llia-pe,lli-a-pe, ,0.407552083,-0.095052083,1,0,0,1.9398,text_option_2,,0,171,171,190,1
615362845380d544dd5466b5,63f3cfca20052e4ae7554ebf,6453cb496285732841f0b066,2023-05-04_17h12.32.073,ga_syllabified_check,2022.2.5,Win32,60.27000964,,,,,,,,,,,,,,./stim/p03_syllable_1_lakaguaisto_hit.wav,p03,lakaguaisto,hit,la-ka-guais-to,la-ka-guais-to,la-ka-gu-ais-to,la-ka-gua-is-to,-0.391927083,-0.110677083,1,0,0,1.941,text_option_1,,0,172,172,13,1
615362845380d544dd5466b5,63f3cfca20052e4ae7554ebf,6453cb496285732841f0b066,2023-05-04_17h12.32.073,ga_syllabified_check,2022.2.5,Win32,60.27000964,,,,,,,,,,,,,,./stim/p08_syllable_1_lakagiaisto_hit.wav,p08,lakagiaisto,hit,la-ka-gi-jas-to,la-ka-giais-to,la-ka-gi-ais-to,la-ka-gia-is-to,0.44140625,-0.11328125,1,0,0,4.5332,text_option_2,,0,173,173,182,1
615362845380d544dd5466b5,63f3cfca20052e4ae7554ebf,6453cb496285732841f0b066,2023-05-04_17h12.32.073,ga_syllabified_check,2022.2.5,Win32,60.27000964,,,,,,,,,,,,,,./stim/p06_syllable_1_chiaba_hit.wav,p06,chiaba,hit,chi-a-ba,chia-ba,chi-a-ba, ,0.39453125,-0.106770833,1,0,0,1.3372,text_option_2,,0,174,174,102,1
615362845380d544dd5466b5,63f3cfca20052e4ae7554ebf,6453cb496285732841f0b066,2023-05-04_17h12.32.073,ga_syllabified_check,2022.2.5,Win32,60.27000964,,,,,,,,,,,,,,./stim/p06_syllable_1_faluduako_hit.wav,p06,faluduako,hit,fa-lu-dua-ko,fa-lu-dua-ko,fa-lu-du-a-ko, ,-0.302083333,-0.102864583,1,0,0,4.8513,text_option_1,,0,175,175,104,1
615362845380d544dd5466b5,63f3cfca20052e4ae7554ebf,6453cb496285732841f0b066,2023-05-04_17h12.32.073,ga_syllabified_check,2022.2.5,Win32,60.27000964,,,,,,,,,,,,,,./stim/p03_syllable_1_lakatuaisto_hit.wav,p03,lakatuaisto,hit,la-ka-tuais-to,la-ka-tuais-to,la-ka-tu-ais-to,la-ka-tua-is-to,-0.352864583,-0.108072917,1,0,0,2.007,text_option_1,,0,176,176,19,1
615362845380d544dd5466b5,63f3cfca20052e4ae7554ebf,6453cb496285732841f0b066,2023-05-04_17h12.32.073,ga_syllabified_check,2022.2.5,Win32,60.27000964,,,,,,,,,,,,,,./stim/p05_syllable_1_palufauro_hit.wav,p05,palufauro,hit,pa-lu-fau-ro,pa-lu-fau-ro,pa-lu-fa-u-ro, ,-0.352864583,-0.111979167,1,0,0,2.6761,text_option_1,,0,177,177,93,1
615362845380d544dd5466b5,63f3cfca20052e4ae7554ebf,6453cb496285732841f0b066,2023-05-04_17h12.32.073,ga_syllabified_check,2022.2.5,Win32,60.27000964,,,,,,,,,,,,,,./stim/p04_syllable_1_lakabuaisto_hit.wav,p04,lakabuaisto,hit,la-ka-buais-to,la-ka-buais-to,la-ka-bu-ais-to,la-ka-bua-is-to,-0.325520833,-0.100260417,1,0,0,1.2375,text_option_1,,0,178,178,41,1
615362845380d544dd5466b5,63f3cfca20052e4ae7554ebf,6453cb496285732841f0b066,2023-05-04_17h12.32.073,ga_syllabified_check,2022.2.5,Win32,60.27000964,,,,,,,,,,,,,,./stim/p04_syllable_1_palufauro_hit.wav,p04,palufauro,hit,pa-lu-fau-ro,pa-lu-fau-ro,pa-lu-fa-u-ro, ,-0.350260417,-0.100260417,1,0,0,1.0703,text_option_1,,0,179,179,59,1
615362845380d544dd5466b5,63f3cfca20052e4ae7554ebf,6453cb496285732841f0b066,2023-05-04_17h12.32.073,ga_syllabified_check,2022.2.5,Win32,60.27000964,,,,,,,,,,,,,,./stim/p06_syllable_1_palufauro_hit.wav,p06,palufauro,hit,pa-lu-fau-ro,pa-lu-fau-ro,pa-lu-fa-u-ro, ,0.354166667,-0.10546875,1,0,0,3.9642,text_option_2,,0,180,180,127,1
615362845380d544dd5466b5,63f3cfca20052e4ae7554ebf,6453cb496285732841f0b066,2023-05-04_17h12.32.073,ga_syllabified_check,2022.2.5,Win32,60.27000964,,,,,,,,,,,,,,./stim/p08_syllable_1_payielo_hit.wav,p08,payielo,hit,pa-yie-lo,pa-yie-lo,pa-yi-e-lo, ,-0.359375,-0.09765625,1,0,0,1.8228,text_option_1,,0,181,181,200,1
615362845380d544dd5466b5,63f3cfca20052e4ae7554ebf,6453cb496285732841f0b066,2023-05-04_17h12.32.073,ga_syllabified_check,2022.2.5,Win32,60.27000964,,,,,,,,,,,,,,./stim/p05_syllable_1_lakakiaisto_hit.wav,p05,lakakiaisto,hit,la-ka-ki-ais-to,la-ka-kiais-to,la-ka-ki-ais-to,la-ka-kia-is-to,-0.352864583,-0.115885417,1,0,0,1.7061,text_option_1,,0,182,182,82,1
615362845380d544dd5466b5,63f3cfca20052e4ae7554ebf,6453cb496285732841f0b066,2023-05-04_17h12.32.073,ga_syllabified_check,2022.2.5,Win32,60.27000964,,,,,,,,,,,,,,./stim/p07_syllable_1_lakapuaisto_hit.wav,p07,lakapuaisto,hit,la-ka-puais-to,la-ka-puais-to,la-ka-pu-ais-to,la-ka-pua-is-to,-0.313802083,-0.102864583,1,0,0,2.9766,text_option_1,,0,183,183,153,1
615362845380d544dd5466b5,63f3cfca20052e4ae7554ebf,6453cb496285732841f0b066,2023-05-04_17h12.32.073,ga_syllabified_check,2022.2.5,Win32,60.27000964,,,,,,,,,,,,,,./stim/p07_syllable_1_lakaguaisto_hit.wav,p07,lakaguaisto,hit,la-ka-guais-to,la-ka-guais-to,la-ka-gu-ais-to,la-ka-gua-is-to,-0.33984375,-0.087239583,1,0,0,2.3242,text_option_1,,0,184,184,149,1
615362845380d544dd5466b5,63f3cfca20052e4ae7554ebf,6453cb496285732841f0b066,2023-05-04_17h12.32.073,ga_syllabified_check,2022.2.5,Win32,60.27000964,,,,,,,,,,,,,,./stim/p03_syllable_1_lakabiaisto_hit.wav,p03,lakabiaisto,hit,la-ka-biais-to,la-ka-biais-to,la-ka-bi-ais-to,la-ka-bia-is-to,-0.33203125,-0.114583333,1,0,0,1.8564,text_option_1,,0,185,185,6,1
615362845380d544dd5466b5,63f3cfca20052e4ae7554ebf,6453cb496285732841f0b066,2023-05-04_17h12.32.073,ga_syllabified_check,2022.2.5,Win32,60.27000964,,,,,,,,,,,,,,./stim/p08_syllable_1_lakabiaisto_hit.wav,p08,lakabiaisto,hit,la-ka-bi-as-to,la-ka-biais-to,la-ka-bi-ais-to,la-ka-bia-is-to,0.421875,-0.1015625,1,0,0,3.5284,text_option_2,,0,186,186,176,1
615362845380d544dd5466b5,63f3cfca20052e4ae7554ebf,6453cb496285732841f0b066,2023-05-04_17h12.32.073,ga_syllabified_check,2022.2.5,Win32,60.27000964,,,,,,,,,,,,,,./stim/p05_syllable_1_lakatuaisto_hit.wav,p05,lakatuaisto,hit,la-ka-tais-to,la-ka-tuais-to,la-ka-tu-ais-to,la-ka-tua-is-to,0.05859375,-0.10546875,1,0,0,4.2981,text_option_3,,0,187,187,87,1
615362845380d544dd5466b5,63f3cfca20052e4ae7554ebf,6453cb496285732841f0b066,2023-05-04_17h12.32.073,ga_syllabified_check,2022.2.5,Win32,60.27000964,,,,,,,,,,,,,,./stim/p06_syllable_1_ruyiola_hit.wav,p06,ruyiola,hit,ru-yi-o-la,ru-yio-la,ru-yi-o-la, ,0.416666667,-0.110677083,1,0,0,2.2915,text_option_2,,0,188,188,134,1
615362845380d544dd5466b5,63f3cfca20052e4ae7554ebf,6453cb496285732841f0b066,2023-05-04_17h12.32.073,ga_syllabified_check,2022.2.5,Win32,60.27000964,,,,,,,,,,,,,,./stim/p05_syllable_1_tuliafo_hit.wav,p05,tuliafo,hit,tu-lai-fo,tu-lia-fo,tu-li-a-fo, ,-0.44921875,-0.100260417,1,0,0,2.3086,text_option_1,,0,189,189,101,1
615362845380d544dd5466b5,63f3cfca20052e4ae7554ebf,6453cb496285732841f0b066,2023-05-04_17h12.32.073,ga_syllabified_check,2022.2.5,Win32,60.27000964,,,,,,,,,,,,,,./stim/p06_syllable_1_rausto_hit.wav,p06,rausto,hit,ra-us-to,raus-to,ra-us-to, ,0.419270833,-0.110677083,1,0,0,2.2318,text_option_2,,0,190,190,133,1
615362845380d544dd5466b5,63f3cfca20052e4ae7554ebf,6453cb496285732841f0b066,2023-05-04_17h12.32.073,ga_syllabified_check,2022.2.5,Win32,60.27000964,,,,,,,,,,,,,,./stim/p06_syllable_1_lakatuaisto_hit.wav,p06,lakatuaisto,hit,la-ka-tu-a-is,la-ka-tuais-to,la-ka-tu-ais-to,la-ka-tua-is-to,0.088541667,-0.2890625,1,0,0,6.3556,text_option_other,la-ka-tu-a-is-to,0,191,191,121,1
615362845380d544dd5466b5,63f3cfca20052e4ae7554ebf,6453cb496285732841f0b066,2023-05-04_17h12.32.073,ga_syllabified_check,2022.2.5,Win32,60.27000964,,,,,,,,,,,,,,./stim/p07_syllable_1_chiaba_hit.wav,p07,chiaba,hit,chia-ba,chia-ba,chi-a-ba, ,-0.393229167,-0.118489583,1,0,0,0.7196,text_option_1,,0,192,192,136,1
615362845380d544dd5466b5,63f3cfca20052e4ae7554ebf,6453cb496285732841f0b066,2023-05-04_17h12.32.073,ga_syllabified_check,2022.2.5,Win32,60.27000964,,,,,,,,,,,,,,./stim/p03_syllable_1_lakabuaisto_hit.wav,p03,lakabuaisto,hit,la-ka-buais-to,la-ka-buais-to,la-ka-bu-ais-to,la-ka-bua-is-to,-0.350260417,-0.09765625,1,0,0,1.55,text_option_1,,0,193,193,7,1
615362845380d544dd5466b5,63f3cfca20052e4ae7554ebf,6453cb496285732841f0b066,2023-05-04_17h12.32.073,ga_syllabified_check,2022.2.5,Win32,60.27000964,,,,,,,,,,,,,,./stim/p05_syllable_1_paluguato_hit.wav,p05,paluguato,hit,pa-lu-gau-to,pa-lu-gua-to,pa-lu-gu-a-to, ,0.393229167,-0.098958333,1,0,0,4.1105,text_option_2,,0,194,194,95,1
615362845380d544dd5466b5,63f3cfca20052e4ae7554ebf,6453cb496285732841f0b066,2023-05-04_17h12.32.073,ga_syllabified_check,2022.2.5,Win32,60.27000964,,,,,,,,,,,,,,./stim/p07_syllable_1_lakabiaisto_hit.wav,p07,lakabiaisto,hit,la-ka-bais-to,la-ka-biais-to,la-ka-bi-ais-to,la-ka-bia-is-to,-0.342447917,-0.106770833,1,0,0,2.6092,text_option_1,,0,195,195,142,1
615362845380d544dd5466b5,63f3cfca20052e4ae7554ebf,6453cb496285732841f0b066,2023-05-04_17h12.32.073,ga_syllabified_check,2022.2.5,Win32,60.27000964,,,,,,,,,,,,,,./stim/p03_syllable_1_rausto_hit.wav,p03,rausto,hit,raus-to,raus-to,ra-us-to, ,-0.372395833,-0.10546875,1,0,0,0.9535,text_option_1,,0,196,196,31,1
615362845380d544dd5466b5,63f3cfca20052e4ae7554ebf,6453cb496285732841f0b066,2023-05-04_17h12.32.073,ga_syllabified_check,2022.2.5,Win32,60.27000964,,,,,,,,,,,,,,./stim/p07_syllable_1_lakapiaisto_hit.wav,p07,lakapiaisto,hit,la-ka-pia-sto,la-ka-piais-to,la-ka-pi-ais-to,la-ka-pia-is-to,-0.005208333,-0.102864583,1,0,0,5.3138,text_option_3,,0,197,197,152,1
615362845380d544dd5466b5,63f3cfca20052e4ae7554ebf,6453cb496285732841f0b066,2023-05-04_17h12.32.073,ga_syllabified_check,2022.2.5,Win32,60.27000964,,,,,,,,,,,,,,./stim/p06_syllable_1_falutraigo_hit.wav,p06,falutraigo,hit,fa-lu-tra-i-go,fa-lu-trai-go,fa-lu-tra-i-go, ,0.397135417,-0.110677083,1,0,0,4.1976,text_option_2,,0,198,198,106,1
615362845380d544dd5466b5,63f3cfca20052e4ae7554ebf,6453cb496285732841f0b066,2023-05-04_17h12.32.073,ga_syllabified_check,2022.2.5,Win32,60.27000964,,,,,,,,,,,,,,./stim/p08_syllable_1_lakatiaisto_hit.wav,p08,lakatiaisto,hit,la-ka-ti-as-to,la-ka-tiais-to,la-ka-ti-ais-to,la-ka-tia-is-to,-0.348958333,-0.095052083,1,0,0,7.0244,text_option_1,,0,199,199,188,1
615362845380d544dd5466b5,63f3cfca20052e4ae7554ebf,6453cb496285732841f0b066,2023-05-04_17h12.32.073,ga_syllabified_check,2022.2.5,Win32,60.27000964,,,,,,,,,,,,,,./stim/p04_syllable_1_lakatiaisto_hit.wav,p04,lakatiaisto,hit,la-ka-kiais-to,la-ka-tiais-to,la-ka-ti-ais-to,la-ka-tia-is-to,-0.33984375,-0.106770833,1,0,0,1.0369,text_option_1,,0,200,200,52,1
615362845380d544dd5466b5,63f3cfca20052e4ae7554ebf,6453cb496285732841f0b066,2023-05-04_17h12.32.073,ga_syllabified_check,2022.2.5,Win32,60.27000964,,,,,,,,,,,,,,./stim/p06_syllable_1_lakafiaisto_hit.wav,p06,lakafiaisto,hit,la-ka-fia-is-to,la-ka-fiais-to,la-ka-fi-ais-to,la-ka-fia-is-to,0.028645833,-0.092447917,1,0,0,3.3947,text_option_3,,0,201,201,112,1
615362845380d544dd5466b5,63f3cfca20052e4ae7554ebf,6453cb496285732841f0b066,2023-05-04_17h12.32.073,ga_syllabified_check,2022.2.5,Win32,60.27000964,,,,,,,,,,,,,,./stim/p04_syllable_1_lakaguaisto_hit.wav,p04,lakaguaisto,hit,la-ka-guais-to,la-ka-guais-to,la-ka-gu-ais-to,la-ka-gua-is-to,0.04296875,-0.12109375,1,0,0,1.5223,text_option_3,,0,202,202,47,1
615362845380d544dd5466b5,63f3cfca20052e4ae7554ebf,6453cb496285732841f0b066,2023-05-04_17h12.32.073,ga_syllabified_check,2022.2.5,Win32,60.27000964,,,,,,,,,,,,,,./stim/p08_syllable_1_pachialo_hit.wav,p08,pachialo,hit,pa-chi-ja-lo,pa-chia-lo,pa-chi-a-lo, ,0.438802083,-0.09375,1,0,0,1.3877,text_option_2,,0,203,203,194,1
615362845380d544dd5466b5,63f3cfca20052e4ae7554ebf,6453cb496285732841f0b066,2023-05-04_17h12.32.073,ga_syllabified_check,2022.2.5,Win32,60.27000964,,,,,,,,,,,,,,,,,,,,,,,,,,,,,,,,,,
