participant,study,session,date,expName,psychopyVersion,OS,frameRate,mouse_practice.x,mouse_practice.y,mouse_practice.leftButton,mouse_practice.midButton,mouse_practice.rightButton,mouse_practice.time,mouse_practice.clicked_name,textbox_followup_practice.text,trials_practice.thisRepN,trials_practice.thisTrialN,trials_practice.thisN,trials_practice.thisIndex,trials_practice.ran,file_path,id,item,status,response,op1,op2,op3,mouse.x,mouse.y,mouse.leftButton,mouse.midButton,mouse.rightButton,mouse.time,mouse.clicked_name,textbox_followup.text,trials.thisRepN,trials.thisTrialN,trials.thisN,trials.thisIndex,trials.ran
6161d2a6b6dcc778b5b930bb,63f3cfca20052e4ae7554ebf,6453cd31bb21cf7feedba061,2023-05-04_17h23.27.834,ga_syllabified_check,2022.2.5,Win32,8,,,,,,,,,,,,,,,,,,,,,,,,,,,,,,,,,,
6161d2a6b6dcc778b5b930bb,63f3cfca20052e4ae7554ebf,6453cd31bb21cf7feedba061,2023-05-04_17h23.27.834,ga_syllabified_check,2022.2.5,Win32,8,0.411111111,-0.102777778,1,0,0,2.8646,text_option_2_practice,,0,0,0,0,1,./stim/p03_syllable_1_liamo_hit.wav,p03,liamo,hit,lia-mo,lia-mo,li-a-mo, ,,,,,,,,,,,,,
6161d2a6b6dcc778b5b930bb,63f3cfca20052e4ae7554ebf,6453cd31bb21cf7feedba061,2023-05-04_17h23.27.834,ga_syllabified_check,2022.2.5,Win32,8,-0.368518519,-0.107407407,1,0,0,7.6729,text_option_1_practice,,0,1,1,1,1,./stim/p05_syllable_1_matio_hit.wav,p05,matio,hit,ma-tio,ma-tio,ma-ti-o, ,,,,,,,,,,,,,
6161d2a6b6dcc778b5b930bb,63f3cfca20052e4ae7554ebf,6453cd31bb21cf7feedba061,2023-05-04_17h23.27.834,ga_syllabified_check,2022.2.5,Win32,8,0.393518519,-0.099074074,1,0,0,4.2917,text_option_2_practice,,0,2,2,2,1,./stim/p08_syllable_1_liamo_hit.wav,p08,liamo,hit,ja-mo,lia-mo,li-a-mo, ,,,,,,,,,,,,,
6161d2a6b6dcc778b5b930bb,63f3cfca20052e4ae7554ebf,6453cd31bb21cf7feedba061,2023-05-04_17h23.27.834,ga_syllabified_check,2022.2.5,Win32,8,,,,,,,,,,,,,,,,,,,,,,,,,,,,,,,,,,
6161d2a6b6dcc778b5b930bb,63f3cfca20052e4ae7554ebf,6453cd31bb21cf7feedba061,2023-05-04_17h23.27.834,ga_syllabified_check,2022.2.5,Win32,8,,,,,,,,,,,,,,./stim/p06_syllable_1_palufauto_hit.wav,p06,palufauto,hit,pa-lu-fau-to,pa-lu-fau-to,pa-lu-fa-u-to, ,-0.363888889,-0.102777778,1,0,0,10.1645,text_option_1,,0,0,0,128,1
6161d2a6b6dcc778b5b930bb,63f3cfca20052e4ae7554ebf,6453cd31bb21cf7feedba061,2023-05-04_17h23.27.834,ga_syllabified_check,2022.2.5,Win32,8,,,,,,,,,,,,,,./stim/p07_syllable_1_lakadiaisto_hit.wav,p07,lakadiaisto,hit,la-ka-dia-is-to,la-ka-diais-to,la-ka-di-ais-to,la-ka-dia-is-to,0.443518519,-0.100925926,1,0,0,5.7144,text_option_2,,0,1,1,144,1
6161d2a6b6dcc778b5b930bb,63f3cfca20052e4ae7554ebf,6453cd31bb21cf7feedba061,2023-05-04_17h23.27.834,ga_syllabified_check,2022.2.5,Win32,8,,,,,,,,,,,,,,./stim/p04_syllable_1_lakagiaisto_hit.wav,p04,lakagiaisto,hit,la-ka-giais-to,la-ka-giais-to,la-ka-gi-ais-to,la-ka-gia-is-to,-0.349074074,-0.103703704,1,0,0,3.67,text_option_1,,0,2,2,46,1
6161d2a6b6dcc778b5b930bb,63f3cfca20052e4ae7554ebf,6453cd31bb21cf7feedba061,2023-05-04_17h23.27.834,ga_syllabified_check,2022.2.5,Win32,8,,,,,,,,,,,,,,./stim/p06_syllable_1_mebochiana_hit.wav,p06,mebochiana,hit,me-bo-shi-a-na,me-bo-chia-na,me-bo-chi-a-na, ,0.382407407,-0.113888889,1,0,0,3.9753,text_option_2,,0,3,3,124,1
6161d2a6b6dcc778b5b930bb,63f3cfca20052e4ae7554ebf,6453cd31bb21cf7feedba061,2023-05-04_17h23.27.834,ga_syllabified_check,2022.2.5,Win32,8,,,,,,,,,,,,,,./stim/p04_syllable_1_ruyiola_hit.wav,p04,ruyiola,hit,ru-yio-la,ru-yio-la,ru-yi-o-la, ,-0.391666667,-0.10462963,1,0,0,2.0718,text_option_1,,0,4,4,66,1
6161d2a6b6dcc778b5b930bb,63f3cfca20052e4ae7554ebf,6453cd31bb21cf7feedba061,2023-05-04_17h23.27.834,ga_syllabified_check,2022.2.5,Win32,8,,,,,,,,,,,,,,./stim/p03_syllable_1_lakaguaisto_hit.wav,p03,lakaguaisto,hit,la-ka-guais-to,la-ka-guais-to,la-ka-gu-ais-to,la-ka-gua-is-to,-0.391666667,-0.10462963,1,0,0,3.9888,text_option_1,,0,5,5,13,1
6161d2a6b6dcc778b5b930bb,63f3cfca20052e4ae7554ebf,6453cd31bb21cf7feedba061,2023-05-04_17h23.27.834,ga_syllabified_check,2022.2.5,Win32,8,,,,,,,,,,,,,,./stim/p06_syllable_1_lakagiaisto_hit.wav,p06,lakagiaisto,hit,la-ka-gia-is-to,la-ka-giais-to,la-ka-gi-ais-to,la-ka-gia-is-to,0.050925926,-0.115740741,1,0,0,6.4343,text_option_3,,0,6,6,114,1
6161d2a6b6dcc778b5b930bb,63f3cfca20052e4ae7554ebf,6453cd31bb21cf7feedba061,2023-05-04_17h23.27.834,ga_syllabified_check,2022.2.5,Win32,8,,,,,,,,,,,,,,./stim/p07_syllable_1_lakaduaisto_hit.wav,p07,lakaduaisto,hit,la-ka-duais-to,la-ka-duais-to,la-ka-du-ais-to,la-ka-dua-is-to,-0.458333333,-0.108333333,1,0,0,3.342,text_option_1,,0,7,7,145,1
6161d2a6b6dcc778b5b930bb,63f3cfca20052e4ae7554ebf,6453cd31bb21cf7feedba061,2023-05-04_17h23.27.834,ga_syllabified_check,2022.2.5,Win32,8,,,,,,,,,,,,,,./stim/p06_syllable_1_tuliafo_hit.wav,p06,tuliafo,hit,tu-li-a-fo,tu-lia-fo,tu-li-a-fo, ,0.419444444,-0.112962963,1,0,0,2.6861,text_option_2,,0,8,8,135,1
6161d2a6b6dcc778b5b930bb,63f3cfca20052e4ae7554ebf,6453cd31bb21cf7feedba061,2023-05-04_17h23.27.834,ga_syllabified_check,2022.2.5,Win32,8,,,,,,,,,,,,,,./stim/p07_syllable_1_paluguato_hit.wav,p07,paluguato,hit,pa-lu-gua-to,pa-lu-gua-to,pa-lu-gu-a-to, ,-0.34537037,-0.112962963,1,0,0,2.8551,text_option_1,,0,9,9,163,1
6161d2a6b6dcc778b5b930bb,63f3cfca20052e4ae7554ebf,6453cd31bb21cf7feedba061,2023-05-04_17h23.27.834,ga_syllabified_check,2022.2.5,Win32,8,,,,,,,,,,,,,,./stim/p06_syllable_1_lakakuaisto_hit.wav,p06,lakakuaisto,hit,la-ka-ku-a-is,la-ka-kuais-to,la-ka-ku-ais-to,la-ka-kua-is-to,0.046296296,-0.101851852,1,0,0,6.3423,text_option_3,,0,10,10,117,1
6161d2a6b6dcc778b5b930bb,63f3cfca20052e4ae7554ebf,6453cd31bb21cf7feedba061,2023-05-04_17h23.27.834,ga_syllabified_check,2022.2.5,Win32,8,,,,,,,,,,,,,,./stim/p06_syllable_1_lakafiaisto_hit.wav,p06,lakafiaisto,hit,la-ka-fia-is-to,la-ka-fiais-to,la-ka-fi-ais-to,la-ka-fia-is-to,0.032407407,-0.103703704,1,0,0,4.8029,text_option_3,,0,11,11,112,1
6161d2a6b6dcc778b5b930bb,63f3cfca20052e4ae7554ebf,6453cd31bb21cf7feedba061,2023-05-04_17h23.27.834,ga_syllabified_check,2022.2.5,Win32,8,,,,,,,,,,,,,,./stim/p05_syllable_1_payielo_hit.wav,p05,payielo,hit,pai-yu-we-lo,pa-yie-lo,pa-yi-e-lo, ,-0.023148148,-0.306481481,1,0,0,2.0497,text_option_other,payuelo,0,12,12,98,1
6161d2a6b6dcc778b5b930bb,63f3cfca20052e4ae7554ebf,6453cd31bb21cf7feedba061,2023-05-04_17h23.27.834,ga_syllabified_check,2022.2.5,Win32,8,,,,,,,,,,,,,,./stim/p03_syllable_1_lakafuaisto_hit.wav,p03,lakafuaisto,hit,la-ka-fuais-to,la-ka-fuais-to,la-ka-fu-ais-to,la-ka-fua-is-to,-0.362962963,-0.106481481,1,0,0,5.5861,text_option_1,,0,13,13,11,1
6161d2a6b6dcc778b5b930bb,63f3cfca20052e4ae7554ebf,6453cd31bb21cf7feedba061,2023-05-04_17h23.27.834,ga_syllabified_check,2022.2.5,Win32,8,,,,,,,,,,,,,,./stim/p05_syllable_1_pachialo_hit.wav,p05,pachialo,hit,pan-chia-lo,pa-chia-lo,pa-chi-a-lo, ,-0.362962963,-0.106481481,1,0,0,4.7323,text_option_1,,0,14,14,92,1
6161d2a6b6dcc778b5b930bb,63f3cfca20052e4ae7554ebf,6453cd31bb21cf7feedba061,2023-05-04_17h23.27.834,ga_syllabified_check,2022.2.5,Win32,8,,,,,,,,,,,,,,./stim/p07_syllable_1_pachialo_hit.wav,p07,pachialo,hit,pa-cha-lo,pa-chia-lo,pa-chi-a-lo, ,-0.425,-0.101851852,1,0,0,3.2945,text_option_1,,0,15,15,160,1
6161d2a6b6dcc778b5b930bb,63f3cfca20052e4ae7554ebf,6453cd31bb21cf7feedba061,2023-05-04_17h23.27.834,ga_syllabified_check,2022.2.5,Win32,8,,,,,,,,,,,,,,./stim/p08_syllable_1_palumaisto_hit.wav,p08,palumaisto,hit,pa-lu-mais-to,pa-lu-mais-to,pa-lu-ma-is-to, ,-0.35,-0.105555556,1,0,0,3.3757,text_option_1,,0,16,16,198,1
6161d2a6b6dcc778b5b930bb,63f3cfca20052e4ae7554ebf,6453cd31bb21cf7feedba061,2023-05-04_17h23.27.834,ga_syllabified_check,2022.2.5,Win32,8,,,,,,,,,,,,,,./stim/p06_syllable_1_flauro_hit.wav,p06,flauro,hit,fla-u-ro,flau-ro,fla-u-ro, ,0.362962963,-0.101851852,1,0,0,4.5836,text_option_2,,0,17,17,107,1
6161d2a6b6dcc778b5b930bb,63f3cfca20052e4ae7554ebf,6453cd31bb21cf7feedba061,2023-05-04_17h23.27.834,ga_syllabified_check,2022.2.5,Win32,8,,,,,,,,,,,,,,./stim/p04_syllable_1_pachialo_hit.wav,p04,pachialo,hit,pa-chia-lo,pa-chia-lo,pa-chi-a-lo, ,-0.367592593,-0.096296296,1,0,0,2.0699,text_option_1,,0,18,18,58,1
6161d2a6b6dcc778b5b930bb,63f3cfca20052e4ae7554ebf,6453cd31bb21cf7feedba061,2023-05-04_17h23.27.834,ga_syllabified_check,2022.2.5,Win32,8,,,,,,,,,,,,,,./stim/p05_syllable_1_palufauto_hit.wav,p05,palufauto,hit,pa-lu-fau-to,pa-lu-fau-to,pa-lu-fa-u-to, ,-0.389814815,-0.106481481,1,0,0,5.9316,text_option_1,,0,19,19,94,1
6161d2a6b6dcc778b5b930bb,63f3cfca20052e4ae7554ebf,6453cd31bb21cf7feedba061,2023-05-04_17h23.27.834,ga_syllabified_check,2022.2.5,Win32,8,,,,,,,,,,,,,,./stim/p08_syllable_1_manhiala_hit.wav,p08,mañiala,hit,ma-nhia-la,ma-ñia-la,ma-ñi-a-la, ,-0.417592593,-0.103703704,1,0,0,3.3349,text_option_1,,0,20,20,191,1
6161d2a6b6dcc778b5b930bb,63f3cfca20052e4ae7554ebf,6453cd31bb21cf7feedba061,2023-05-04_17h23.27.834,ga_syllabified_check,2022.2.5,Win32,8,,,,,,,,,,,,,,./stim/p07_syllable_1_lakabuaisto_hit.wav,p07,lakabuaisto,hit,la-ka-buais-to,la-ka-buais-to,la-ka-bu-ais-to,la-ka-bua-is-to,-0.361111111,-0.102777778,1,0,0,4.799,text_option_1,,0,21,21,143,1
6161d2a6b6dcc778b5b930bb,63f3cfca20052e4ae7554ebf,6453cd31bb21cf7feedba061,2023-05-04_17h23.27.834,ga_syllabified_check,2022.2.5,Win32,8,,,,,,,,,,,,,,./stim/p05_syllable_1_palufauro_hit.wav,p05,palufauro,hit,pa-lu-fau-ro,pa-lu-fau-ro,pa-lu-fa-u-ro, ,-0.372222222,-0.094444444,1,0,0,2.7167,text_option_1,,0,22,22,93,1
6161d2a6b6dcc778b5b930bb,63f3cfca20052e4ae7554ebf,6453cd31bb21cf7feedba061,2023-05-04_17h23.27.834,ga_syllabified_check,2022.2.5,Win32,8,,,,,,,,,,,,,,./stim/p04_syllable_1_palufauro_hit.wav,p04,palufauro,hit,pa-lu-fau-ro,pa-lu-fau-ro,pa-lu-fa-u-ro, ,-0.369444444,-0.105555556,1,0,0,1.4074,text_option_1,,0,23,23,59,1
6161d2a6b6dcc778b5b930bb,63f3cfca20052e4ae7554ebf,6453cd31bb21cf7feedba061,2023-05-04_17h23.27.834,ga_syllabified_check,2022.2.5,Win32,8,,,,,,,,,,,,,,./stim/p06_syllable_1_costonhialo_hit.wav,p06,costoñialo,hit,cos-to-nhia-lo,cos-to-ñia-lo,cos-to-ñi-a-lo, ,-0.359259259,-0.111111111,1,0,0,3.9831,text_option_1,,0,24,24,103,1
6161d2a6b6dcc778b5b930bb,63f3cfca20052e4ae7554ebf,6453cd31bb21cf7feedba061,2023-05-04_17h23.27.834,ga_syllabified_check,2022.2.5,Win32,8,,,,,,,,,,,,,,./stim/p04_syllable_1_lakafiaisto_hit.wav,p04,lakafiaisto,hit,la-ka-fiais-to,la-ka-fiais-to,la-ka-fi-ais-to,la-ka-fia-is-to,-0.367592593,-0.100925926,1,0,0,3.6202,text_option_1,,0,25,25,44,1
6161d2a6b6dcc778b5b930bb,63f3cfca20052e4ae7554ebf,6453cd31bb21cf7feedba061,2023-05-04_17h23.27.834,ga_syllabified_check,2022.2.5,Win32,8,,,,,,,,,,,,,,./stim/p04_syllable_1_palufauto_hit.wav,p04,palufauto,hit,pa-lu-fau-to,pa-lu-fau-to,pa-lu-fa-u-to, ,-0.371296296,-0.10462963,1,0,0,2.0658,text_option_1,,0,26,26,60,1
6161d2a6b6dcc778b5b930bb,63f3cfca20052e4ae7554ebf,6453cd31bb21cf7feedba061,2023-05-04_17h23.27.834,ga_syllabified_check,2022.2.5,Win32,8,,,,,,,,,,,,,,./stim/p08_syllable_1_lakatuaisto_hit.wav,p08,lakatuaisto,hit,la-ka-tu-i-jis,la-ka-tuais-to,la-ka-tu-ais-to,la-ka-tua-is-to,0.398148148,-0.107407407,1,0,0,7.0257,text_option_2,,0,27,27,189,1
6161d2a6b6dcc778b5b930bb,63f3cfca20052e4ae7554ebf,6453cd31bb21cf7feedba061,2023-05-04_17h23.27.834,ga_syllabified_check,2022.2.5,Win32,8,,,,,,,,,,,,,,./stim/p04_syllable_1_lakatiaisto_hit.wav,p04,lakatiaisto,hit,la-ka-kiais-to,la-ka-tiais-to,la-ka-ti-ais-to,la-ka-tia-is-to,-0.408333333,-0.096296296,1,0,0,3.5295,text_option_1,,0,28,28,52,1
6161d2a6b6dcc778b5b930bb,63f3cfca20052e4ae7554ebf,6453cd31bb21cf7feedba061,2023-05-04_17h23.27.834,ga_syllabified_check,2022.2.5,Win32,8,,,,,,,,,,,,,,./stim/p05_syllable_1_palumaisto_hit.wav,p05,palumaisto,hit,pa-lu-mais-to,pa-lu-mais-to,pa-lu-ma-is-to, ,-0.397222222,-0.099074074,1,0,0,2.206,text_option_1,,0,29,29,96,1
6161d2a6b6dcc778b5b930bb,63f3cfca20052e4ae7554ebf,6453cd31bb21cf7feedba061,2023-05-04_17h23.27.834,ga_syllabified_check,2022.2.5,Win32,8,,,,,,,,,,,,,,./stim/p06_syllable_1_lakafuaisto_hit.wav,p06,lakafuaisto,hit,la-ka-fu-a-is,la-ka-fuais-to,la-ka-fu-ais-to,la-ka-fua-is-to,0.033333333,-0.10462963,1,0,0,5.5952,text_option_3,,0,30,30,113,1
6161d2a6b6dcc778b5b930bb,63f3cfca20052e4ae7554ebf,6453cd31bb21cf7feedba061,2023-05-04_17h23.27.834,ga_syllabified_check,2022.2.5,Win32,8,,,,,,,,,,,,,,./stim/p07_syllable_1_manhiala_hit.wav,p07,mañiala,hit,ma-nhia-la,ma-ñia-la,ma-ñi-a-la, ,-0.380555556,-0.111111111,1,0,0,2.7056,text_option_1,,0,31,31,157,1
6161d2a6b6dcc778b5b930bb,63f3cfca20052e4ae7554ebf,6453cd31bb21cf7feedba061,2023-05-04_17h23.27.834,ga_syllabified_check,2022.2.5,Win32,8,,,,,,,,,,,,,,./stim/p05_syllable_1_manhiala_hit.wav,p05,mañiala,hit,ma-nhia-la,ma-ñia-la,ma-ñi-a-la, ,-0.381481481,-0.101851852,1,0,0,1.0937,text_option_1,,0,32,32,89,1
6161d2a6b6dcc778b5b930bb,63f3cfca20052e4ae7554ebf,6453cd31bb21cf7feedba061,2023-05-04_17h23.27.834,ga_syllabified_check,2022.2.5,Win32,8,,,,,,,,,,,,,,./stim/p04_syllable_1_palumaisto_hit.wav,p04,palumaisto,hit,pa-lu-mais-to,pa-lu-mais-to,pa-lu-ma-is-to, ,-0.407407407,-0.101851852,1,0,0,5.4598,text_option_1,,0,33,33,62,1
6161d2a6b6dcc778b5b930bb,63f3cfca20052e4ae7554ebf,6453cd31bb21cf7feedba061,2023-05-04_17h23.27.834,ga_syllabified_check,2022.2.5,Win32,8,,,,,,,,,,,,,,./stim/p06_syllable_1_falutraigo_hit.wav,p06,falutraigo,hit,fa-lu-tra-i-go,fa-lu-trai-go,fa-lu-tra-i-go, ,0.40462963,-0.106481481,1,0,0,4.5993,text_option_2,,0,34,34,106,1
6161d2a6b6dcc778b5b930bb,63f3cfca20052e4ae7554ebf,6453cd31bb21cf7feedba061,2023-05-04_17h23.27.834,ga_syllabified_check,2022.2.5,Win32,8,,,,,,,,,,,,,,./stim/p08_syllable_1_lliape_hit.wav,p08,lliape,hit,li-a-pe,llia-pe,lli-a-pe, ,-0.419444444,-0.107407407,1,0,0,5.58,text_option_1,,0,35,35,190,1
6161d2a6b6dcc778b5b930bb,63f3cfca20052e4ae7554ebf,6453cd31bb21cf7feedba061,2023-05-04_17h23.27.834,ga_syllabified_check,2022.2.5,Win32,8,,,,,,,,,,,,,,./stim/p03_syllable_1_lakapuaisto_hit.wav,p03,lakapuaisto,hit,la-ka-puais-to,la-ka-puais-to,la-ka-pu-ais-to,la-ka-pua-is-to,-0.385185185,-0.101851852,1,0,0,2.1897,text_option_1,,0,36,36,17,1
6161d2a6b6dcc778b5b930bb,63f3cfca20052e4ae7554ebf,6453cd31bb21cf7feedba061,2023-05-04_17h23.27.834,ga_syllabified_check,2022.2.5,Win32,8,,,,,,,,,,,,,,./stim/p07_syllable_1_lakakuaisto_hit.wav,p07,lakakuaisto,hit,la-ka-kuais-to,la-ka-kuais-to,la-ka-ku-ais-to,la-ka-kua-is-to,-0.339814815,-0.112962963,1,0,0,2.86,text_option_1,,0,37,37,151,1
6161d2a6b6dcc778b5b930bb,63f3cfca20052e4ae7554ebf,6453cd31bb21cf7feedba061,2023-05-04_17h23.27.834,ga_syllabified_check,2022.2.5,Win32,8,,,,,,,,,,,,,,./stim/p07_syllable_1_palumaisto_hit.wav,p07,palumaisto,hit,pa-lu-mais-to,pa-lu-mais-to,pa-lu-ma-is-to, ,-0.372222222,-0.102777778,1,0,0,5.2265,text_option_1,,0,38,38,164,1
6161d2a6b6dcc778b5b930bb,63f3cfca20052e4ae7554ebf,6453cd31bb21cf7feedba061,2023-05-04_17h23.27.834,ga_syllabified_check,2022.2.5,Win32,8,,,,,,,,,,,,,,./stim/p03_syllable_1_palumaisto_hit.wav,p03,palumaisto,hit,pa-lu-mais-to,pa-lu-mais-to,pa-lu-ma-is-to, ,-0.333333333,-0.107407407,1,0,0,1.5677,text_option_1,,0,39,39,28,1
6161d2a6b6dcc778b5b930bb,63f3cfca20052e4ae7554ebf,6453cd31bb21cf7feedba061,2023-05-04_17h23.27.834,ga_syllabified_check,2022.2.5,Win32,8,,,,,,,,,,,,,,./stim/p08_syllable_1_payielo_hit.wav,p08,payielo,hit,pa-yie-lo,pa-yie-lo,pa-yi-e-lo, ,-0.40462963,-0.100925926,1,0,0,2.8892,text_option_1,,0,40,40,200,1
6161d2a6b6dcc778b5b930bb,63f3cfca20052e4ae7554ebf,6453cd31bb21cf7feedba061,2023-05-04_17h23.27.834,ga_syllabified_check,2022.2.5,Win32,8,,,,,,,,,,,,,,./stim/p05_syllable_1_lakakiaisto_hit.wav,p05,lakakiaisto,hit,la-ka-ki-ais-to,la-ka-kiais-to,la-ka-ki-ais-to,la-ka-kia-is-to,-0.381481481,-0.102777778,1,0,0,2.7204,text_option_1,,0,41,41,82,1
6161d2a6b6dcc778b5b930bb,63f3cfca20052e4ae7554ebf,6453cd31bb21cf7feedba061,2023-05-04_17h23.27.834,ga_syllabified_check,2022.2.5,Win32,8,,,,,,,,,,,,,,./stim/p03_syllable_1_lakadiaisto_hit.wav,p03,lakadiaisto,hit,la-ka-diais-to,la-ka-diais-to,la-ka-di-ais-to,la-ka-dia-is-to,-0.385185185,-0.100925926,1,0,0,4.1716,text_option_1,,0,42,42,8,1
6161d2a6b6dcc778b5b930bb,63f3cfca20052e4ae7554ebf,6453cd31bb21cf7feedba061,2023-05-04_17h23.27.834,ga_syllabified_check,2022.2.5,Win32,8,,,,,,,,,,,,,,./stim/p08_syllable_1_lakakiaisto_hit.wav,p08,lakakiaisto,hit,la-ka-ki-jas-to,la-ka-kiais-to,la-ka-ki-ais-to,la-ka-kia-is-to,0.394444444,-0.1,1,0,0,4.9665,text_option_2,,0,43,43,184,1
6161d2a6b6dcc778b5b930bb,63f3cfca20052e4ae7554ebf,6453cd31bb21cf7feedba061,2023-05-04_17h23.27.834,ga_syllabified_check,2022.2.5,Win32,8,,,,,,,,,,,,,,./stim/p06_syllable_1_lakaguaisto_hit.wav,p06,lakaguaisto,hit,la-ka-gu-a-is,la-ka-guais-to,la-ka-gu-ais-to,la-ka-gua-is-to,0.394444444,-0.1,1,0,0,7.1981,text_option_2,,0,44,44,115,1
6161d2a6b6dcc778b5b930bb,63f3cfca20052e4ae7554ebf,6453cd31bb21cf7feedba061,2023-05-04_17h23.27.834,ga_syllabified_check,2022.2.5,Win32,8,,,,,,,,,,,,,,./stim/p04_syllable_1_lakapuaisto_hit.wav,p04,lakapuaisto,hit,la-ka-puais-to,la-ka-puais-to,la-ka-pu-ais-to,la-ka-pua-is-to,-0.358333333,-0.107407407,1,0,0,2.8606,text_option_1,,0,45,45,51,1
6161d2a6b6dcc778b5b930bb,63f3cfca20052e4ae7554ebf,6453cd31bb21cf7feedba061,2023-05-04_17h23.27.834,ga_syllabified_check,2022.2.5,Win32,8,,,,,,,,,,,,,,./stim/p04_syllable_1_nhiape_hit.wav,p04,ñiape,hit,nhia-pe,ñia-pe,ñi-a-pe, ,-0.358333333,-0.107407407,1,0,0,0.9344,text_option_1,,0,46,46,57,1
6161d2a6b6dcc778b5b930bb,63f3cfca20052e4ae7554ebf,6453cd31bb21cf7feedba061,2023-05-04_17h23.27.834,ga_syllabified_check,2022.2.5,Win32,8,,,,,,,,,,,,,,./stim/p03_syllable_1_lliape_hit.wav,p03,lliape,hit,llia,llia-pe,lli-a-pe, ,-0.358333333,-0.107407407,1,0,0,1.1065,text_option_1,,0,47,47,20,1
6161d2a6b6dcc778b5b930bb,63f3cfca20052e4ae7554ebf,6453cd31bb21cf7feedba061,2023-05-04_17h23.27.834,ga_syllabified_check,2022.2.5,Win32,8,,,,,,,,,,,,,,./stim/p07_syllable_1_falutraigo_hit.wav,p07,falutraigo,hit,fa-lu-trai-go,fa-lu-trai-go,fa-lu-tra-i-go, ,-0.358333333,-0.107407407,1,0,0,2.8259,text_option_1,,0,48,48,140,1
6161d2a6b6dcc778b5b930bb,63f3cfca20052e4ae7554ebf,6453cd31bb21cf7feedba061,2023-05-04_17h23.27.834,ga_syllabified_check,2022.2.5,Win32,8,,,,,,,,,,,,,,./stim/p04_syllable_1_paluguato_hit.wav,p04,paluguato,hit,pa-lu-gua,pa-lu-gua-to,pa-lu-gu-a-to, ,0.034259259,-0.298148148,1,0,0,3.4724,text_option_other,palugua,0,49,49,61,1
6161d2a6b6dcc778b5b930bb,63f3cfca20052e4ae7554ebf,6453cd31bb21cf7feedba061,2023-05-04_17h23.27.834,ga_syllabified_check,2022.2.5,Win32,8,,,,,,,,,,,,,,./stim/p03_syllable_1_payielo_hit.wav,p03,payielo,hit,pa-yie-lo,pa-yie-lo,pa-yi-e-lo, ,-0.390740741,-0.105555556,1,0,0,1.6007,text_option_1,,0,50,50,30,1
6161d2a6b6dcc778b5b930bb,63f3cfca20052e4ae7554ebf,6453cd31bb21cf7feedba061,2023-05-04_17h23.27.834,ga_syllabified_check,2022.2.5,Win32,8,,,,,,,,,,,,,,./stim/p07_syllable_1_faluduako_hit.wav,p07,faluduako,hit,fa-lu-dua-ko,fa-lu-dua-ko,fa-lu-du-a-ko, ,-0.369444444,-0.102777778,1,0,0,2.9832,text_option_1,,0,51,51,138,1
6161d2a6b6dcc778b5b930bb,63f3cfca20052e4ae7554ebf,6453cd31bb21cf7feedba061,2023-05-04_17h23.27.834,ga_syllabified_check,2022.2.5,Win32,8,,,,,,,,,,,,,,./stim/p08_syllable_1_palufauto_hit.wav,p08,palufauto,hit,pa-lu-fau-to,pa-lu-fau-to,pa-lu-fa-u-to, ,-0.365740741,-0.1,1,0,0,3.3336,text_option_1,,0,52,52,196,1
6161d2a6b6dcc778b5b930bb,63f3cfca20052e4ae7554ebf,6453cd31bb21cf7feedba061,2023-05-04_17h23.27.834,ga_syllabified_check,2022.2.5,Win32,8,,,,,,,,,,,,,,./stim/p03_syllable_1_ruyiola_hit.wav,p03,ruyiola,hit,ru-yio-la,ru-yio-la,ru-yi-o-la, ,-0.366666667,-0.1,1,0,0,1.409,text_option_1,,0,53,53,32,1
6161d2a6b6dcc778b5b930bb,63f3cfca20052e4ae7554ebf,6453cd31bb21cf7feedba061,2023-05-04_17h23.27.834,ga_syllabified_check,2022.2.5,Win32,8,,,,,,,,,,,,,,./stim/p04_syllable_1_falutraigo_hit.wav,p04,falutraigo,hit,fa-lu-trai-go,fa-lu-trai-go,fa-lu-tra-i-go, ,-0.385185185,-0.101851852,1,0,0,2.9855,text_option_1,,0,54,54,38,1
6161d2a6b6dcc778b5b930bb,63f3cfca20052e4ae7554ebf,6453cd31bb21cf7feedba061,2023-05-04_17h23.27.834,ga_syllabified_check,2022.2.5,Win32,8,,,,,,,,,,,,,,./stim/p08_syllable_1_costonhialo_hit.wav,p08,costoñialo,hit,cos-to-nhia-lo,cos-to-ñia-lo,cos-to-ñi-a-lo, ,-0.385185185,-0.101851852,1,0,0,2.8699,text_option_1,,0,55,55,171,1
6161d2a6b6dcc778b5b930bb,63f3cfca20052e4ae7554ebf,6453cd31bb21cf7feedba061,2023-05-04_17h23.27.834,ga_syllabified_check,2022.2.5,Win32,8,,,,,,,,,,,,,,./stim/p03_syllable_1_lakakiaisto_hit.wav,p03,lakakiaisto,hit,la-ka-kiais-to,la-ka-kiais-to,la-ka-ki-ais-to,la-ka-kia-is-to,-0.385185185,-0.101851852,1,0,0,2.2669,text_option_1,,0,56,56,14,1
6161d2a6b6dcc778b5b930bb,63f3cfca20052e4ae7554ebf,6453cd31bb21cf7feedba061,2023-05-04_17h23.27.834,ga_syllabified_check,2022.2.5,Win32,8,,,,,,,,,,,,,,./stim/p07_syllable_1_costonhialo_hit.wav,p07,costoñialo,hit,cos-to-nhia-lo,cos-to-ñia-lo,cos-to-ñi-a-lo, ,-0.385185185,-0.101851852,1,0,0,2.5077,text_option_1,,0,57,57,137,1
6161d2a6b6dcc778b5b930bb,63f3cfca20052e4ae7554ebf,6453cd31bb21cf7feedba061,2023-05-04_17h23.27.834,ga_syllabified_check,2022.2.5,Win32,8,,,,,,,,,,,,,,./stim/p06_syllable_1_lakapuaisto_hit.wav,p06,lakapuaisto,hit,la-ka-pu-a-is,la-ka-puais-to,la-ka-pu-ais-to,la-ka-pua-is-to,0.30462963,-0.096296296,1,0,0,8.589,text_option_2,,0,58,58,119,1
6161d2a6b6dcc778b5b930bb,63f3cfca20052e4ae7554ebf,6453cd31bb21cf7feedba061,2023-05-04_17h23.27.834,ga_syllabified_check,2022.2.5,Win32,8,,,,,,,,,,,,,,./stim/p03_syllable_1_falufaisto_hit.wav,p03,falufaisto,hit,fa-lu-fais-to,fa-lu-fais-to,fa-lu-fa-is-to, ,-0.388888889,-0.096296296,1,0,0,3.3597,text_option_1,,0,59,59,3,1
6161d2a6b6dcc778b5b930bb,63f3cfca20052e4ae7554ebf,6453cd31bb21cf7feedba061,2023-05-04_17h23.27.834,ga_syllabified_check,2022.2.5,Win32,8,,,,,,,,,,,,,,./stim/p05_syllable_1_ruyiola_hit.wav,p05,ruyiola,hit,ru-yio-la,ru-yio-la,ru-yi-o-la, ,-0.390740741,-0.1,1,0,0,2.2187,text_option_1,,0,60,60,100,1
6161d2a6b6dcc778b5b930bb,63f3cfca20052e4ae7554ebf,6453cd31bb21cf7feedba061,2023-05-04_17h23.27.834,ga_syllabified_check,2022.2.5,Win32,8,,,,,,,,,,,,,,./stim/p06_syllable_1_faluduako_hit.wav,p06,faluduako,hit,fa-lu-dua-ko,fa-lu-dua-ko,fa-lu-du-a-ko, ,0.4,-0.105555556,1,0,0,4.4629,text_option_2,,0,61,61,104,1
6161d2a6b6dcc778b5b930bb,63f3cfca20052e4ae7554ebf,6453cd31bb21cf7feedba061,2023-05-04_17h23.27.834,ga_syllabified_check,2022.2.5,Win32,8,,,,,,,,,,,,,,./stim/p06_syllable_1_palumaisto_hit.wav,p06,palumaisto,hit,pa-lu-ma-is-to,pa-lu-mais-to,pa-lu-ma-is-to, ,0.410185185,-0.101851852,1,0,0,3.5254,text_option_2,,0,62,62,130,1
6161d2a6b6dcc778b5b930bb,63f3cfca20052e4ae7554ebf,6453cd31bb21cf7feedba061,2023-05-04_17h23.27.834,ga_syllabified_check,2022.2.5,Win32,8,,,,,,,,,,,,,,./stim/p04_syllable_1_payielo_hit.wav,p04,payielo,hit,pa-yie-lo,pa-yie-lo,pa-yi-e-lo, ,-0.4,-0.109259259,1,0,0,1.5874,text_option_1,,0,63,63,64,1
6161d2a6b6dcc778b5b930bb,63f3cfca20052e4ae7554ebf,6453cd31bb21cf7feedba061,2023-05-04_17h23.27.834,ga_syllabified_check,2022.2.5,Win32,8,,,,,,,,,,,,,,./stim/p04_syllable_1_lliape_hit.wav,p04,lliape,hit,lia-pe,llia-pe,lli-a-pe, ,-0.4,-0.109259259,1,0,0,0.9453,text_option_1,,0,64,64,54,1
6161d2a6b6dcc778b5b930bb,63f3cfca20052e4ae7554ebf,6453cd31bb21cf7feedba061,2023-05-04_17h23.27.834,ga_syllabified_check,2022.2.5,Win32,8,,,,,,,,,,,,,,./stim/p04_syllable_1_manhiala_hit.wav,p04,mañiala,hit,ma-nhia-la,ma-ñia-la,ma-ñi-a-la, ,-0.4,-0.109259259,1,0,0,1.5629,text_option_1,,0,65,65,55,1
6161d2a6b6dcc778b5b930bb,63f3cfca20052e4ae7554ebf,6453cd31bb21cf7feedba061,2023-05-04_17h23.27.834,ga_syllabified_check,2022.2.5,Win32,8,,,,,,,,,,,,,,./stim/p06_syllable_1_lakatiaisto_hit.wav,p06,lakatiaisto,hit,la-ka-pia-is-to,la-ka-tiais-to,la-ka-ti-ais-to,la-ka-tia-is-to,0.02962963,-0.099074074,1,0,0,3.8003,text_option_3,,0,66,66,120,1
6161d2a6b6dcc778b5b930bb,63f3cfca20052e4ae7554ebf,6453cd31bb21cf7feedba061,2023-05-04_17h23.27.834,ga_syllabified_check,2022.2.5,Win32,8,,,,,,,,,,,,,,./stim/p03_syllable_1_palufauro_hit.wav,p03,palufauro,hit,pa-lu-fau-ro,pa-lu-fau-ro,pa-lu-fa-u-ro, ,-0.37962963,-0.102777778,1,0,0,2.208,text_option_1,,0,67,67,25,1
6161d2a6b6dcc778b5b930bb,63f3cfca20052e4ae7554ebf,6453cd31bb21cf7feedba061,2023-05-04_17h23.27.834,ga_syllabified_check,2022.2.5,Win32,8,,,,,,,,,,,,,,./stim/p08_syllable_1_chiaba_hit.wav,p08,chiaba,hit,chi-a-ba,chia-ba,chi-a-ba, ,0.415740741,-0.112037037,1,0,0,2.1921,text_option_2,,0,68,68,170,1
6161d2a6b6dcc778b5b930bb,63f3cfca20052e4ae7554ebf,6453cd31bb21cf7feedba061,2023-05-04_17h23.27.834,ga_syllabified_check,2022.2.5,Win32,8,,,,,,,,,,,,,,./stim/p05_syllable_1_nhiape_hit.wav,p05,ñiape,hit,nhia-pe,ñia-pe,ñi-a-pe, ,-0.39537037,-0.108333333,1,0,0,0.9373,text_option_1,,0,69,69,91,1
6161d2a6b6dcc778b5b930bb,63f3cfca20052e4ae7554ebf,6453cd31bb21cf7feedba061,2023-05-04_17h23.27.834,ga_syllabified_check,2022.2.5,Win32,8,,,,,,,,,,,,,,./stim/p03_syllable_1_manhiala_hit.wav,p03,mañiala,hit,ma-nhia-la,ma-ñia-la,ma-ñi-a-la, ,-0.39537037,-0.108333333,1,0,0,1.9011,text_option_1,,0,70,70,21,1
6161d2a6b6dcc778b5b930bb,63f3cfca20052e4ae7554ebf,6453cd31bb21cf7feedba061,2023-05-04_17h23.27.834,ga_syllabified_check,2022.2.5,Win32,8,,,,,,,,,,,,,,./stim/p08_syllable_1_lakafiaisto_hit.wav,p08,lakafiaisto,hit,la-ka-fi-as-to,la-ka-fiais-to,la-ka-fi-ais-to,la-ka-fia-is-to,0.055555556,-0.110185185,1,0,0,3.7693,text_option_3,,0,71,71,180,1
6161d2a6b6dcc778b5b930bb,63f3cfca20052e4ae7554ebf,6453cd31bb21cf7feedba061,2023-05-04_17h23.27.834,ga_syllabified_check,2022.2.5,Win32,8,,,,,,,,,,,,,,./stim/p05_syllable_1_lakafiaisto_hit.wav,p05,lakafiaisto,hit,la-ka-fi-ais-to,la-ka-fiais-to,la-ka-fi-ais-to,la-ka-fia-is-to,0.007407407,-0.099074074,1,0,0,2.6932,text_option_3,,0,72,72,78,1
6161d2a6b6dcc778b5b930bb,63f3cfca20052e4ae7554ebf,6453cd31bb21cf7feedba061,2023-05-04_17h23.27.834,ga_syllabified_check,2022.2.5,Win32,8,,,,,,,,,,,,,,./stim/p07_syllable_1_lakafiaisto_hit.wav,p07,lakafiaisto,hit,la-ka-fiais-to,la-ka-fiais-to,la-ka-fi-ais-to,la-ka-fia-is-to,-0.059259259,-0.106481481,1,0,0,1.8786,text_option_3,,0,73,73,146,1
6161d2a6b6dcc778b5b930bb,63f3cfca20052e4ae7554ebf,6453cd31bb21cf7feedba061,2023-05-04_17h23.27.834,ga_syllabified_check,2022.2.5,Win32,8,,,,,,,,,,,,,,./stim/p08_syllable_1_lakafuaisto_hit.wav,p08,lakafuaisto,hit,la-ka-fju-ais-to,la-ka-fuais-to,la-ka-fu-ais-to,la-ka-fua-is-to,0.012037037,-0.107407407,1,0,0,4.711,text_option_3,,0,74,74,181,1
6161d2a6b6dcc778b5b930bb,63f3cfca20052e4ae7554ebf,6453cd31bb21cf7feedba061,2023-05-04_17h23.27.834,ga_syllabified_check,2022.2.5,Win32,8,,,,,,,,,,,,,,./stim/p05_syllable_1_falufaisto_hit.wav,p05,falufaisto,hit,fa-lu-fais-to,fa-lu-fais-to,fa-lu-fa-is-to, ,-0.357407407,-0.105555556,1,0,0,1.4299,text_option_1,,0,75,75,71,1
6161d2a6b6dcc778b5b930bb,63f3cfca20052e4ae7554ebf,6453cd31bb21cf7feedba061,2023-05-04_17h23.27.834,ga_syllabified_check,2022.2.5,Win32,8,,,,,,,,,,,,,,./stim/p03_syllable_1_falutraigo_hit.wav,p03,falutraigo,hit,fa-lu-trai-go,fa-lu-trai-go,fa-lu-tra-i-go, ,-0.375,-0.106481481,1,0,0,2.8464,text_option_1,,0,76,76,4,1
6161d2a6b6dcc778b5b930bb,63f3cfca20052e4ae7554ebf,6453cd31bb21cf7feedba061,2023-05-04_17h23.27.834,ga_syllabified_check,2022.2.5,Win32,8,,,,,,,,,,,,,,./stim/p04_syllable_1_lakatuaisto_hit.wav,p04,lakatuaisto,hit,la-ka-kuais-to,la-ka-tuais-to,la-ka-tu-ais-to,la-ka-tua-is-to,-0.375,-0.106481481,1,0,0,1.4139,text_option_1,,0,77,77,53,1
6161d2a6b6dcc778b5b930bb,63f3cfca20052e4ae7554ebf,6453cd31bb21cf7feedba061,2023-05-04_17h23.27.834,ga_syllabified_check,2022.2.5,Win32,8,,,,,,,,,,,,,,./stim/p04_syllable_1_rausto_hit.wav,p04,rausto,hit,raus-to,raus-to,ra-us-to, ,-0.375,-0.106481481,1,0,0,0.7819,text_option_1,,0,78,78,65,1
6161d2a6b6dcc778b5b930bb,63f3cfca20052e4ae7554ebf,6453cd31bb21cf7feedba061,2023-05-04_17h23.27.834,ga_syllabified_check,2022.2.5,Win32,8,,,,,,,,,,,,,,./stim/p06_syllable_1_lakabiaisto_hit.wav,p06,lakabiaisto,hit,la-ka-bia-is-to,la-ka-biais-to,la-ka-bi-ais-to,la-ka-bia-is-to,-0.018518519,-0.108333333,1,0,0,4.9003,text_option_3,,0,79,79,108,1
6161d2a6b6dcc778b5b930bb,63f3cfca20052e4ae7554ebf,6453cd31bb21cf7feedba061,2023-05-04_17h23.27.834,ga_syllabified_check,2022.2.5,Win32,8,,,,,,,,,,,,,,./stim/p07_syllable_1_lakapuaisto_hit.wav,p07,lakapuaisto,hit,la-ka-puais-to,la-ka-puais-to,la-ka-pu-ais-to,la-ka-pua-is-to,-0.342592593,-0.107407407,1,0,0,2.9956,text_option_1,,0,80,80,153,1
6161d2a6b6dcc778b5b930bb,63f3cfca20052e4ae7554ebf,6453cd31bb21cf7feedba061,2023-05-04_17h23.27.834,ga_syllabified_check,2022.2.5,Win32,8,,,,,,,,,,,,,,./stim/p07_syllable_1_lakafuaisto_hit.wav,p07,lakafuaisto,hit,la-ka-fuais-to,la-ka-fuais-to,la-ka-fu-ais-to,la-ka-fua-is-to,-0.342592593,-0.107407407,1,0,0,2.3477,text_option_1,,0,81,81,147,1
6161d2a6b6dcc778b5b930bb,63f3cfca20052e4ae7554ebf,6453cd31bb21cf7feedba061,2023-05-04_17h23.27.834,ga_syllabified_check,2022.2.5,Win32,8,,,,,,,,,,,,,,./stim/p03_syllable_1_tuliafo_hit.wav,p03,tuliafo,hit,tu-lia-fo,tu-lia-fo,tu-li-a-fo, ,-0.393518519,-0.105555556,1,0,0,2.0982,text_option_1,,0,82,82,33,1
6161d2a6b6dcc778b5b930bb,63f3cfca20052e4ae7554ebf,6453cd31bb21cf7feedba061,2023-05-04_17h23.27.834,ga_syllabified_check,2022.2.5,Win32,8,,,,,,,,,,,,,,./stim/p06_syllable_1_palutrauco_hit.wav,p06,palutrauco,hit,pa-lu-tra-u-co,pa-lu-trau-co,pa-lu-tra-u-co, ,0.409259259,-0.10462963,1,0,0,2.8343,text_option_2,,0,83,83,131,1
6161d2a6b6dcc778b5b930bb,63f3cfca20052e4ae7554ebf,6453cd31bb21cf7feedba061,2023-05-04_17h23.27.834,ga_syllabified_check,2022.2.5,Win32,8,,,,,,,,,,,,,,./stim/p08_syllable_1_lakapiaisto_hit.wav,p08,lakapiaisto,hit,la-ka-pi-as-to,la-ka-piais-to,la-ka-pi-ais-to,la-ka-pia-is-to,0.044444444,-0.099074074,1,0,0,3.1674,text_option_3,,0,84,84,186,1
6161d2a6b6dcc778b5b930bb,63f3cfca20052e4ae7554ebf,6453cd31bb21cf7feedba061,2023-05-04_17h23.27.834,ga_syllabified_check,2022.2.5,Win32,8,,,,,,,,,,,,,,./stim/p08_syllable_1_mebochiana_hit.wav,p08,mebochiana,hit,me-bo-chi-a-na,me-bo-chia-na,me-bo-chi-a-na, ,0.439814815,-0.105555556,1,0,0,2.544,text_option_2,,0,85,85,192,1
6161d2a6b6dcc778b5b930bb,63f3cfca20052e4ae7554ebf,6453cd31bb21cf7feedba061,2023-05-04_17h23.27.834,ga_syllabified_check,2022.2.5,Win32,8,,,,,,,,,,,,,,./stim/p07_syllable_1_lakatiaisto_hit.wav,p07,lakatiaisto,hit,la-ka-tiai-sto,la-ka-tiais-to,la-ka-ti-ais-to,la-ka-tia-is-to,0.07962963,-0.103703704,1,0,0,2.6953,text_option_3,,0,86,86,154,1
6161d2a6b6dcc778b5b930bb,63f3cfca20052e4ae7554ebf,6453cd31bb21cf7feedba061,2023-05-04_17h23.27.834,ga_syllabified_check,2022.2.5,Win32,8,,,,,,,,,,,,,,./stim/p08_syllable_1_lakapuaisto_hit.wav,p08,lakapuaisto,hit,la-ka-pu-as-to,la-ka-puais-to,la-ka-pu-ais-to,la-ka-pua-is-to,0.440740741,-0.107407407,1,0,0,3.9557,text_option_2,,0,87,87,187,1
6161d2a6b6dcc778b5b930bb,63f3cfca20052e4ae7554ebf,6453cd31bb21cf7feedba061,2023-05-04_17h23.27.834,ga_syllabified_check,2022.2.5,Win32,8,,,,,,,,,,,,,,./stim/p07_syllable_1_rausto_hit.wav,p07,rausto,hit,raus-to,raus-to,ra-us-to, ,-0.435185185,-0.099074074,1,0,0,2.0326,text_option_1,,0,88,88,167,1
6161d2a6b6dcc778b5b930bb,63f3cfca20052e4ae7554ebf,6453cd31bb21cf7feedba061,2023-05-04_17h23.27.834,ga_syllabified_check,2022.2.5,Win32,8,,,,,,,,,,,,,,./stim/p03_syllable_1_lakakuaisto_hit.wav,p03,lakakuaisto,hit,la-ka-kuais-to,la-ka-kuais-to,la-ka-ku-ais-to,la-ka-kua-is-to,-0.35462963,-0.101851852,1,0,0,1.7419,text_option_1,,0,89,89,15,1
6161d2a6b6dcc778b5b930bb,63f3cfca20052e4ae7554ebf,6453cd31bb21cf7feedba061,2023-05-04_17h23.27.834,ga_syllabified_check,2022.2.5,Win32,8,,,,,,,,,,,,,,./stim/p06_syllable_1_payielo_hit.wav,p06,payielo,hit,pa-yi-e-lo,pa-yie-lo,pa-yi-e-lo, ,0.425925926,-0.106481481,1,0,0,2.2037,text_option_2,,0,90,90,132,1
6161d2a6b6dcc778b5b930bb,63f3cfca20052e4ae7554ebf,6453cd31bb21cf7feedba061,2023-05-04_17h23.27.834,ga_syllabified_check,2022.2.5,Win32,8,,,,,,,,,,,,,,./stim/p08_syllable_1_palutrauco_hit.wav,p08,palutrauco,hit,pa-lu-trau-ko,pa-lu-trau-co,pa-lu-tra-u-co, ,-0.37962963,-0.096296296,1,0,0,3.1431,text_option_1,,0,91,91,199,1
6161d2a6b6dcc778b5b930bb,63f3cfca20052e4ae7554ebf,6453cd31bb21cf7feedba061,2023-05-04_17h23.27.834,ga_syllabified_check,2022.2.5,Win32,8,,,,,,,,,,,,,,./stim/p03_syllable_1_palufauto_hit.wav,p03,palufauto,hit,pa-lu-fau,pa-lu-fau-to,pa-lu-fa-u-to, ,-0.37962963,-0.096296296,1,0,0,2.3604,text_option_1,,0,92,92,26,1
6161d2a6b6dcc778b5b930bb,63f3cfca20052e4ae7554ebf,6453cd31bb21cf7feedba061,2023-05-04_17h23.27.834,ga_syllabified_check,2022.2.5,Win32,8,,,,,,,,,,,,,,./stim/p03_syllable_1_palutrauco_hit.wav,p03,palutrauco,hit,pa-lu-trau-co,pa-lu-trau-co,pa-lu-tra-u-co, ,-0.37962963,-0.096296296,1,0,0,1.7236,text_option_1,,0,93,93,29,1
6161d2a6b6dcc778b5b930bb,63f3cfca20052e4ae7554ebf,6453cd31bb21cf7feedba061,2023-05-04_17h23.27.834,ga_syllabified_check,2022.2.5,Win32,8,,,,,,,,,,,,,,./stim/p08_syllable_1_falufaisto_hit.wav,p08,falufaisto,hit,fa-lu-fais-to,fa-lu-fais-to,fa-lu-fa-is-to, ,-0.37962963,-0.096296296,1,0,0,2.5309,text_option_1,,0,94,94,173,1
6161d2a6b6dcc778b5b930bb,63f3cfca20052e4ae7554ebf,6453cd31bb21cf7feedba061,2023-05-04_17h23.27.834,ga_syllabified_check,2022.2.5,Win32,8,,,,,,,,,,,,,,./stim/p07_syllable_1_falufaisto_hit.wav,p07,falufaisto,hit,fa-lu-fais-to,fa-lu-fais-to,fa-lu-fa-is-to, ,-0.361111111,-0.107407407,1,0,0,2.3954,text_option_1,,0,95,95,139,1
6161d2a6b6dcc778b5b930bb,63f3cfca20052e4ae7554ebf,6453cd31bb21cf7feedba061,2023-05-04_17h23.27.834,ga_syllabified_check,2022.2.5,Win32,8,,,,,,,,,,,,,,./stim/p08_syllable_1_lakabiaisto_hit.wav,p08,lakabiaisto,hit,la-ka-bi-as-to,la-ka-biais-to,la-ka-bi-ais-to,la-ka-bia-is-to,0.425925926,-0.103703704,1,0,0,4.2861,text_option_2,,0,96,96,176,1
6161d2a6b6dcc778b5b930bb,63f3cfca20052e4ae7554ebf,6453cd31bb21cf7feedba061,2023-05-04_17h23.27.834,ga_syllabified_check,2022.2.5,Win32,8,,,,,,,,,,,,,,./stim/p05_syllable_1_chiaba_hit.wav,p05,chiaba,hit,chia-ba,chia-ba,chi-a-ba, ,-0.399074074,-0.107407407,1,0,0,1.0906,text_option_1,,0,97,97,68,1
6161d2a6b6dcc778b5b930bb,63f3cfca20052e4ae7554ebf,6453cd31bb21cf7feedba061,2023-05-04_17h23.27.834,ga_syllabified_check,2022.2.5,Win32,8,,,,,,,,,,,,,,./stim/p04_syllable_1_chiaba_hit.wav,p04,chiaba,hit,chia-ba,chia-ba,chi-a-ba, ,-0.428703704,-0.100925926,1,0,0,0.8076,text_option_1,,0,98,98,34,1
6161d2a6b6dcc778b5b930bb,63f3cfca20052e4ae7554ebf,6453cd31bb21cf7feedba061,2023-05-04_17h23.27.834,ga_syllabified_check,2022.2.5,Win32,8,,,,,,,,,,,,,,./stim/p07_syllable_1_lliape_hit.wav,p07,lliape,hit,lliai-pe,llia-pe,lli-a-pe, ,-0.428703704,-0.100925926,1,0,0,1.1362,text_option_1,,0,99,99,156,1
6161d2a6b6dcc778b5b930bb,63f3cfca20052e4ae7554ebf,6453cd31bb21cf7feedba061,2023-05-04_17h23.27.834,ga_syllabified_check,2022.2.5,Win32,8,,,,,,,,,,,,,,./stim/p08_syllable_1_palufauro_hit.wav,p08,palufauro,hit,pa-lu-fau-ro,pa-lu-fau-ro,pa-lu-fa-u-ro, ,-0.428703704,-0.100925926,1,0,0,2.6544,text_option_1,,0,100,100,195,1
6161d2a6b6dcc778b5b930bb,63f3cfca20052e4ae7554ebf,6453cd31bb21cf7feedba061,2023-05-04_17h23.27.834,ga_syllabified_check,2022.2.5,Win32,8,,,,,,,,,,,,,,./stim/p07_syllable_1_lakakiaisto_hit.wav,p07,lakakiaisto,hit,la-ka-kais-to,la-ka-kiais-to,la-ka-ki-ais-to,la-ka-kia-is-to,0.034259259,-0.101851852,1,0,0,4.7873,text_option_3,,0,101,101,150,1
6161d2a6b6dcc778b5b930bb,63f3cfca20052e4ae7554ebf,6453cd31bb21cf7feedba061,2023-05-04_17h23.27.834,ga_syllabified_check,2022.2.5,Win32,8,,,,,,,,,,,,,,./stim/p04_syllable_1_lakakuaisto_hit.wav,p04,lakakuaisto,hit,la-ka-kuais-to,la-ka-kuais-to,la-ka-ku-ais-to,la-ka-kua-is-to,-0.374074074,-0.103703704,1,0,0,4.4787,text_option_1,,0,102,102,49,1
6161d2a6b6dcc778b5b930bb,63f3cfca20052e4ae7554ebf,6453cd31bb21cf7feedba061,2023-05-04_17h23.27.834,ga_syllabified_check,2022.2.5,Win32,8,,,,,,,,,,,,,,./stim/p07_syllable_1_ruyiola_hit.wav,p07,ruyiola,hit,ru-yio-la,ru-yio-la,ru-yi-o-la, ,-0.374074074,-0.103703704,1,0,0,2.8242,text_option_1,,0,103,103,168,1
6161d2a6b6dcc778b5b930bb,63f3cfca20052e4ae7554ebf,6453cd31bb21cf7feedba061,2023-05-04_17h23.27.834,ga_syllabified_check,2022.2.5,Win32,8,,,,,,,,,,,,,,./stim/p08_syllable_1_falutraigo_hit.wav,p08,falutraigo,hit,fa-lu-trai-go,fa-lu-trai-go,fa-lu-tra-i-go, ,-0.4,-0.092592593,1,0,0,2.2545,text_option_1,,0,104,104,174,1
6161d2a6b6dcc778b5b930bb,63f3cfca20052e4ae7554ebf,6453cd31bb21cf7feedba061,2023-05-04_17h23.27.834,ga_syllabified_check,2022.2.5,Win32,8,,,,,,,,,,,,,,./stim/p08_syllable_1_flauro_hit.wav,p08,flauro,hit,flau-ro,flau-ro,fla-u-ro, ,-0.423148148,-0.102777778,1,0,0,1.1159,text_option_1,,0,105,105,175,1
6161d2a6b6dcc778b5b930bb,63f3cfca20052e4ae7554ebf,6453cd31bb21cf7feedba061,2023-05-04_17h23.27.834,ga_syllabified_check,2022.2.5,Win32,8,,,,,,,,,,,,,,./stim/p07_syllable_1_palutrauco_hit.wav,p07,palutrauco,hit,pa-lu-trau-co,pa-lu-trau-co,pa-lu-tra-u-co, ,-0.355555556,-0.111111111,1,0,0,3.0655,text_option_1,,0,106,106,165,1
6161d2a6b6dcc778b5b930bb,63f3cfca20052e4ae7554ebf,6453cd31bb21cf7feedba061,2023-05-04_17h23.27.834,ga_syllabified_check,2022.2.5,Win32,8,,,,,,,,,,,,,,./stim/p05_syllable_1_lakabuaisto_hit.wav,p05,lakabuaisto,hit,la-ka-buais-to,la-ka-buais-to,la-ka-bu-ais-to,la-ka-bua-is-to,-0.355555556,-0.111111111,1,0,0,1.7375,text_option_1,,0,107,107,75,1
6161d2a6b6dcc778b5b930bb,63f3cfca20052e4ae7554ebf,6453cd31bb21cf7feedba061,2023-05-04_17h23.27.834,ga_syllabified_check,2022.2.5,Win32,8,,,,,,,,,,,,,,./stim/p04_syllable_1_lakabuaisto_hit.wav,p04,lakabuaisto,hit,la-ka-buais-to,la-ka-buais-to,la-ka-bu-ais-to,la-ka-bua-is-to,-0.364814815,-0.1,1,0,0,1.1592,text_option_1,,0,108,108,41,1
6161d2a6b6dcc778b5b930bb,63f3cfca20052e4ae7554ebf,6453cd31bb21cf7feedba061,2023-05-04_17h23.27.834,ga_syllabified_check,2022.2.5,Win32,8,,,,,,,,,,,,,,./stim/p05_syllable_1_costonhialo_hit.wav,p05,costoñialo,hit,cos-to-nhia-lo,cos-to-ñia-lo,cos-to-ñi-a-lo, ,-0.364814815,-0.1,1,0,0,1.8823,text_option_1,,0,109,109,69,1
6161d2a6b6dcc778b5b930bb,63f3cfca20052e4ae7554ebf,6453cd31bb21cf7feedba061,2023-05-04_17h23.27.834,ga_syllabified_check,2022.2.5,Win32,8,,,,,,,,,,,,,,./stim/p06_syllable_1_rausto_hit.wav,p06,rausto,hit,ra-us-to,raus-to,ra-us-to, ,0.409259259,-0.102777778,1,0,0,2.0777,text_option_2,,0,110,110,133,1
6161d2a6b6dcc778b5b930bb,63f3cfca20052e4ae7554ebf,6453cd31bb21cf7feedba061,2023-05-04_17h23.27.834,ga_syllabified_check,2022.2.5,Win32,8,,,,,,,,,,,,,,./stim/p05_syllable_1_falutraigo_hit.wav,p05,falutraigo,hit,fa-lu-trai-go,fa-lu-trai-go,fa-lu-tra-i-go, ,-0.367592593,-0.108333333,1,0,0,1.4172,text_option_1,,0,111,111,72,1
6161d2a6b6dcc778b5b930bb,63f3cfca20052e4ae7554ebf,6453cd31bb21cf7feedba061,2023-05-04_17h23.27.834,ga_syllabified_check,2022.2.5,Win32,8,,,,,,,,,,,,,,./stim/p05_syllable_1_lakaduaisto_hit.wav,p05,lakaduaisto,hit,la-ka-dais-to,la-ka-duais-to,la-ka-du-ais-to,la-ka-dua-is-to,0.403703704,-0.112037037,1,0,0,2.8666,text_option_2,,0,112,112,77,1
6161d2a6b6dcc778b5b930bb,63f3cfca20052e4ae7554ebf,6453cd31bb21cf7feedba061,2023-05-04_17h23.27.834,ga_syllabified_check,2022.2.5,Win32,8,,,,,,,,,,,,,,./stim/p07_syllable_1_payielo_hit.wav,p07,payielo,hit,pa-yie-lo,pa-yie-lo,pa-yi-e-lo, ,0.403703704,-0.112037037,1,0,0,1.8537,text_option_2,,0,113,113,166,1
6161d2a6b6dcc778b5b930bb,63f3cfca20052e4ae7554ebf,6453cd31bb21cf7feedba061,2023-05-04_17h23.27.834,ga_syllabified_check,2022.2.5,Win32,8,,,,,,,,,,,,,,./stim/p03_syllable_1_lakafiaisto_hit.wav,p03,lakafiaisto,hit,la-ka-fiais-to,la-ka-fiais-to,la-ka-fi-ais-to,la-ka-fia-is-to,-0.356481481,-0.109259259,1,0,0,1.6052,text_option_1,,0,114,114,10,1
6161d2a6b6dcc778b5b930bb,63f3cfca20052e4ae7554ebf,6453cd31bb21cf7feedba061,2023-05-04_17h23.27.834,ga_syllabified_check,2022.2.5,Win32,8,,,,,,,,,,,,,,./stim/p03_syllable_1_costonhialo_hit.wav,p03,costoñialo,hit,cos-to-nhia-lo,cos-to-ñia-lo,cos-to-ñi-a-lo, ,-0.356481481,-0.109259259,1,0,0,1.8948,text_option_1,,0,115,115,1,1
6161d2a6b6dcc778b5b930bb,63f3cfca20052e4ae7554ebf,6453cd31bb21cf7feedba061,2023-05-04_17h23.27.834,ga_syllabified_check,2022.2.5,Win32,8,,,,,,,,,,,,,,./stim/p08_syllable_1_lakaduaisto_hit.wav,p08,lakaduaisto,hit,la-ka-du-ais-to,la-ka-duais-to,la-ka-du-ais-to,la-ka-dua-is-to,0.035185185,-0.102777778,1,0,0,2.8652,text_option_3,,0,116,116,179,1
6161d2a6b6dcc778b5b930bb,63f3cfca20052e4ae7554ebf,6453cd31bb21cf7feedba061,2023-05-04_17h23.27.834,ga_syllabified_check,2022.2.5,Win32,8,,,,,,,,,,,,,,./stim/p04_syllable_1_flauro_hit.wav,p04,flauro,hit,flau-ro,flau-ro,fla-u-ro, ,0.406481481,-0.107407407,1,0,0,1.4391,text_option_2,,0,117,117,39,1
6161d2a6b6dcc778b5b930bb,63f3cfca20052e4ae7554ebf,6453cd31bb21cf7feedba061,2023-05-04_17h23.27.834,ga_syllabified_check,2022.2.5,Win32,8,,,,,,,,,,,,,,./stim/p04_syllable_1_tuliafo_hit.wav,p04,tuliafo,hit,tu-lia-fo,tu-lia-fo,tu-li-a-fo, ,-0.376851852,-0.111111111,1,0,0,0.9807,text_option_1,,0,118,118,67,1
6161d2a6b6dcc778b5b930bb,63f3cfca20052e4ae7554ebf,6453cd31bb21cf7feedba061,2023-05-04_17h23.27.834,ga_syllabified_check,2022.2.5,Win32,8,,,,,,,,,,,,,,./stim/p04_syllable_1_lakadiaisto_hit.wav,p04,lakadiaisto,hit,la-ka-dias-to,la-ka-diais-to,la-ka-di-ais-to,la-ka-dia-is-to,-0.376851852,-0.111111111,1,0,0,1.8818,text_option_1,,0,119,119,42,1
6161d2a6b6dcc778b5b930bb,63f3cfca20052e4ae7554ebf,6453cd31bb21cf7feedba061,2023-05-04_17h23.27.834,ga_syllabified_check,2022.2.5,Win32,8,,,,,,,,,,,,,,./stim/p07_syllable_1_lakabiaisto_hit.wav,p07,lakabiaisto,hit,la-ka-bais-to,la-ka-biais-to,la-ka-bi-ais-to,la-ka-bia-is-to,0.482407407,-0.111111111,1,0,0,2.9035,text_option_2,,0,120,120,142,1
6161d2a6b6dcc778b5b930bb,63f3cfca20052e4ae7554ebf,6453cd31bb21cf7feedba061,2023-05-04_17h23.27.834,ga_syllabified_check,2022.2.5,Win32,8,,,,,,,,,,,,,,./stim/p06_syllable_1_paluguato_hit.wav,p06,paluguato,hit,pa-lu-gua-to,pa-lu-gua-to,pa-lu-gu-a-to, ,-0.342592593,-0.106481481,1,0,0,2.6873,text_option_1,,0,121,121,129,1
6161d2a6b6dcc778b5b930bb,63f3cfca20052e4ae7554ebf,6453cd31bb21cf7feedba061,2023-05-04_17h23.27.834,ga_syllabified_check,2022.2.5,Win32,8,,,,,,,,,,,,,,./stim/p03_syllable_1_nhiape_hit.wav,p03,ñiape,hit,nhia-pe,ñia-pe,ñi-a-pe, ,-0.367592593,-0.109259259,1,0,0,0.944,text_option_1,,0,122,122,23,1
6161d2a6b6dcc778b5b930bb,63f3cfca20052e4ae7554ebf,6453cd31bb21cf7feedba061,2023-05-04_17h23.27.834,ga_syllabified_check,2022.2.5,Win32,8,,,,,,,,,,,,,,./stim/p04_syllable_1_palutrauco_hit.wav,p04,palutrauco,hit,pa-lu-trau-co,pa-lu-trau-co,pa-lu-tra-u-co, ,-0.367592593,-0.109259259,1,0,0,1.1084,text_option_1,,0,123,123,63,1
6161d2a6b6dcc778b5b930bb,63f3cfca20052e4ae7554ebf,6453cd31bb21cf7feedba061,2023-05-04_17h23.27.834,ga_syllabified_check,2022.2.5,Win32,8,,,,,,,,,,,,,,./stim/p06_syllable_1_lakaduaisto_hit.wav,p06,lakaduaisto,hit,la-ka-du-a-is,la-ka-duais-to,la-ka-du-ais-to,la-ka-dua-is-to,0.408333333,-0.10462963,1,0,0,3.6432,text_option_2,,0,124,124,111,1
6161d2a6b6dcc778b5b930bb,63f3cfca20052e4ae7554ebf,6453cd31bb21cf7feedba061,2023-05-04_17h23.27.834,ga_syllabified_check,2022.2.5,Win32,8,,,,,,,,,,,,,,./stim/p03_syllable_1_lakabuaisto_hit.wav,p03,lakabuaisto,hit,la-ka-buais-to,la-ka-buais-to,la-ka-bu-ais-to,la-ka-bua-is-to,-0.369444444,-0.098148148,1,0,0,2.4403,text_option_1,,0,125,125,7,1
6161d2a6b6dcc778b5b930bb,63f3cfca20052e4ae7554ebf,6453cd31bb21cf7feedba061,2023-05-04_17h23.27.834,ga_syllabified_check,2022.2.5,Win32,8,,,,,,,,,,,,,,./stim/p06_syllable_1_ruyiola_hit.wav,p06,ruyiola,hit,ru-yi-o-la,ru-yio-la,ru-yi-o-la, ,0.448148148,-0.098148148,1,0,0,1.8843,text_option_2,,0,126,126,134,1
6161d2a6b6dcc778b5b930bb,63f3cfca20052e4ae7554ebf,6453cd31bb21cf7feedba061,2023-05-04_17h23.27.834,ga_syllabified_check,2022.2.5,Win32,8,,,,,,,,,,,,,,./stim/p08_syllable_1_tuliafo_hit.wav,p08,tuliafo,hit,tu-li-a-fo,tu-lia-fo,tu-li-a-fo, ,0.448148148,-0.098148148,1,0,0,1.5731,text_option_2,,0,127,127,203,1
6161d2a6b6dcc778b5b930bb,63f3cfca20052e4ae7554ebf,6453cd31bb21cf7feedba061,2023-05-04_17h23.27.834,ga_syllabified_check,2022.2.5,Win32,8,,,,,,,,,,,,,,./stim/p05_syllable_1_rausto_hit.wav,p05,rausto,hit,raus-to,raus-to,ra-us-to, ,-0.4,-0.102777778,1,0,0,0.7899,text_option_1,,0,128,128,99,1
6161d2a6b6dcc778b5b930bb,63f3cfca20052e4ae7554ebf,6453cd31bb21cf7feedba061,2023-05-04_17h23.27.834,ga_syllabified_check,2022.2.5,Win32,8,,,,,,,,,,,,,,./stim/p07_syllable_1_palufauro_hit.wav,p07,palufauro,hit,pa-lu-fau-ro,pa-lu-fau-ro,pa-lu-fa-u-ro, ,0.421296296,-0.105555556,1,0,0,2.3785,text_option_2,,0,129,129,161,1
6161d2a6b6dcc778b5b930bb,63f3cfca20052e4ae7554ebf,6453cd31bb21cf7feedba061,2023-05-04_17h23.27.834,ga_syllabified_check,2022.2.5,Win32,8,,,,,,,,,,,,,,./stim/p04_syllable_1_mebochiana_hit.wav,p04,mebochiana,hit,me-bo-chia-na,me-bo-chia-na,me-bo-chi-a-na, ,0.421296296,-0.105555556,1,0,0,1.572,text_option_2,,0,130,130,56,1
6161d2a6b6dcc778b5b930bb,63f3cfca20052e4ae7554ebf,6453cd31bb21cf7feedba061,2023-05-04_17h23.27.834,ga_syllabified_check,2022.2.5,Win32,8,,,,,,,,,,,,,,./stim/p08_syllable_1_faluduako_hit.wav,p08,faluduako,hit,fa-lu-duai-ko,fa-lu-dua-ko,fa-lu-du-a-ko, ,0.421296296,-0.105555556,1,0,0,2.4964,text_option_2,,0,131,131,172,1
6161d2a6b6dcc778b5b930bb,63f3cfca20052e4ae7554ebf,6453cd31bb21cf7feedba061,2023-05-04_17h23.27.834,ga_syllabified_check,2022.2.5,Win32,8,,,,,,,,,,,,,,./stim/p06_syllable_1_manhiala_hit.wav,p06,mañiala,hit,ma-nhi-a-la,ma-ñia-la,ma-ñi-a-la, ,0.436111111,-0.092592593,1,0,0,2.8424,text_option_2,,0,132,132,123,1
6161d2a6b6dcc778b5b930bb,63f3cfca20052e4ae7554ebf,6453cd31bb21cf7feedba061,2023-05-04_17h23.27.834,ga_syllabified_check,2022.2.5,Win32,8,,,,,,,,,,,,,,./stim/p06_syllable_1_lakadiaisto_hit.wav,p06,lakadiaisto,hit,la-ka-dia-is-to,la-ka-diais-to,la-ka-di-ais-to,la-ka-dia-is-to,0.443518519,-0.101851852,1,0,0,4.3017,text_option_2,,0,133,133,110,1
6161d2a6b6dcc778b5b930bb,63f3cfca20052e4ae7554ebf,6453cd31bb21cf7feedba061,2023-05-04_17h23.27.834,ga_syllabified_check,2022.2.5,Win32,8,,,,,,,,,,,,,,./stim/p06_syllable_1_lakatuaisto_hit.wav,p06,lakatuaisto,hit,la-ka-tu-a-is,la-ka-tuais-to,la-ka-tu-ais-to,la-ka-tua-is-to,0.423148148,-0.101851852,1,0,0,3.6643,text_option_2,,0,134,134,121,1
6161d2a6b6dcc778b5b930bb,63f3cfca20052e4ae7554ebf,6453cd31bb21cf7feedba061,2023-05-04_17h23.27.834,ga_syllabified_check,2022.2.5,Win32,8,,,,,,,,,,,,,,./stim/p05_syllable_1_lliape_hit.wav,p05,lliape,hit,liai-pe,llia-pe,lli-a-pe, ,0.423148148,-0.101851852,1,0,0,1.6065,text_option_2,,0,135,135,88,1
6161d2a6b6dcc778b5b930bb,63f3cfca20052e4ae7554ebf,6453cd31bb21cf7feedba061,2023-05-04_17h23.27.834,ga_syllabified_check,2022.2.5,Win32,8,,,,,,,,,,,,,,./stim/p08_syllable_1_nhiape_hit.wav,p08,ñiape,hit,ni-a-pe,ñia-pe,ñi-a-pe, ,-0.401851852,-0.101851852,1,0,0,1.9121,text_option_1,,0,136,136,193,1
6161d2a6b6dcc778b5b930bb,63f3cfca20052e4ae7554ebf,6453cd31bb21cf7feedba061,2023-05-04_17h23.27.834,ga_syllabified_check,2022.2.5,Win32,8,,,,,,,,,,,,,,./stim/p04_syllable_1_faluduako_hit.wav,p04,faluduako,hit,fa-lu-dua-ko,fa-lu-dua-ko,fa-lu-du-a-ko, ,0.425925926,-0.105555556,1,0,0,1.7214,text_option_2,,0,137,137,36,1
6161d2a6b6dcc778b5b930bb,63f3cfca20052e4ae7554ebf,6453cd31bb21cf7feedba061,2023-05-04_17h23.27.834,ga_syllabified_check,2022.2.5,Win32,8,,,,,,,,,,,,,,./stim/p05_syllable_1_flauro_hit.wav,p05,flauro,hit,fa-lu-ro,flau-ro,fla-u-ro, ,0.025925926,-0.298148148,1,0,0,5.2721,text_option_other,faluro,0,138,138,73,1
6161d2a6b6dcc778b5b930bb,63f3cfca20052e4ae7554ebf,6453cd31bb21cf7feedba061,2023-05-04_17h23.27.834,ga_syllabified_check,2022.2.5,Win32,8,,,,,,,,,,,,,,./stim/p04_syllable_1_costonhialo_hit.wav,p04,costoñialo,hit,cos-to-nhia-lo,cos-to-ñia-lo,cos-to-ñi-a-lo, ,0.413888889,-0.105555556,1,0,0,3.3818,text_option_2,,0,139,139,35,1
6161d2a6b6dcc778b5b930bb,63f3cfca20052e4ae7554ebf,6453cd31bb21cf7feedba061,2023-05-04_17h23.27.834,ga_syllabified_check,2022.2.5,Win32,8,,,,,,,,,,,,,,./stim/p06_syllable_1_pachialo_hit.wav,p06,pachialo,hit,pa-shi-a-lo,pa-chia-lo,pa-chi-a-lo, ,0.413888889,-0.105555556,1,0,0,1.7247,text_option_2,,0,140,140,126,1
6161d2a6b6dcc778b5b930bb,63f3cfca20052e4ae7554ebf,6453cd31bb21cf7feedba061,2023-05-04_17h23.27.834,ga_syllabified_check,2022.2.5,Win32,8,,,,,,,,,,,,,,./stim/p05_syllable_1_lakabiaisto_hit.wav,p05,lakabiaisto,hit,la-ka-bi-ais-to,la-ka-biais-to,la-ka-bi-ais-to,la-ka-bia-is-to,0.055555556,-0.110185185,1,0,0,3.8019,text_option_3,,0,141,141,74,1
6161d2a6b6dcc778b5b930bb,63f3cfca20052e4ae7554ebf,6453cd31bb21cf7feedba061,2023-05-04_17h23.27.834,ga_syllabified_check,2022.2.5,Win32,8,,,,,,,,,,,,,,./stim/p04_syllable_1_falufaisto_hit.wav,p04,falufaisto,hit,fa-lu-fais-to,fa-lu-fais-to,fa-lu-fa-is-to, ,-0.325,-0.112962963,1,0,0,1.2607,text_option_1,,0,142,142,37,1
6161d2a6b6dcc778b5b930bb,63f3cfca20052e4ae7554ebf,6453cd31bb21cf7feedba061,2023-05-04_17h23.27.834,ga_syllabified_check,2022.2.5,Win32,8,,,,,,,,,,,,,,./stim/p05_syllable_1_lakaguaisto_hit.wav,p05,lakaguaisto,hit,la-ka-gais,la-ka-guais-to,la-ka-gu-ais-to,la-ka-gua-is-to,-0.001851852,-0.3,1,0,0,1.7632,text_option_other,lakakaisto,0,143,143,81,1
6161d2a6b6dcc778b5b930bb,63f3cfca20052e4ae7554ebf,6453cd31bb21cf7feedba061,2023-05-04_17h23.27.834,ga_syllabified_check,2022.2.5,Win32,8,,,,,,,,,,,,,,./stim/p07_syllable_1_tuliafo_hit.wav,p07,tuliafo,hit,tu-lia-fo,tu-lia-fo,tu-li-a-fo, ,-0.384259259,-0.10462963,1,0,0,1.5859,text_option_1,,0,144,144,169,1
6161d2a6b6dcc778b5b930bb,63f3cfca20052e4ae7554ebf,6453cd31bb21cf7feedba061,2023-05-04_17h23.27.834,ga_syllabified_check,2022.2.5,Win32,8,,,,,,,,,,,,,,./stim/p03_syllable_1_lakagiaisto_hit.wav,p03,lakagiaisto,hit,la-ka-giais-to,la-ka-giais-to,la-ka-gi-ais-to,la-ka-gia-is-to,-0.372222222,-0.102777778,1,0,0,1.9099,text_option_1,,0,145,145,12,1
6161d2a6b6dcc778b5b930bb,63f3cfca20052e4ae7554ebf,6453cd31bb21cf7feedba061,2023-05-04_17h23.27.834,ga_syllabified_check,2022.2.5,Win32,8,,,,,,,,,,,,,,./stim/p05_syllable_1_lakatiaisto_hit.wav,p05,lakatiaisto,hit,la-ka-ti-ais-to,la-ka-tiais-to,la-ka-ti-ais-to,la-ka-tia-is-to,0.010185185,-0.105555556,1,0,0,1.7504,text_option_3,,0,146,146,86,1
6161d2a6b6dcc778b5b930bb,63f3cfca20052e4ae7554ebf,6453cd31bb21cf7feedba061,2023-05-04_17h23.27.834,ga_syllabified_check,2022.2.5,Win32,8,,,,,,,,,,,,,,./stim/p07_syllable_1_lakaguaisto_hit.wav,p07,lakaguaisto,hit,la-ka-guais-to,la-ka-guais-to,la-ka-gu-ais-to,la-ka-gua-is-to,-0.344444444,-0.105555556,1,0,0,2.0491,text_option_1,,0,147,147,149,1
6161d2a6b6dcc778b5b930bb,63f3cfca20052e4ae7554ebf,6453cd31bb21cf7feedba061,2023-05-04_17h23.27.834,ga_syllabified_check,2022.2.5,Win32,8,,,,,,,,,,,,,,./stim/p08_syllable_1_lakaguaisto_hit.wav,p08,lakaguaisto,hit,la-ka-gu-ais-to,la-ka-guais-to,la-ka-gu-ais-to,la-ka-gua-is-to,-0.344444444,-0.10462963,1,0,0,2.3863,text_option_1,,0,148,148,183,1
6161d2a6b6dcc778b5b930bb,63f3cfca20052e4ae7554ebf,6453cd31bb21cf7feedba061,2023-05-04_17h23.27.834,ga_syllabified_check,2022.2.5,Win32,8,,,,,,,,,,,,,,./stim/p07_syllable_1_nhiape_hit.wav,p07,ñiape,hit,nhia-pe,ñia-pe,ñi-a-pe, ,-0.414814815,-0.1,1,0,0,0.7803,text_option_1,,0,149,149,159,1
6161d2a6b6dcc778b5b930bb,63f3cfca20052e4ae7554ebf,6453cd31bb21cf7feedba061,2023-05-04_17h23.27.834,ga_syllabified_check,2022.2.5,Win32,8,,,,,,,,,,,,,,./stim/p05_syllable_1_lakadiaisto_hit.wav,p05,lakadiaisto,hit,la-ka-di-ais-to,la-ka-diais-to,la-ka-di-ais-to,la-ka-dia-is-to,0.087962963,-0.093518519,1,0,0,1.7368,text_option_3,,0,150,150,76,1
6161d2a6b6dcc778b5b930bb,63f3cfca20052e4ae7554ebf,6453cd31bb21cf7feedba061,2023-05-04_17h23.27.834,ga_syllabified_check,2022.2.5,Win32,8,,,,,,,,,,,,,,./stim/p04_syllable_1_lakafuaisto_hit.wav,p04,lakafuaisto,hit,la-ka-fuais-to,la-ka-fuais-to,la-ka-fu-ais-to,la-ka-fua-is-to,-0.350925926,-0.107407407,1,0,0,0.9656,text_option_1,,0,151,151,45,1
6161d2a6b6dcc778b5b930bb,63f3cfca20052e4ae7554ebf,6453cd31bb21cf7feedba061,2023-05-04_17h23.27.834,ga_syllabified_check,2022.2.5,Win32,8,,,,,,,,,,,,,,./stim/p06_syllable_1_lliape_hit.wav,p06,lliape,hit,lli-lla-pe,llia-pe,lli-a-pe, ,0.375,-0.1,1,0,0,1.4076,text_option_2,,0,152,152,122,1
6161d2a6b6dcc778b5b930bb,63f3cfca20052e4ae7554ebf,6453cd31bb21cf7feedba061,2023-05-04_17h23.27.834,ga_syllabified_check,2022.2.5,Win32,8,,,,,,,,,,,,,,./stim/p07_syllable_1_palufauto_hit.wav,p07,palufauto,hit,pa-lu-fau-to,pa-lu-fau-to,pa-lu-fa-u-to, ,-0.402777778,-0.106481481,1,0,0,2.6536,text_option_1,,0,153,153,162,1
6161d2a6b6dcc778b5b930bb,63f3cfca20052e4ae7554ebf,6453cd31bb21cf7feedba061,2023-05-04_17h23.27.834,ga_syllabified_check,2022.2.5,Win32,8,,,,,,,,,,,,,,./stim/p04_syllable_1_lakapiaisto_hit.wav,p04,lakapiaisto,hit,la-ka-piais-to,la-ka-piais-to,la-ka-pi-ais-to,la-ka-pia-is-to,-0.351851852,-0.103703704,1,0,0,6.5522,text_option_1,,0,154,154,50,1
6161d2a6b6dcc778b5b930bb,63f3cfca20052e4ae7554ebf,6453cd31bb21cf7feedba061,2023-05-04_17h23.27.834,ga_syllabified_check,2022.2.5,Win32,8,,,,,,,,,,,,,,./stim/p06_syllable_1_lakabuaisto_hit.wav,p06,lakabuaisto,hit,la-ka-bu-a-is,la-ka-buais-to,la-ka-bu-ais-to,la-ka-bua-is-to,0.448148148,-0.1,1,0,0,4.5521,text_option_2,,0,155,155,109,1
6161d2a6b6dcc778b5b930bb,63f3cfca20052e4ae7554ebf,6453cd31bb21cf7feedba061,2023-05-04_17h23.27.834,ga_syllabified_check,2022.2.5,Win32,8,,,,,,,,,,,,,,./stim/p03_syllable_1_paluguato_hit.wav,p03,paluguato,hit,pa-lu-gua,pa-lu-gua-to,pa-lu-gu-a-to, ,-0.35462963,-0.107407407,1,0,0,1.5697,text_option_1,,0,156,156,27,1
6161d2a6b6dcc778b5b930bb,63f3cfca20052e4ae7554ebf,6453cd31bb21cf7feedba061,2023-05-04_17h23.27.834,ga_syllabified_check,2022.2.5,Win32,8,,,,,,,,,,,,,,./stim/p06_syllable_1_lakapiaisto_hit.wav,p06,lakapiaisto,hit,la-ka-pia-is-to,la-ka-piais-to,la-ka-pi-ais-to,la-ka-pia-is-to,0.043518519,-0.102777778,1,0,0,7.399,text_option_3,,0,157,157,118,1
6161d2a6b6dcc778b5b930bb,63f3cfca20052e4ae7554ebf,6453cd31bb21cf7feedba061,2023-05-04_17h23.27.834,ga_syllabified_check,2022.2.5,Win32,8,,,,,,,,,,,,,,./stim/p05_syllable_1_lakakuaisto_hit.wav,p05,lakakuaisto,hit,la-ka-kais-to,la-ka-kuais-to,la-ka-ku-ais-to,la-ka-kua-is-to,-0.357407407,-0.098148148,1,0,0,6.0311,text_option_1,,0,158,158,83,1
6161d2a6b6dcc778b5b930bb,63f3cfca20052e4ae7554ebf,6453cd31bb21cf7feedba061,2023-05-04_17h23.27.834,ga_syllabified_check,2022.2.5,Win32,8,,,,,,,,,,,,,,./stim/p07_syllable_1_flauro_hit.wav,p07,flauro,hit,flau-ro,flau-ro,fla-u-ro, ,-0.409259259,-0.1,1,0,0,3.15,text_option_1,,0,159,159,141,1
6161d2a6b6dcc778b5b930bb,63f3cfca20052e4ae7554ebf,6453cd31bb21cf7feedba061,2023-05-04_17h23.27.834,ga_syllabified_check,2022.2.5,Win32,8,,,,,,,,,,,,,,./stim/p05_syllable_1_lakapuaisto_hit.wav,p05,lakapuaisto,hit,la-ka-pais-to,la-ka-puais-to,la-ka-pu-ais-to,la-ka-pua-is-to,-0.027777778,-0.3,1,0,0,3.3247,text_option_other,lakapaisto,0,160,160,85,1
6161d2a6b6dcc778b5b930bb,63f3cfca20052e4ae7554ebf,6453cd31bb21cf7feedba061,2023-05-04_17h23.27.834,ga_syllabified_check,2022.2.5,Win32,8,,,,,,,,,,,,,,./stim/p08_syllable_1_lakakuaisto_hit.wav,p08,lakakuaisto,hit,la-ka-ku-ais-to,la-ka-kuais-to,la-ka-ku-ais-to,la-ka-kua-is-to,0.017592593,-0.10462963,1,0,0,4.5282,text_option_3,,0,161,161,185,1
6161d2a6b6dcc778b5b930bb,63f3cfca20052e4ae7554ebf,6453cd31bb21cf7feedba061,2023-05-04_17h23.27.834,ga_syllabified_check,2022.2.5,Win32,8,,,,,,,,,,,,,,./stim/p03_syllable_1_mebochiana_hit.wav,p03,mebochiana,hit,me-bo-chia-na,me-bo-chia-na,me-bo-chi-a-na, ,-0.35462963,-0.102777778,1,0,0,2.6602,text_option_1,,0,162,162,22,1
6161d2a6b6dcc778b5b930bb,63f3cfca20052e4ae7554ebf,6453cd31bb21cf7feedba061,2023-05-04_17h23.27.834,ga_syllabified_check,2022.2.5,Win32,8,,,,,,,,,,,,,,./stim/p04_syllable_1_lakakiaisto_hit.wav,p04,lakakiaisto,hit,la-ka-kiais-to,la-ka-kiais-to,la-ka-ki-ais-to,la-ka-kia-is-to,-0.365740741,-0.101851852,1,0,0,1.4316,text_option_1,,0,163,163,48,1
6161d2a6b6dcc778b5b930bb,63f3cfca20052e4ae7554ebf,6453cd31bb21cf7feedba061,2023-05-04_17h23.27.834,ga_syllabified_check,2022.2.5,Win32,8,,,,,,,,,,,,,,./stim/p03_syllable_1_faluduako_hit.wav,p03,faluduako,hit,fa-lu-dua-ko,fa-lu-dua-ko,fa-lu-du-a-ko, ,0.401851852,-0.112037037,1,0,0,3.1565,text_option_2,,0,164,164,2,1
6161d2a6b6dcc778b5b930bb,63f3cfca20052e4ae7554ebf,6453cd31bb21cf7feedba061,2023-05-04_17h23.27.834,ga_syllabified_check,2022.2.5,Win32,8,,,,,,,,,,,,,,./stim/p05_syllable_1_faluduako_hit.wav,p05,faluduako,hit,fa-lu-ba-ko,fa-lu-dua-ko,fa-lu-du-a-ko, ,0.409259259,-0.103703704,1,0,0,0.4905,text_option_2,,0,165,165,70,1
6161d2a6b6dcc778b5b930bb,63f3cfca20052e4ae7554ebf,6453cd31bb21cf7feedba061,2023-05-04_17h23.27.834,ga_syllabified_check,2022.2.5,Win32,8,,,,,,,,,,,,,,./stim/p06_syllable_1_nhiape_hit.wav,p06,ñiape,hit,nhi-a-pe,ñia-pe,ñi-a-pe, ,0.380555556,-0.109259259,1,0,0,3.8292,text_option_2,,0,166,166,125,1
6161d2a6b6dcc778b5b930bb,63f3cfca20052e4ae7554ebf,6453cd31bb21cf7feedba061,2023-05-04_17h23.27.834,ga_syllabified_check,2022.2.5,Win32,8,,,,,,,,,,,,,,./stim/p05_syllable_1_lakatuaisto_hit.wav,p05,lakatuaisto,hit,la-ka-tais-to,la-ka-tuais-to,la-ka-tu-ais-to,la-ka-tua-is-to,-0.016666667,-0.102777778,1,0,0,7.4216,text_option_3,,0,167,167,87,1
6161d2a6b6dcc778b5b930bb,63f3cfca20052e4ae7554ebf,6453cd31bb21cf7feedba061,2023-05-04_17h23.27.834,ga_syllabified_check,2022.2.5,Win32,8,,,,,,,,,,,,,,./stim/p03_syllable_1_pachialo_hit.wav,p03,pachialo,hit,pa-chia-lo,pa-chia-lo,pa-chi-a-lo, ,-0.350925926,-0.108333333,1,0,0,2.2532,text_option_1,,0,168,168,24,1
6161d2a6b6dcc778b5b930bb,63f3cfca20052e4ae7554ebf,6453cd31bb21cf7feedba061,2023-05-04_17h23.27.834,ga_syllabified_check,2022.2.5,Win32,8,,,,,,,,,,,,,,./stim/p08_syllable_1_ruyiola_hit.wav,p08,ruyiola,hit,ru-yio-la,ru-yio-la,ru-yi-o-la, ,-0.350925926,-0.108333333,1,0,0,5.6507,text_option_1,,0,169,169,202,1
6161d2a6b6dcc778b5b930bb,63f3cfca20052e4ae7554ebf,6453cd31bb21cf7feedba061,2023-05-04_17h23.27.834,ga_syllabified_check,2022.2.5,Win32,8,,,,,,,,,,,,,,./stim/p03_syllable_1_lakaduaisto_hit.wav,p03,lakaduaisto,hit,la-ka-duais-to,la-ka-duais-to,la-ka-du-ais-to,la-ka-dua-is-to,-0.350925926,-0.108333333,1,0,0,3.3191,text_option_1,,0,170,170,9,1
6161d2a6b6dcc778b5b930bb,63f3cfca20052e4ae7554ebf,6453cd31bb21cf7feedba061,2023-05-04_17h23.27.834,ga_syllabified_check,2022.2.5,Win32,8,,,,,,,,,,,,,,./stim/p05_syllable_1_lakagiaisto_hit.wav,p05,lakagiaisto,hit,la-ka-ki-ais-to,la-ka-giais-to,la-ka-gi-ais-to,la-ka-gia-is-to,0.018518519,-0.106481481,1,0,0,5.5266,text_option_3,,0,171,171,80,1
6161d2a6b6dcc778b5b930bb,63f3cfca20052e4ae7554ebf,6453cd31bb21cf7feedba061,2023-05-04_17h23.27.834,ga_syllabified_check,2022.2.5,Win32,8,,,,,,,,,,,,,,./stim/p06_syllable_1_chiaba_hit.wav,p06,chiaba,hit,chi-a-ba,chia-ba,chi-a-ba, ,0.389814815,-0.098148148,1,0,0,4.5857,text_option_2,,0,172,172,102,1
6161d2a6b6dcc778b5b930bb,63f3cfca20052e4ae7554ebf,6453cd31bb21cf7feedba061,2023-05-04_17h23.27.834,ga_syllabified_check,2022.2.5,Win32,8,,,,,,,,,,,,,,./stim/p06_syllable_1_palufauro_hit.wav,p06,palufauro,hit,pa-lu-fau-ro,pa-lu-fau-ro,pa-lu-fa-u-ro, ,0.401851852,-0.107407407,1,0,0,5.7214,text_option_2,,0,173,173,127,1
6161d2a6b6dcc778b5b930bb,63f3cfca20052e4ae7554ebf,6453cd31bb21cf7feedba061,2023-05-04_17h23.27.834,ga_syllabified_check,2022.2.5,Win32,8,,,,,,,,,,,,,,./stim/p07_syllable_1_lakagiaisto_hit.wav,p07,lakagiaisto,hit,la-ka-gais-to,la-ka-giais-to,la-ka-gi-ais-to,la-ka-gia-is-to,0.023148148,-0.100925926,1,0,0,5.4141,text_option_3,,0,174,174,148,1
6161d2a6b6dcc778b5b930bb,63f3cfca20052e4ae7554ebf,6453cd31bb21cf7feedba061,2023-05-04_17h23.27.834,ga_syllabified_check,2022.2.5,Win32,8,,,,,,,,,,,,,,./stim/p03_syllable_1_lakatiaisto_hit.wav,p03,lakatiaisto,hit,la-ka-tiais-to,la-ka-tiais-to,la-ka-ti-ais-to,la-ka-tia-is-to,-0.375925926,-0.103703704,1,0,0,1.7226,text_option_1,,0,175,175,18,1
6161d2a6b6dcc778b5b930bb,63f3cfca20052e4ae7554ebf,6453cd31bb21cf7feedba061,2023-05-04_17h23.27.834,ga_syllabified_check,2022.2.5,Win32,8,,,,,,,,,,,,,,./stim/p05_syllable_1_palutrauco_hit.wav,p05,palutrauco,hit,pa-lu-trai-co,pa-lu-trau-co,pa-lu-tra-u-co, ,0.40462963,-0.101851852,1,0,0,2.9948,text_option_2,,0,176,176,97,1
6161d2a6b6dcc778b5b930bb,63f3cfca20052e4ae7554ebf,6453cd31bb21cf7feedba061,2023-05-04_17h23.27.834,ga_syllabified_check,2022.2.5,Win32,8,,,,,,,,,,,,,,./stim/p08_syllable_1_lakatiaisto_hit.wav,p08,lakatiaisto,hit,la-ka-ti-as-to,la-ka-tiais-to,la-ka-ti-ais-to,la-ka-tia-is-to,0.40462963,-0.101851852,1,0,0,4.7061,text_option_2,,0,177,177,188,1
6161d2a6b6dcc778b5b930bb,63f3cfca20052e4ae7554ebf,6453cd31bb21cf7feedba061,2023-05-04_17h23.27.834,ga_syllabified_check,2022.2.5,Win32,8,,,,,,,,,,,,,,./stim/p03_syllable_1_chiaba_hit.wav,p03,chiaba,hit,chia-ba,chia-ba,chi-a-ba, ,-0.416666667,-0.102777778,1,0,0,1.2408,text_option_1,,0,178,178,0,1
6161d2a6b6dcc778b5b930bb,63f3cfca20052e4ae7554ebf,6453cd31bb21cf7feedba061,2023-05-04_17h23.27.834,ga_syllabified_check,2022.2.5,Win32,8,,,,,,,,,,,,,,./stim/p05_syllable_1_lakapiaisto_hit.wav,p05,lakapiaisto,hit,la-ka-pais-to,la-ka-piais-to,la-ka-pi-ais-to,la-ka-pia-is-to,0.392592593,-0.110185185,1,0,0,5.4319,text_option_2,,0,179,179,84,1
6161d2a6b6dcc778b5b930bb,63f3cfca20052e4ae7554ebf,6453cd31bb21cf7feedba061,2023-05-04_17h23.27.834,ga_syllabified_check,2022.2.5,Win32,8,,,,,,,,,,,,,,./stim/p06_syllable_1_lakakiaisto_hit.wav,p06,lakakiaisto,hit,la-ka-kia-is-to,la-ka-kiais-to,la-ka-ki-ais-to,la-ka-kia-is-to,-0.000925926,-0.10462963,1,0,0,5.458,text_option_3,,0,180,180,116,1
6161d2a6b6dcc778b5b930bb,63f3cfca20052e4ae7554ebf,6453cd31bb21cf7feedba061,2023-05-04_17h23.27.834,ga_syllabified_check,2022.2.5,Win32,8,,,,,,,,,,,,,,./stim/p05_syllable_1_paluguato_hit.wav,p05,paluguato,hit,pa-lu-gau-to,pa-lu-gua-to,pa-lu-gu-a-to, ,-0.050925926,-0.301851852,1,0,0,2.0723,text_option_other,palucauto,0,181,181,95,1
6161d2a6b6dcc778b5b930bb,63f3cfca20052e4ae7554ebf,6453cd31bb21cf7feedba061,2023-05-04_17h23.27.834,ga_syllabified_check,2022.2.5,Win32,8,,,,,,,,,,,,,,./stim/p07_syllable_1_lakapiaisto_hit.wav,p07,lakapiaisto,hit,la-ka-pia-sto,la-ka-piais-to,la-ka-pi-ais-to,la-ka-pia-is-to,0.044444444,-0.10462963,1,0,0,5.291,text_option_3,,0,182,182,152,1
6161d2a6b6dcc778b5b930bb,63f3cfca20052e4ae7554ebf,6453cd31bb21cf7feedba061,2023-05-04_17h23.27.834,ga_syllabified_check,2022.2.5,Win32,8,,,,,,,,,,,,,,./stim/p04_syllable_1_lakaduaisto_hit.wav,p04,lakaduaisto,hit,la-ka-duais-to,la-ka-duais-to,la-ka-du-ais-to,la-ka-dua-is-to,-0.375925926,-0.102777778,1,0,0,1.3429,text_option_1,,0,183,183,43,1
6161d2a6b6dcc778b5b930bb,63f3cfca20052e4ae7554ebf,6453cd31bb21cf7feedba061,2023-05-04_17h23.27.834,ga_syllabified_check,2022.2.5,Win32,8,,,,,,,,,,,,,,./stim/p03_syllable_1_flauro_hit.wav,p03,flauro,hit,flau-ro,flau-ro,fla-u-ro, ,-0.375925926,-0.102777778,1,0,0,0.7747,text_option_1,,0,184,184,5,1
6161d2a6b6dcc778b5b930bb,63f3cfca20052e4ae7554ebf,6453cd31bb21cf7feedba061,2023-05-04_17h23.27.834,ga_syllabified_check,2022.2.5,Win32,8,,,,,,,,,,,,,,./stim/p08_syllable_1_lakabuaisto_hit.wav,p08,lakabuaisto,hit,la-ka-bu-ais-to,la-ka-buais-to,la-ka-bu-ais-to,la-ka-bua-is-to,0.412962963,-0.105555556,1,0,0,4.2646,text_option_2,,0,185,185,177,1
6161d2a6b6dcc778b5b930bb,63f3cfca20052e4ae7554ebf,6453cd31bb21cf7feedba061,2023-05-04_17h23.27.834,ga_syllabified_check,2022.2.5,Win32,8,,,,,,,,,,,,,,./stim/p04_syllable_1_lakabiaisto_hit.wav,p04,lakabiaisto,hit,la-ka-biais-to,la-ka-biais-to,la-ka-bi-ais-to,la-ka-bia-is-to,0.085185185,-0.112962963,1,0,0,2.2345,text_option_3,,0,186,186,40,1
6161d2a6b6dcc778b5b930bb,63f3cfca20052e4ae7554ebf,6453cd31bb21cf7feedba061,2023-05-04_17h23.27.834,ga_syllabified_check,2022.2.5,Win32,8,,,,,,,,,,,,,,./stim/p05_syllable_1_lakafuaisto_hit.wav,p05,lakafuaisto,hit,la-ka-fais-to,la-ka-fuais-to,la-ka-fu-ais-to,la-ka-fua-is-to,0.085185185,-0.112962963,1,0,0,2.6953,text_option_3,,0,187,187,79,1
6161d2a6b6dcc778b5b930bb,63f3cfca20052e4ae7554ebf,6453cd31bb21cf7feedba061,2023-05-04_17h23.27.834,ga_syllabified_check,2022.2.5,Win32,8,,,,,,,,,,,,,,./stim/p07_syllable_1_lakatuaisto_hit.wav,p07,lakatuaisto,hit,la-ka-tuais-to,la-ka-tuais-to,la-ka-tu-ais-to,la-ka-tua-is-to,-0.359259259,-0.109259259,1,0,0,2.3581,text_option_1,,0,188,188,155,1
6161d2a6b6dcc778b5b930bb,63f3cfca20052e4ae7554ebf,6453cd31bb21cf7feedba061,2023-05-04_17h23.27.834,ga_syllabified_check,2022.2.5,Win32,8,,,,,,,,,,,,,,./stim/p03_syllable_1_lakabiaisto_hit.wav,p03,lakabiaisto,hit,la-ka-biais-to,la-ka-biais-to,la-ka-bi-ais-to,la-ka-bia-is-to,-0.359259259,-0.109259259,1,0,0,1.5813,text_option_1,,0,189,189,6,1
6161d2a6b6dcc778b5b930bb,63f3cfca20052e4ae7554ebf,6453cd31bb21cf7feedba061,2023-05-04_17h23.27.834,ga_syllabified_check,2022.2.5,Win32,8,,,,,,,,,,,,,,./stim/p03_syllable_1_rausto_hit.wav,p03,rausto,hit,raus-to,raus-to,ra-us-to, ,-0.359259259,-0.109259259,1,0,0,1.1087,text_option_1,,0,190,190,31,1
6161d2a6b6dcc778b5b930bb,63f3cfca20052e4ae7554ebf,6453cd31bb21cf7feedba061,2023-05-04_17h23.27.834,ga_syllabified_check,2022.2.5,Win32,8,,,,,,,,,,,,,,./stim/p03_syllable_1_lakatuaisto_hit.wav,p03,lakatuaisto,hit,la-ka-tuais-to,la-ka-tuais-to,la-ka-tu-ais-to,la-ka-tua-is-to,-0.359259259,-0.109259259,1,0,0,1.5752,text_option_1,,0,191,191,19,1
6161d2a6b6dcc778b5b930bb,63f3cfca20052e4ae7554ebf,6453cd31bb21cf7feedba061,2023-05-04_17h23.27.834,ga_syllabified_check,2022.2.5,Win32,8,,,,,,,,,,,,,,./stim/p06_syllable_1_falufaisto_hit.wav,p06,falufaisto,hit,fa-lu-fa-is-to,fa-lu-fais-to,fa-lu-fa-is-to, ,0.399074074,-0.100925926,1,0,0,2.7426,text_option_2,,0,192,192,105,1
6161d2a6b6dcc778b5b930bb,63f3cfca20052e4ae7554ebf,6453cd31bb21cf7feedba061,2023-05-04_17h23.27.834,ga_syllabified_check,2022.2.5,Win32,8,,,,,,,,,,,,,,./stim/p08_syllable_1_pachialo_hit.wav,p08,pachialo,hit,pa-chi-ja-lo,pa-chia-lo,pa-chi-a-lo, ,0.399074074,-0.100925926,1,0,0,1.5677,text_option_2,,0,193,193,194,1
6161d2a6b6dcc778b5b930bb,63f3cfca20052e4ae7554ebf,6453cd31bb21cf7feedba061,2023-05-04_17h23.27.834,ga_syllabified_check,2022.2.5,Win32,8,,,,,,,,,,,,,,./stim/p05_syllable_1_mebochiana_hit.wav,p05,mebochiana,hit,me-cho-chai-na,me-bo-chia-na,me-bo-chi-a-na, ,0.046296296,-0.302777778,1,0,0,1.7434,text_option_other,mechochina,0,194,194,90,1
6161d2a6b6dcc778b5b930bb,63f3cfca20052e4ae7554ebf,6453cd31bb21cf7feedba061,2023-05-04_17h23.27.834,ga_syllabified_check,2022.2.5,Win32,8,,,,,,,,,,,,,,./stim/p03_syllable_1_lakapiaisto_hit.wav,p03,lakapiaisto,hit,la-ka-piais-to,la-ka-piais-to,la-ka-pi-ais-to,la-ka-pia-is-to,-0.464814815,-0.093518519,1,0,0,1.8935,text_option_1,,0,195,195,16,1
6161d2a6b6dcc778b5b930bb,63f3cfca20052e4ae7554ebf,6453cd31bb21cf7feedba061,2023-05-04_17h23.27.834,ga_syllabified_check,2022.2.5,Win32,8,,,,,,,,,,,,,,./stim/p05_syllable_1_tuliafo_hit.wav,p05,tuliafo,hit,tu-lai-fo,tu-lia-fo,tu-li-a-fo, ,-0.391666667,-0.105555556,1,0,0,1.5518,text_option_1,,0,196,196,101,1
6161d2a6b6dcc778b5b930bb,63f3cfca20052e4ae7554ebf,6453cd31bb21cf7feedba061,2023-05-04_17h23.27.834,ga_syllabified_check,2022.2.5,Win32,8,,,,,,,,,,,,,,./stim/p08_syllable_1_lakadiaisto_hit.wav,p08,lakadiaisto,hit,la-ka-di-jas-to,la-ka-diais-to,la-ka-di-ais-to,la-ka-dia-is-to,0.081481481,-0.100925926,1,0,0,4.7464,text_option_3,,0,197,197,178,1
6161d2a6b6dcc778b5b930bb,63f3cfca20052e4ae7554ebf,6453cd31bb21cf7feedba061,2023-05-04_17h23.27.834,ga_syllabified_check,2022.2.5,Win32,8,,,,,,,,,,,,,,./stim/p08_syllable_1_rausto_hit.wav,p08,rausto,hit,raus-to,raus-to,ra-us-to, ,-0.39537037,-0.110185185,1,0,0,1.1138,text_option_1,,0,198,198,201,1
6161d2a6b6dcc778b5b930bb,63f3cfca20052e4ae7554ebf,6453cd31bb21cf7feedba061,2023-05-04_17h23.27.834,ga_syllabified_check,2022.2.5,Win32,8,,,,,,,,,,,,,,./stim/p04_syllable_1_lakaguaisto_hit.wav,p04,lakaguaisto,hit,la-ka-guais-to,la-ka-guais-to,la-ka-gu-ais-to,la-ka-gua-is-to,-0.39537037,-0.110185185,1,0,0,2.2098,text_option_1,,0,199,199,47,1
6161d2a6b6dcc778b5b930bb,63f3cfca20052e4ae7554ebf,6453cd31bb21cf7feedba061,2023-05-04_17h23.27.834,ga_syllabified_check,2022.2.5,Win32,8,,,,,,,,,,,,,,./stim/p08_syllable_1_paluguato_hit.wav,p08,paluguato,hit,pa-lu-gua-to,pa-lu-gua-to,pa-lu-gu-a-to, ,-0.39537037,-0.110185185,1,0,0,3.2879,text_option_1,,0,200,200,197,1
6161d2a6b6dcc778b5b930bb,63f3cfca20052e4ae7554ebf,6453cd31bb21cf7feedba061,2023-05-04_17h23.27.834,ga_syllabified_check,2022.2.5,Win32,8,,,,,,,,,,,,,,./stim/p07_syllable_1_mebochiana_hit.wav,p07,mebochiana,hit,me-bo-chia-na,me-bo-chia-na,me-bo-chi-a-na, ,-0.39537037,-0.110185185,1,0,0,2.888,text_option_1,,0,201,201,158,1
6161d2a6b6dcc778b5b930bb,63f3cfca20052e4ae7554ebf,6453cd31bb21cf7feedba061,2023-05-04_17h23.27.834,ga_syllabified_check,2022.2.5,Win32,8,,,,,,,,,,,,,,./stim/p08_syllable_1_lakagiaisto_hit.wav,p08,lakagiaisto,hit,la-ka-gi-jas-to,la-ka-giais-to,la-ka-gi-ais-to,la-ka-gia-is-to,0.050925926,-0.101851852,1,0,0,3.3951,text_option_3,,0,202,202,182,1
6161d2a6b6dcc778b5b930bb,63f3cfca20052e4ae7554ebf,6453cd31bb21cf7feedba061,2023-05-04_17h23.27.834,ga_syllabified_check,2022.2.5,Win32,8,,,,,,,,,,,,,,./stim/p07_syllable_1_chiaba_hit.wav,p07,chiaba,hit,chia-ba,chia-ba,chi-a-ba, ,-0.362962963,-0.119444444,1,0,0,0.9474,text_option_1,,0,203,203,136,1
6161d2a6b6dcc778b5b930bb,63f3cfca20052e4ae7554ebf,6453cd31bb21cf7feedba061,2023-05-04_17h23.27.834,ga_syllabified_check,2022.2.5,Win32,8,,,,,,,,,,,,,,,,,,,,,,,,,,,,,,,,,,
