participant,study,session,date,expName,psychopyVersion,OS,frameRate,mouse_practice.x,mouse_practice.y,mouse_practice.leftButton,mouse_practice.midButton,mouse_practice.rightButton,mouse_practice.time,mouse_practice.clicked_name,textbox_followup_practice.text,trials_practice.thisRepN,trials_practice.thisTrialN,trials_practice.thisN,trials_practice.thisIndex,trials_practice.ran,file_path,id,item,status,response,op1,op2,op3,mouse.x,mouse.y,mouse.leftButton,mouse.midButton,mouse.rightButton,mouse.time,mouse.clicked_name,textbox_followup.text,trials.thisRepN,trials.thisTrialN,trials.thisN,trials.thisIndex,trials.ran
6167f106d8d301bd6433c8b1,63f3cfca20052e4ae7554ebf,6453cdced243a2e9c08191af,2023-05-04_17h23.27.383,ga_syllabified_check,2022.2.5,Win32,60.0024001,,,,,,,,,,,,,,,,,,,,,,,,,,,,,,,,,,
6167f106d8d301bd6433c8b1,63f3cfca20052e4ae7554ebf,6453cdced243a2e9c08191af,2023-05-04_17h23.27.383,ga_syllabified_check,2022.2.5,Win32,60.0024001,-0.380208333,-0.104166667,1,0,0,3.6303,text_option_1_practice,,0,0,0,0,1,./stim/p03_syllable_1_liamo_hit.wav,p03,liamo,hit,lia-mo,lia-mo,li-a-mo, ,,,,,,,,,,,,,
6167f106d8d301bd6433c8b1,63f3cfca20052e4ae7554ebf,6453cdced243a2e9c08191af,2023-05-04_17h23.27.383,ga_syllabified_check,2022.2.5,Win32,60.0024001,-0.380208333,-0.104166667,1,0,0,1.6729,text_option_1_practice,,0,1,1,1,1,./stim/p05_syllable_1_matio_hit.wav,p05,matio,hit,ma-tio,ma-tio,ma-ti-o, ,,,,,,,,,,,,,
6167f106d8d301bd6433c8b1,63f3cfca20052e4ae7554ebf,6453cdced243a2e9c08191af,2023-05-04_17h23.27.383,ga_syllabified_check,2022.2.5,Win32,60.0024001,0.361979167,-0.10546875,1,0,0,3.4461,text_option_2_practice,,0,2,2,2,1,./stim/p08_syllable_1_liamo_hit.wav,p08,liamo,hit,ja-mo,lia-mo,li-a-mo, ,,,,,,,,,,,,,
6167f106d8d301bd6433c8b1,63f3cfca20052e4ae7554ebf,6453cdced243a2e9c08191af,2023-05-04_17h23.27.383,ga_syllabified_check,2022.2.5,Win32,60.0024001,,,,,,,,,,,,,,,,,,,,,,,,,,,,,,,,,,
6167f106d8d301bd6433c8b1,63f3cfca20052e4ae7554ebf,6453cdced243a2e9c08191af,2023-05-04_17h23.27.383,ga_syllabified_check,2022.2.5,Win32,60.0024001,,,,,,,,,,,,,,./stim/p05_syllable_1_palumaisto_hit.wav,p05,palumaisto,hit,pa-lu-mais-to,pa-lu-mais-to,pa-lu-ma-is-to, ,0.377604167,-0.100260417,1,0,0,4.8168,text_option_2,,0,0,0,96,1
6167f106d8d301bd6433c8b1,63f3cfca20052e4ae7554ebf,6453cdced243a2e9c08191af,2023-05-04_17h23.27.383,ga_syllabified_check,2022.2.5,Win32,60.0024001,,,,,,,,,,,,,,./stim/p03_syllable_1_nhiape_hit.wav,p03,ñiape,hit,nhia-pe,ñia-pe,ñi-a-pe, ,-0.3828125,-0.09765625,1,0,0,1.1214,text_option_1,,0,1,1,23,1
6167f106d8d301bd6433c8b1,63f3cfca20052e4ae7554ebf,6453cdced243a2e9c08191af,2023-05-04_17h23.27.383,ga_syllabified_check,2022.2.5,Win32,60.0024001,,,,,,,,,,,,,,./stim/p05_syllable_1_rausto_hit.wav,p05,rausto,hit,raus-to,raus-to,ra-us-to, ,-0.369791667,-0.100260417,1,0,0,1.3052,text_option_1,,0,2,2,99,1
6167f106d8d301bd6433c8b1,63f3cfca20052e4ae7554ebf,6453cdced243a2e9c08191af,2023-05-04_17h23.27.383,ga_syllabified_check,2022.2.5,Win32,60.0024001,,,,,,,,,,,,,,./stim/p07_syllable_1_ruyiola_hit.wav,p07,ruyiola,hit,ru-yio-la,ru-yio-la,ru-yi-o-la, ,-0.358072917,-0.106770833,1,0,0,2.8269,text_option_1,,0,3,3,168,1
6167f106d8d301bd6433c8b1,63f3cfca20052e4ae7554ebf,6453cdced243a2e9c08191af,2023-05-04_17h23.27.383,ga_syllabified_check,2022.2.5,Win32,60.0024001,,,,,,,,,,,,,,./stim/p07_syllable_1_lakabiaisto_hit.wav,p07,lakabiaisto,hit,la-ka-bais-to,la-ka-biais-to,la-ka-bi-ais-to,la-ka-bia-is-to,-0.354166667,-0.096354167,1,0,0,3.3961,text_option_1,,0,4,4,142,1
6167f106d8d301bd6433c8b1,63f3cfca20052e4ae7554ebf,6453cdced243a2e9c08191af,2023-05-04_17h23.27.383,ga_syllabified_check,2022.2.5,Win32,60.0024001,,,,,,,,,,,,,,./stim/p05_syllable_1_ruyiola_hit.wav,p05,ruyiola,hit,ru-yio-la,ru-yio-la,ru-yi-o-la, ,-0.359375,-0.109375,1,0,0,4.1311,text_option_1,,0,5,5,100,1
6167f106d8d301bd6433c8b1,63f3cfca20052e4ae7554ebf,6453cdced243a2e9c08191af,2023-05-04_17h23.27.383,ga_syllabified_check,2022.2.5,Win32,60.0024001,,,,,,,,,,,,,,./stim/p04_syllable_1_lakaduaisto_hit.wav,p04,lakaduaisto,hit,la-ka-duais-to,la-ka-duais-to,la-ka-du-ais-to,la-ka-dua-is-to,0.389322917,-0.09765625,1,0,0,8.0614,text_option_2,,0,6,6,43,1
6167f106d8d301bd6433c8b1,63f3cfca20052e4ae7554ebf,6453cdced243a2e9c08191af,2023-05-04_17h23.27.383,ga_syllabified_check,2022.2.5,Win32,60.0024001,,,,,,,,,,,,,,./stim/p08_syllable_1_costonhialo_hit.wav,p08,costoñialo,hit,cos-to-nhia-lo,cos-to-ñia-lo,cos-to-ñi-a-lo, ,-0.372395833,-0.09765625,1,0,0,4.7339,text_option_1,,0,7,7,171,1
6167f106d8d301bd6433c8b1,63f3cfca20052e4ae7554ebf,6453cdced243a2e9c08191af,2023-05-04_17h23.27.383,ga_syllabified_check,2022.2.5,Win32,60.0024001,,,,,,,,,,,,,,./stim/p03_syllable_1_lakafuaisto_hit.wav,p03,lakafuaisto,hit,la-ka-fuais-to,la-ka-fuais-to,la-ka-fu-ais-to,la-ka-fua-is-to,-0.3671875,-0.110677083,1,0,0,3.3103,text_option_1,,0,8,8,11,1
6167f106d8d301bd6433c8b1,63f3cfca20052e4ae7554ebf,6453cdced243a2e9c08191af,2023-05-04_17h23.27.383,ga_syllabified_check,2022.2.5,Win32,60.0024001,,,,,,,,,,,,,,./stim/p05_syllable_1_nhiape_hit.wav,p05,ñiape,hit,nhia-pe,ñia-pe,ñi-a-pe, ,-0.380208333,-0.104166667,1,0,0,1.4893,text_option_1,,0,9,9,91,1
6167f106d8d301bd6433c8b1,63f3cfca20052e4ae7554ebf,6453cdced243a2e9c08191af,2023-05-04_17h23.27.383,ga_syllabified_check,2022.2.5,Win32,60.0024001,,,,,,,,,,,,,,./stim/p03_syllable_1_lakabiaisto_hit.wav,p03,lakabiaisto,hit,la-ka-biais-to,la-ka-biais-to,la-ka-bi-ais-to,la-ka-bia-is-to,-0.37890625,-0.1015625,1,0,0,3.4629,text_option_1,,0,10,10,6,1
6167f106d8d301bd6433c8b1,63f3cfca20052e4ae7554ebf,6453cdced243a2e9c08191af,2023-05-04_17h23.27.383,ga_syllabified_check,2022.2.5,Win32,60.0024001,,,,,,,,,,,,,,./stim/p04_syllable_1_lakapiaisto_hit.wav,p04,lakapiaisto,hit,la-ka-piais-to,la-ka-piais-to,la-ka-pi-ais-to,la-ka-pia-is-to,-0.361979167,-0.110677083,1,0,0,4.6164,text_option_1,,0,11,11,50,1
6167f106d8d301bd6433c8b1,63f3cfca20052e4ae7554ebf,6453cdced243a2e9c08191af,2023-05-04_17h23.27.383,ga_syllabified_check,2022.2.5,Win32,60.0024001,,,,,,,,,,,,,,./stim/p03_syllable_1_lakapiaisto_hit.wav,p03,lakapiaisto,hit,la-ka-piais-to,la-ka-piais-to,la-ka-pi-ais-to,la-ka-pia-is-to,-0.380208333,-0.1015625,1,0,0,3.8808,text_option_1,,0,12,12,16,1
6167f106d8d301bd6433c8b1,63f3cfca20052e4ae7554ebf,6453cdced243a2e9c08191af,2023-05-04_17h23.27.383,ga_syllabified_check,2022.2.5,Win32,60.0024001,,,,,,,,,,,,,,./stim/p03_syllable_1_falutraigo_hit.wav,p03,falutraigo,hit,fa-lu-trai-go,fa-lu-trai-go,fa-lu-tra-i-go, ,0.3984375,-0.106770833,1,0,0,3.7802,text_option_2,,0,13,13,4,1
6167f106d8d301bd6433c8b1,63f3cfca20052e4ae7554ebf,6453cdced243a2e9c08191af,2023-05-04_17h23.27.383,ga_syllabified_check,2022.2.5,Win32,60.0024001,,,,,,,,,,,,,,./stim/p08_syllable_1_manhiala_hit.wav,p08,mañiala,hit,ma-nhia-la,ma-ñia-la,ma-ñi-a-la, ,-0.412760417,-0.100260417,1,0,0,4.0055,text_option_1,,0,14,14,191,1
6167f106d8d301bd6433c8b1,63f3cfca20052e4ae7554ebf,6453cdced243a2e9c08191af,2023-05-04_17h23.27.383,ga_syllabified_check,2022.2.5,Win32,60.0024001,,,,,,,,,,,,,,./stim/p06_syllable_1_manhiala_hit.wav,p06,mañiala,hit,ma-nhi-a-la,ma-ñia-la,ma-ñi-a-la, ,0.37109375,-0.102864583,1,0,0,2.8941,text_option_2,,0,15,15,123,1
6167f106d8d301bd6433c8b1,63f3cfca20052e4ae7554ebf,6453cdced243a2e9c08191af,2023-05-04_17h23.27.383,ga_syllabified_check,2022.2.5,Win32,60.0024001,,,,,,,,,,,,,,./stim/p04_syllable_1_lakatiaisto_hit.wav,p04,lakatiaisto,hit,la-ka-kiais-to,la-ka-tiais-to,la-ka-ti-ais-to,la-ka-tia-is-to,-0.364583333,-0.10546875,1,0,0,3.6462,text_option_1,,0,16,16,52,1
6167f106d8d301bd6433c8b1,63f3cfca20052e4ae7554ebf,6453cdced243a2e9c08191af,2023-05-04_17h23.27.383,ga_syllabified_check,2022.2.5,Win32,60.0024001,,,,,,,,,,,,,,./stim/p08_syllable_1_lakafuaisto_hit.wav,p08,lakafuaisto,hit,la-ka-fju-ais-to,la-ka-fuais-to,la-ka-fu-ais-to,la-ka-fua-is-to,0.375,-0.09765625,1,0,0,5.9711,text_option_2,,0,17,17,181,1
6167f106d8d301bd6433c8b1,63f3cfca20052e4ae7554ebf,6453cdced243a2e9c08191af,2023-05-04_17h23.27.383,ga_syllabified_check,2022.2.5,Win32,60.0024001,,,,,,,,,,,,,,./stim/p05_syllable_1_paluguato_hit.wav,p05,paluguato,hit,pa-lu-gau-to,pa-lu-gua-to,pa-lu-gu-a-to, ,0.0390625,-0.30078125,1,0,0,6.0716,text_option_other,palucaito,0,18,18,95,1
6167f106d8d301bd6433c8b1,63f3cfca20052e4ae7554ebf,6453cdced243a2e9c08191af,2023-05-04_17h23.27.383,ga_syllabified_check,2022.2.5,Win32,60.0024001,,,,,,,,,,,,,,./stim/p05_syllable_1_flauro_hit.wav,p05,flauro,hit,fa-lu-ro,flau-ro,fla-u-ro, ,0.395833333,-0.114583333,1,0,0,5.6701,text_option_2,,0,19,19,73,1
6167f106d8d301bd6433c8b1,63f3cfca20052e4ae7554ebf,6453cdced243a2e9c08191af,2023-05-04_17h23.27.383,ga_syllabified_check,2022.2.5,Win32,60.0024001,,,,,,,,,,,,,,./stim/p05_syllable_1_lakagiaisto_hit.wav,p05,lakagiaisto,hit,la-ka-ki-ais-to,la-ka-giais-to,la-ka-gi-ais-to,la-ka-gia-is-to,0.447916667,-0.1015625,1,0,0,5.8206,text_option_2,,0,20,20,80,1
6167f106d8d301bd6433c8b1,63f3cfca20052e4ae7554ebf,6453cdced243a2e9c08191af,2023-05-04_17h23.27.383,ga_syllabified_check,2022.2.5,Win32,60.0024001,,,,,,,,,,,,,,./stim/p03_syllable_1_costonhialo_hit.wav,p03,costoñialo,hit,cos-to-nhia-lo,cos-to-ñia-lo,cos-to-ñi-a-lo, ,-0.35546875,-0.104166667,1,0,0,1.7564,text_option_1,,0,21,21,1,1
6167f106d8d301bd6433c8b1,63f3cfca20052e4ae7554ebf,6453cdced243a2e9c08191af,2023-05-04_17h23.27.383,ga_syllabified_check,2022.2.5,Win32,60.0024001,,,,,,,,,,,,,,./stim/p04_syllable_1_palutrauco_hit.wav,p04,palutrauco,hit,pa-lu-trau-co,pa-lu-trau-co,pa-lu-tra-u-co, ,-0.373697917,-0.102864583,1,0,0,2.9775,text_option_1,,0,22,22,63,1
6167f106d8d301bd6433c8b1,63f3cfca20052e4ae7554ebf,6453cdced243a2e9c08191af,2023-05-04_17h23.27.383,ga_syllabified_check,2022.2.5,Win32,60.0024001,,,,,,,,,,,,,,./stim/p06_syllable_1_lliape_hit.wav,p06,lliape,hit,lli-lla-pe,llia-pe,lli-a-pe, ,0.401041667,-0.102864583,1,0,0,1.3045,text_option_2,,0,23,23,122,1
6167f106d8d301bd6433c8b1,63f3cfca20052e4ae7554ebf,6453cdced243a2e9c08191af,2023-05-04_17h23.27.383,ga_syllabified_check,2022.2.5,Win32,60.0024001,,,,,,,,,,,,,,./stim/p03_syllable_1_lakaguaisto_hit.wav,p03,lakaguaisto,hit,la-ka-guais-to,la-ka-guais-to,la-ka-gu-ais-to,la-ka-gua-is-to,-0.399739583,-0.108072917,1,0,0,1.8066,text_option_1,,0,24,24,13,1
6167f106d8d301bd6433c8b1,63f3cfca20052e4ae7554ebf,6453cdced243a2e9c08191af,2023-05-04_17h23.27.383,ga_syllabified_check,2022.2.5,Win32,60.0024001,,,,,,,,,,,,,,./stim/p03_syllable_1_mebochiana_hit.wav,p03,mebochiana,hit,me-bo-chia-na,me-bo-chia-na,me-bo-chi-a-na, ,-0.361979167,-0.100260417,1,0,0,3.4621,text_option_1,,0,25,25,22,1
6167f106d8d301bd6433c8b1,63f3cfca20052e4ae7554ebf,6453cdced243a2e9c08191af,2023-05-04_17h23.27.383,ga_syllabified_check,2022.2.5,Win32,60.0024001,,,,,,,,,,,,,,./stim/p07_syllable_1_flauro_hit.wav,p07,flauro,hit,flau-ro,flau-ro,fla-u-ro, ,-0.444010417,-0.09375,1,0,0,1.8064,text_option_1,,0,26,26,141,1
6167f106d8d301bd6433c8b1,63f3cfca20052e4ae7554ebf,6453cdced243a2e9c08191af,2023-05-04_17h23.27.383,ga_syllabified_check,2022.2.5,Win32,60.0024001,,,,,,,,,,,,,,./stim/p08_syllable_1_palufauto_hit.wav,p08,palufauto,hit,pa-lu-fau-to,pa-lu-fau-to,pa-lu-fa-u-to, ,-0.3671875,-0.102864583,1,0,0,4.3152,text_option_1,,0,27,27,196,1
6167f106d8d301bd6433c8b1,63f3cfca20052e4ae7554ebf,6453cdced243a2e9c08191af,2023-05-04_17h23.27.383,ga_syllabified_check,2022.2.5,Win32,60.0024001,,,,,,,,,,,,,,./stim/p06_syllable_1_lakadiaisto_hit.wav,p06,lakadiaisto,hit,la-ka-dia-is-to,la-ka-diais-to,la-ka-di-ais-to,la-ka-dia-is-to,0.024739583,-0.106770833,1,0,0,3.1953,text_option_3,,0,28,28,110,1
6167f106d8d301bd6433c8b1,63f3cfca20052e4ae7554ebf,6453cdced243a2e9c08191af,2023-05-04_17h23.27.383,ga_syllabified_check,2022.2.5,Win32,60.0024001,,,,,,,,,,,,,,./stim/p06_syllable_1_palufauro_hit.wav,p06,palufauro,hit,pa-lu-fau-ro,pa-lu-fau-ro,pa-lu-fa-u-ro, ,0.381510417,-0.109375,1,0,0,6.8911,text_option_2,,0,29,29,127,1
6167f106d8d301bd6433c8b1,63f3cfca20052e4ae7554ebf,6453cdced243a2e9c08191af,2023-05-04_17h23.27.383,ga_syllabified_check,2022.2.5,Win32,60.0024001,,,,,,,,,,,,,,./stim/p03_syllable_1_lakakuaisto_hit.wav,p03,lakakuaisto,hit,la-ka-kuais-to,la-ka-kuais-to,la-ka-ku-ais-to,la-ka-kua-is-to,-0.3515625,-0.10546875,1,0,0,1.8732,text_option_1,,0,30,30,15,1
6167f106d8d301bd6433c8b1,63f3cfca20052e4ae7554ebf,6453cdced243a2e9c08191af,2023-05-04_17h23.27.383,ga_syllabified_check,2022.2.5,Win32,60.0024001,,,,,,,,,,,,,,./stim/p05_syllable_1_faluduako_hit.wav,p05,faluduako,hit,fa-lu-ba-ko,fa-lu-dua-ko,fa-lu-du-a-ko, ,-0.360677083,-0.106770833,1,0,0,2.0241,text_option_1,,0,31,31,70,1
6167f106d8d301bd6433c8b1,63f3cfca20052e4ae7554ebf,6453cdced243a2e9c08191af,2023-05-04_17h23.27.383,ga_syllabified_check,2022.2.5,Win32,60.0024001,,,,,,,,,,,,,,./stim/p07_syllable_1_palutrauco_hit.wav,p07,palutrauco,hit,pa-lu-trau-co,pa-lu-trau-co,pa-lu-tra-u-co, ,0.415364583,-0.110677083,1,0,0,3.7633,text_option_2,,0,32,32,165,1
6167f106d8d301bd6433c8b1,63f3cfca20052e4ae7554ebf,6453cdced243a2e9c08191af,2023-05-04_17h23.27.383,ga_syllabified_check,2022.2.5,Win32,60.0024001,,,,,,,,,,,,,,./stim/p04_syllable_1_lakafuaisto_hit.wav,p04,lakafuaisto,hit,la-ka-fuais-to,la-ka-fuais-to,la-ka-fu-ais-to,la-ka-fua-is-to,-0.369791667,-0.11328125,1,0,0,3.4292,text_option_1,,0,33,33,45,1
6167f106d8d301bd6433c8b1,63f3cfca20052e4ae7554ebf,6453cdced243a2e9c08191af,2023-05-04_17h23.27.383,ga_syllabified_check,2022.2.5,Win32,60.0024001,,,,,,,,,,,,,,./stim/p08_syllable_1_lliape_hit.wav,p08,lliape,hit,li-a-pe,llia-pe,lli-a-pe, ,0.38671875,-0.106770833,1,0,0,1.6395,text_option_2,,0,34,34,190,1
6167f106d8d301bd6433c8b1,63f3cfca20052e4ae7554ebf,6453cdced243a2e9c08191af,2023-05-04_17h23.27.383,ga_syllabified_check,2022.2.5,Win32,60.0024001,,,,,,,,,,,,,,./stim/p08_syllable_1_falutraigo_hit.wav,p08,falutraigo,hit,fa-lu-trai-go,fa-lu-trai-go,fa-lu-tra-i-go, ,0.423177083,-0.104166667,1,0,0,5.4188,text_option_2,,0,35,35,174,1
6167f106d8d301bd6433c8b1,63f3cfca20052e4ae7554ebf,6453cdced243a2e9c08191af,2023-05-04_17h23.27.383,ga_syllabified_check,2022.2.5,Win32,60.0024001,,,,,,,,,,,,,,./stim/p04_syllable_1_lakagiaisto_hit.wav,p04,lakagiaisto,hit,la-ka-giais-to,la-ka-giais-to,la-ka-gi-ais-to,la-ka-gia-is-to,-0.368489583,-0.106770833,1,0,0,2.3415,text_option_1,,0,36,36,46,1
6167f106d8d301bd6433c8b1,63f3cfca20052e4ae7554ebf,6453cdced243a2e9c08191af,2023-05-04_17h23.27.383,ga_syllabified_check,2022.2.5,Win32,60.0024001,,,,,,,,,,,,,,./stim/p07_syllable_1_nhiape_hit.wav,p07,ñiape,hit,nhia-pe,ñia-pe,ñi-a-pe, ,-0.395833333,-0.09765625,1,0,0,0.8538,text_option_1,,0,37,37,159,1
6167f106d8d301bd6433c8b1,63f3cfca20052e4ae7554ebf,6453cdced243a2e9c08191af,2023-05-04_17h23.27.383,ga_syllabified_check,2022.2.5,Win32,60.0024001,,,,,,,,,,,,,,./stim/p03_syllable_1_lakatiaisto_hit.wav,p03,lakatiaisto,hit,la-ka-tiais-to,la-ka-tiais-to,la-ka-ti-ais-to,la-ka-tia-is-to,-0.37109375,-0.10546875,1,0,0,2.1031,text_option_1,,0,38,38,18,1
6167f106d8d301bd6433c8b1,63f3cfca20052e4ae7554ebf,6453cdced243a2e9c08191af,2023-05-04_17h23.27.383,ga_syllabified_check,2022.2.5,Win32,60.0024001,,,,,,,,,,,,,,./stim/p07_syllable_1_palufauro_hit.wav,p07,palufauro,hit,pa-lu-fau-ro,pa-lu-fau-ro,pa-lu-fa-u-ro, ,-0.361979167,-0.102864583,1,0,0,3.4622,text_option_1,,0,39,39,161,1
6167f106d8d301bd6433c8b1,63f3cfca20052e4ae7554ebf,6453cdced243a2e9c08191af,2023-05-04_17h23.27.383,ga_syllabified_check,2022.2.5,Win32,60.0024001,,,,,,,,,,,,,,./stim/p03_syllable_1_pachialo_hit.wav,p03,pachialo,hit,pa-chia-lo,pa-chia-lo,pa-chi-a-lo, ,-0.399739583,-0.108072917,1,0,0,0.9199,text_option_1,,0,40,40,24,1
6167f106d8d301bd6433c8b1,63f3cfca20052e4ae7554ebf,6453cdced243a2e9c08191af,2023-05-04_17h23.27.383,ga_syllabified_check,2022.2.5,Win32,60.0024001,,,,,,,,,,,,,,./stim/p07_syllable_1_rausto_hit.wav,p07,rausto,hit,raus-to,raus-to,ra-us-to, ,-0.40234375,-0.10546875,1,0,0,1.3555,text_option_1,,0,41,41,167,1
6167f106d8d301bd6433c8b1,63f3cfca20052e4ae7554ebf,6453cdced243a2e9c08191af,2023-05-04_17h23.27.383,ga_syllabified_check,2022.2.5,Win32,60.0024001,,,,,,,,,,,,,,./stim/p08_syllable_1_nhiape_hit.wav,p08,ñiape,hit,ni-a-pe,ñia-pe,ñi-a-pe, ,0.377604167,-0.100260417,1,0,0,1.0546,text_option_2,,0,42,42,193,1
6167f106d8d301bd6433c8b1,63f3cfca20052e4ae7554ebf,6453cdced243a2e9c08191af,2023-05-04_17h23.27.383,ga_syllabified_check,2022.2.5,Win32,60.0024001,,,,,,,,,,,,,,./stim/p08_syllable_1_lakapuaisto_hit.wav,p08,lakapuaisto,hit,la-ka-pu-as-to,la-ka-puais-to,la-ka-pu-ais-to,la-ka-pua-is-to,0.3984375,-0.104166667,1,0,0,4.3488,text_option_2,,0,43,43,187,1
6167f106d8d301bd6433c8b1,63f3cfca20052e4ae7554ebf,6453cdced243a2e9c08191af,2023-05-04_17h23.27.383,ga_syllabified_check,2022.2.5,Win32,60.0024001,,,,,,,,,,,,,,./stim/p08_syllable_1_chiaba_hit.wav,p08,chiaba,hit,chi-a-ba,chia-ba,chi-a-ba, ,0.372395833,-0.095052083,1,0,0,0.9371,text_option_2,,0,44,44,170,1
6167f106d8d301bd6433c8b1,63f3cfca20052e4ae7554ebf,6453cdced243a2e9c08191af,2023-05-04_17h23.27.383,ga_syllabified_check,2022.2.5,Win32,60.0024001,,,,,,,,,,,,,,./stim/p08_syllable_1_payielo_hit.wav,p08,payielo,hit,pa-yie-lo,pa-yie-lo,pa-yi-e-lo, ,0.359375,-0.10546875,1,0,0,2.4925,text_option_2,,0,45,45,200,1
6167f106d8d301bd6433c8b1,63f3cfca20052e4ae7554ebf,6453cdced243a2e9c08191af,2023-05-04_17h23.27.383,ga_syllabified_check,2022.2.5,Win32,60.0024001,,,,,,,,,,,,,,./stim/p05_syllable_1_pachialo_hit.wav,p05,pachialo,hit,pan-chia-lo,pa-chia-lo,pa-chi-a-lo, ,0.37109375,-0.10546875,1,0,0,1.3214,text_option_2,,0,46,46,92,1
6167f106d8d301bd6433c8b1,63f3cfca20052e4ae7554ebf,6453cdced243a2e9c08191af,2023-05-04_17h23.27.383,ga_syllabified_check,2022.2.5,Win32,60.0024001,,,,,,,,,,,,,,./stim/p03_syllable_1_falufaisto_hit.wav,p03,falufaisto,hit,fa-lu-fais-to,fa-lu-fais-to,fa-lu-fa-is-to, ,-0.377604167,-0.108072917,1,0,0,3.1614,text_option_1,,0,47,47,3,1
6167f106d8d301bd6433c8b1,63f3cfca20052e4ae7554ebf,6453cdced243a2e9c08191af,2023-05-04_17h23.27.383,ga_syllabified_check,2022.2.5,Win32,60.0024001,,,,,,,,,,,,,,./stim/p04_syllable_1_lakafiaisto_hit.wav,p04,lakafiaisto,hit,la-ka-fiais-to,la-ka-fiais-to,la-ka-fi-ais-to,la-ka-fia-is-to,-0.35546875,-0.108072917,1,0,0,2.2419,text_option_1,,0,48,48,44,1
6167f106d8d301bd6433c8b1,63f3cfca20052e4ae7554ebf,6453cdced243a2e9c08191af,2023-05-04_17h23.27.383,ga_syllabified_check,2022.2.5,Win32,60.0024001,,,,,,,,,,,,,,./stim/p06_syllable_1_lakaduaisto_hit.wav,p06,lakaduaisto,hit,la-ka-du-a-is,la-ka-duais-to,la-ka-du-ais-to,la-ka-dua-is-to,0.430989583,-0.106770833,1,0,0,4.7,text_option_2,,0,49,49,111,1
6167f106d8d301bd6433c8b1,63f3cfca20052e4ae7554ebf,6453cdced243a2e9c08191af,2023-05-04_17h23.27.383,ga_syllabified_check,2022.2.5,Win32,60.0024001,,,,,,,,,,,,,,./stim/p06_syllable_1_lakaguaisto_hit.wav,p06,lakaguaisto,hit,la-ka-gu-a-is,la-ka-guais-to,la-ka-gu-ais-to,la-ka-gua-is-to,0.022135417,-0.3046875,1,0,0,12.5276,text_option_other,la-ka-gu-a-is-to,0,50,50,115,1
6167f106d8d301bd6433c8b1,63f3cfca20052e4ae7554ebf,6453cdced243a2e9c08191af,2023-05-04_17h23.27.383,ga_syllabified_check,2022.2.5,Win32,60.0024001,,,,,,,,,,,,,,./stim/p06_syllable_1_lakapiaisto_hit.wav,p06,lakapiaisto,hit,la-ka-pia-is-to,la-ka-piais-to,la-ka-pi-ais-to,la-ka-pia-is-to,0.037760417,-0.109375,1,0,0,5.1851,text_option_3,,0,51,51,118,1
6167f106d8d301bd6433c8b1,63f3cfca20052e4ae7554ebf,6453cdced243a2e9c08191af,2023-05-04_17h23.27.383,ga_syllabified_check,2022.2.5,Win32,60.0024001,,,,,,,,,,,,,,./stim/p04_syllable_1_lakabiaisto_hit.wav,p04,lakabiaisto,hit,la-ka-biais-to,la-ka-biais-to,la-ka-bi-ais-to,la-ka-bia-is-to,-0.403645833,-0.100260417,1,0,0,1.0678,text_option_1,,0,52,52,40,1
6167f106d8d301bd6433c8b1,63f3cfca20052e4ae7554ebf,6453cdced243a2e9c08191af,2023-05-04_17h23.27.383,ga_syllabified_check,2022.2.5,Win32,60.0024001,,,,,,,,,,,,,,./stim/p07_syllable_1_lakafiaisto_hit.wav,p07,lakafiaisto,hit,la-ka-fiais-to,la-ka-fiais-to,la-ka-fi-ais-to,la-ka-fia-is-to,-0.358072917,-0.110677083,1,0,0,2.5759,text_option_1,,0,53,53,146,1
6167f106d8d301bd6433c8b1,63f3cfca20052e4ae7554ebf,6453cdced243a2e9c08191af,2023-05-04_17h23.27.383,ga_syllabified_check,2022.2.5,Win32,60.0024001,,,,,,,,,,,,,,./stim/p03_syllable_1_lakabuaisto_hit.wav,p03,lakabuaisto,hit,la-ka-buais-to,la-ka-buais-to,la-ka-bu-ais-to,la-ka-bua-is-to,-0.361979167,-0.109375,1,0,0,1.2212,text_option_1,,0,54,54,7,1
6167f106d8d301bd6433c8b1,63f3cfca20052e4ae7554ebf,6453cdced243a2e9c08191af,2023-05-04_17h23.27.383,ga_syllabified_check,2022.2.5,Win32,60.0024001,,,,,,,,,,,,,,./stim/p05_syllable_1_falutraigo_hit.wav,p05,falutraigo,hit,fa-lu-trai-go,fa-lu-trai-go,fa-lu-tra-i-go, ,-0.359375,-0.108072917,1,0,0,3.4291,text_option_1,,0,55,55,72,1
6167f106d8d301bd6433c8b1,63f3cfca20052e4ae7554ebf,6453cdced243a2e9c08191af,2023-05-04_17h23.27.383,ga_syllabified_check,2022.2.5,Win32,60.0024001,,,,,,,,,,,,,,./stim/p05_syllable_1_tuliafo_hit.wav,p05,tuliafo,hit,tu-lai-fo,tu-lia-fo,tu-li-a-fo, ,-0.393229167,-0.110677083,1,0,0,1.7732,text_option_1,,0,56,56,101,1
6167f106d8d301bd6433c8b1,63f3cfca20052e4ae7554ebf,6453cdced243a2e9c08191af,2023-05-04_17h23.27.383,ga_syllabified_check,2022.2.5,Win32,60.0024001,,,,,,,,,,,,,,./stim/p03_syllable_1_lakafiaisto_hit.wav,p03,lakafiaisto,hit,la-ka-fiais-to,la-ka-fiais-to,la-ka-fi-ais-to,la-ka-fia-is-to,-0.376302083,-0.104166667,1,0,0,2.0076,text_option_1,,0,57,57,10,1
6167f106d8d301bd6433c8b1,63f3cfca20052e4ae7554ebf,6453cdced243a2e9c08191af,2023-05-04_17h23.27.383,ga_syllabified_check,2022.2.5,Win32,60.0024001,,,,,,,,,,,,,,./stim/p03_syllable_1_paluguato_hit.wav,p03,paluguato,hit,pa-lu-gua,pa-lu-gua-to,pa-lu-gu-a-to, ,-0.381510417,-0.106770833,1,0,0,1.7063,text_option_1,,0,58,58,27,1
6167f106d8d301bd6433c8b1,63f3cfca20052e4ae7554ebf,6453cdced243a2e9c08191af,2023-05-04_17h23.27.383,ga_syllabified_check,2022.2.5,Win32,60.0024001,,,,,,,,,,,,,,./stim/p07_syllable_1_lakagiaisto_hit.wav,p07,lakagiaisto,hit,la-ka-gais-to,la-ka-giais-to,la-ka-gi-ais-to,la-ka-gia-is-to,-0.372395833,-0.11328125,1,0,0,5.2692,text_option_1,,0,59,59,148,1
6167f106d8d301bd6433c8b1,63f3cfca20052e4ae7554ebf,6453cdced243a2e9c08191af,2023-05-04_17h23.27.383,ga_syllabified_check,2022.2.5,Win32,60.0024001,,,,,,,,,,,,,,./stim/p07_syllable_1_mebochiana_hit.wav,p07,mebochiana,hit,me-bo-chia-na,me-bo-chia-na,me-bo-chi-a-na, ,-0.403645833,-0.1015625,1,0,0,4.1987,text_option_1,,0,60,60,158,1
6167f106d8d301bd6433c8b1,63f3cfca20052e4ae7554ebf,6453cdced243a2e9c08191af,2023-05-04_17h23.27.383,ga_syllabified_check,2022.2.5,Win32,60.0024001,,,,,,,,,,,,,,./stim/p03_syllable_1_lakaduaisto_hit.wav,p03,lakaduaisto,hit,la-ka-duais-to,la-ka-duais-to,la-ka-du-ais-to,la-ka-dua-is-to,-0.361979167,-0.102864583,1,0,0,2.0078,text_option_1,,0,61,61,9,1
6167f106d8d301bd6433c8b1,63f3cfca20052e4ae7554ebf,6453cdced243a2e9c08191af,2023-05-04_17h23.27.383,ga_syllabified_check,2022.2.5,Win32,60.0024001,,,,,,,,,,,,,,./stim/p06_syllable_1_pachialo_hit.wav,p06,pachialo,hit,pa-shi-a-lo,pa-chia-lo,pa-chi-a-lo, ,0.39453125,-0.1015625,1,0,0,1.3887,text_option_2,,0,62,62,126,1
6167f106d8d301bd6433c8b1,63f3cfca20052e4ae7554ebf,6453cdced243a2e9c08191af,2023-05-04_17h23.27.383,ga_syllabified_check,2022.2.5,Win32,60.0024001,,,,,,,,,,,,,,./stim/p06_syllable_1_palufauto_hit.wav,p06,palufauto,hit,pa-lu-fau-to,pa-lu-fau-to,pa-lu-fa-u-to, ,-0.3671875,-0.106770833,1,0,0,3.1115,text_option_1,,0,63,63,128,1
6167f106d8d301bd6433c8b1,63f3cfca20052e4ae7554ebf,6453cdced243a2e9c08191af,2023-05-04_17h23.27.383,ga_syllabified_check,2022.2.5,Win32,60.0024001,,,,,,,,,,,,,,./stim/p07_syllable_1_lakapiaisto_hit.wav,p07,lakapiaisto,hit,la-ka-pia-sto,la-ka-piais-to,la-ka-pi-ais-to,la-ka-pia-is-to,-0.005208333,-0.102864583,1,0,0,2.8434,text_option_3,,0,64,64,152,1
6167f106d8d301bd6433c8b1,63f3cfca20052e4ae7554ebf,6453cdced243a2e9c08191af,2023-05-04_17h23.27.383,ga_syllabified_check,2022.2.5,Win32,60.0024001,,,,,,,,,,,,,,./stim/p03_syllable_1_manhiala_hit.wav,p03,mañiala,hit,ma-nhia-la,ma-ñia-la,ma-ñi-a-la, ,-0.3671875,-0.102864583,1,0,0,1.8238,text_option_1,,0,65,65,21,1
6167f106d8d301bd6433c8b1,63f3cfca20052e4ae7554ebf,6453cdced243a2e9c08191af,2023-05-04_17h23.27.383,ga_syllabified_check,2022.2.5,Win32,60.0024001,,,,,,,,,,,,,,./stim/p06_syllable_1_payielo_hit.wav,p06,payielo,hit,pa-yi-e-lo,pa-yie-lo,pa-yi-e-lo, ,0.404947917,-0.10546875,1,0,0,1.9157,text_option_2,,0,66,66,132,1
6167f106d8d301bd6433c8b1,63f3cfca20052e4ae7554ebf,6453cdced243a2e9c08191af,2023-05-04_17h23.27.383,ga_syllabified_check,2022.2.5,Win32,60.0024001,,,,,,,,,,,,,,./stim/p05_syllable_1_mebochiana_hit.wav,p05,mebochiana,hit,me-cho-chai-na,me-bo-chia-na,me-bo-chi-a-na, ,-0.334635417,-0.100260417,1,0,0,2.7097,text_option_1,,0,67,67,90,1
6167f106d8d301bd6433c8b1,63f3cfca20052e4ae7554ebf,6453cdced243a2e9c08191af,2023-05-04_17h23.27.383,ga_syllabified_check,2022.2.5,Win32,60.0024001,,,,,,,,,,,,,,./stim/p07_syllable_1_faluduako_hit.wav,p07,faluduako,hit,fa-lu-dua-ko,fa-lu-dua-ko,fa-lu-du-a-ko, ,-0.37109375,-0.104166667,1,0,0,2.2259,text_option_1,,0,68,68,138,1
6167f106d8d301bd6433c8b1,63f3cfca20052e4ae7554ebf,6453cdced243a2e9c08191af,2023-05-04_17h23.27.383,ga_syllabified_check,2022.2.5,Win32,60.0024001,,,,,,,,,,,,,,./stim/p07_syllable_1_lakatiaisto_hit.wav,p07,lakatiaisto,hit,la-ka-tiai-sto,la-ka-tiais-to,la-ka-ti-ais-to,la-ka-tia-is-to,-0.352864583,-0.10546875,1,0,0,3.2939,text_option_1,,0,69,69,154,1
6167f106d8d301bd6433c8b1,63f3cfca20052e4ae7554ebf,6453cdced243a2e9c08191af,2023-05-04_17h23.27.383,ga_syllabified_check,2022.2.5,Win32,60.0024001,,,,,,,,,,,,,,./stim/p04_syllable_1_nhiape_hit.wav,p04,ñiape,hit,nhia-pe,ñia-pe,ñi-a-pe, ,-0.40234375,-0.100260417,1,0,0,0.435,text_option_1,,0,70,70,57,1
6167f106d8d301bd6433c8b1,63f3cfca20052e4ae7554ebf,6453cdced243a2e9c08191af,2023-05-04_17h23.27.383,ga_syllabified_check,2022.2.5,Win32,60.0024001,,,,,,,,,,,,,,./stim/p08_syllable_1_rausto_hit.wav,p08,rausto,hit,raus-to,raus-to,ra-us-to, ,-0.411458333,-0.102864583,1,0,0,1.6395,text_option_1,,0,71,71,201,1
6167f106d8d301bd6433c8b1,63f3cfca20052e4ae7554ebf,6453cdced243a2e9c08191af,2023-05-04_17h23.27.383,ga_syllabified_check,2022.2.5,Win32,60.0024001,,,,,,,,,,,,,,./stim/p07_syllable_1_lakabuaisto_hit.wav,p07,lakabuaisto,hit,la-ka-buais-to,la-ka-buais-to,la-ka-bu-ais-to,la-ka-bua-is-to,-0.33984375,-0.110677083,1,0,0,3.0611,text_option_1,,0,72,72,143,1
6167f106d8d301bd6433c8b1,63f3cfca20052e4ae7554ebf,6453cdced243a2e9c08191af,2023-05-04_17h23.27.383,ga_syllabified_check,2022.2.5,Win32,60.0024001,,,,,,,,,,,,,,./stim/p03_syllable_1_ruyiola_hit.wav,p03,ruyiola,hit,ru-yio-la,ru-yio-la,ru-yi-o-la, ,-0.381510417,-0.095052083,1,0,0,1.6058,text_option_1,,0,73,73,32,1
6167f106d8d301bd6433c8b1,63f3cfca20052e4ae7554ebf,6453cdced243a2e9c08191af,2023-05-04_17h23.27.383,ga_syllabified_check,2022.2.5,Win32,60.0024001,,,,,,,,,,,,,,./stim/p06_syllable_1_falufaisto_hit.wav,p06,falufaisto,hit,fa-lu-fa-is-to,fa-lu-fais-to,fa-lu-fa-is-to, ,0.389322917,-0.109375,1,0,0,2.258,text_option_2,,0,74,74,105,1
6167f106d8d301bd6433c8b1,63f3cfca20052e4ae7554ebf,6453cdced243a2e9c08191af,2023-05-04_17h23.27.383,ga_syllabified_check,2022.2.5,Win32,60.0024001,,,,,,,,,,,,,,./stim/p05_syllable_1_palufauro_hit.wav,p05,palufauro,hit,pa-lu-fau-ro,pa-lu-fau-ro,pa-lu-fa-u-ro, ,-0.375,-0.1015625,1,0,0,1.1379,text_option_1,,0,75,75,93,1
6167f106d8d301bd6433c8b1,63f3cfca20052e4ae7554ebf,6453cdced243a2e9c08191af,2023-05-04_17h23.27.383,ga_syllabified_check,2022.2.5,Win32,60.0024001,,,,,,,,,,,,,,./stim/p07_syllable_1_lakaguaisto_hit.wav,p07,lakaguaisto,hit,la-ka-guais-to,la-ka-guais-to,la-ka-gu-ais-to,la-ka-gua-is-to,-0.352864583,-0.11328125,1,0,0,1.8236,text_option_1,,0,76,76,149,1
6167f106d8d301bd6433c8b1,63f3cfca20052e4ae7554ebf,6453cdced243a2e9c08191af,2023-05-04_17h23.27.383,ga_syllabified_check,2022.2.5,Win32,60.0024001,,,,,,,,,,,,,,./stim/p08_syllable_1_lakatiaisto_hit.wav,p08,lakatiaisto,hit,la-ka-ti-as-to,la-ka-tiais-to,la-ka-ti-ais-to,la-ka-tia-is-to,0.401041667,-0.102864583,1,0,0,5.2683,text_option_2,,0,77,77,188,1
6167f106d8d301bd6433c8b1,63f3cfca20052e4ae7554ebf,6453cdced243a2e9c08191af,2023-05-04_17h23.27.383,ga_syllabified_check,2022.2.5,Win32,60.0024001,,,,,,,,,,,,,,./stim/p07_syllable_1_paluguato_hit.wav,p07,paluguato,hit,pa-lu-gua-to,pa-lu-gua-to,pa-lu-gu-a-to, ,-0.380208333,-0.09765625,1,0,0,1.7063,text_option_1,,0,78,78,163,1
6167f106d8d301bd6433c8b1,63f3cfca20052e4ae7554ebf,6453cdced243a2e9c08191af,2023-05-04_17h23.27.383,ga_syllabified_check,2022.2.5,Win32,60.0024001,,,,,,,,,,,,,,./stim/p04_syllable_1_lakadiaisto_hit.wav,p04,lakadiaisto,hit,la-ka-dias-to,la-ka-diais-to,la-ka-di-ais-to,la-ka-dia-is-to,-0.346354167,-0.096354167,1,0,0,2.3583,text_option_1,,0,79,79,42,1
6167f106d8d301bd6433c8b1,63f3cfca20052e4ae7554ebf,6453cdced243a2e9c08191af,2023-05-04_17h23.27.383,ga_syllabified_check,2022.2.5,Win32,60.0024001,,,,,,,,,,,,,,./stim/p04_syllable_1_tuliafo_hit.wav,p04,tuliafo,hit,tu-lia-fo,tu-lia-fo,tu-li-a-fo, ,-0.390625,-0.1015625,1,0,0,1.0373,text_option_1,,0,80,80,67,1
6167f106d8d301bd6433c8b1,63f3cfca20052e4ae7554ebf,6453cdced243a2e9c08191af,2023-05-04_17h23.27.383,ga_syllabified_check,2022.2.5,Win32,60.0024001,,,,,,,,,,,,,,./stim/p05_syllable_1_lakapiaisto_hit.wav,p05,lakapiaisto,hit,la-ka-pais-to,la-ka-piais-to,la-ka-pi-ais-to,la-ka-pia-is-to,0.365885417,-0.110677083,1,0,0,4.5664,text_option_2,,0,81,81,84,1
6167f106d8d301bd6433c8b1,63f3cfca20052e4ae7554ebf,6453cdced243a2e9c08191af,2023-05-04_17h23.27.383,ga_syllabified_check,2022.2.5,Win32,60.0024001,,,,,,,,,,,,,,./stim/p08_syllable_1_lakadiaisto_hit.wav,p08,lakadiaisto,hit,la-ka-di-jas-to,la-ka-diais-to,la-ka-di-ais-to,la-ka-dia-is-to,-0.00390625,-0.106770833,1,0,0,3.8805,text_option_3,,0,82,82,178,1
6167f106d8d301bd6433c8b1,63f3cfca20052e4ae7554ebf,6453cdced243a2e9c08191af,2023-05-04_17h23.27.383,ga_syllabified_check,2022.2.5,Win32,60.0024001,,,,,,,,,,,,,,./stim/p05_syllable_1_lakaduaisto_hit.wav,p05,lakaduaisto,hit,la-ka-dais-to,la-ka-duais-to,la-ka-du-ais-to,la-ka-dua-is-to,-0.3515625,-0.102864583,1,0,0,2.5438,text_option_1,,0,83,83,77,1
6167f106d8d301bd6433c8b1,63f3cfca20052e4ae7554ebf,6453cdced243a2e9c08191af,2023-05-04_17h23.27.383,ga_syllabified_check,2022.2.5,Win32,60.0024001,,,,,,,,,,,,,,./stim/p07_syllable_1_lliape_hit.wav,p07,lliape,hit,lliai-pe,llia-pe,lli-a-pe, ,-0.375,-0.106770833,1,0,0,3.0604,text_option_1,,0,84,84,156,1
6167f106d8d301bd6433c8b1,63f3cfca20052e4ae7554ebf,6453cdced243a2e9c08191af,2023-05-04_17h23.27.383,ga_syllabified_check,2022.2.5,Win32,60.0024001,,,,,,,,,,,,,,./stim/p08_syllable_1_lakabiaisto_hit.wav,p08,lakabiaisto,hit,la-ka-bi-as-to,la-ka-biais-to,la-ka-bi-ais-to,la-ka-bia-is-to,0.40625,-0.100260417,1,0,0,4.0145,text_option_2,,0,85,85,176,1
6167f106d8d301bd6433c8b1,63f3cfca20052e4ae7554ebf,6453cdced243a2e9c08191af,2023-05-04_17h23.27.383,ga_syllabified_check,2022.2.5,Win32,60.0024001,,,,,,,,,,,,,,./stim/p05_syllable_1_lliape_hit.wav,p05,lliape,hit,liai-pe,llia-pe,lli-a-pe, ,-0.424479167,-0.110677083,1,0,0,2.0067,text_option_1,,0,86,86,88,1
6167f106d8d301bd6433c8b1,63f3cfca20052e4ae7554ebf,6453cdced243a2e9c08191af,2023-05-04_17h23.27.383,ga_syllabified_check,2022.2.5,Win32,60.0024001,,,,,,,,,,,,,,./stim/p08_syllable_1_lakafiaisto_hit.wav,p08,lakafiaisto,hit,la-ka-fi-as-to,la-ka-fiais-to,la-ka-fi-ais-to,la-ka-fia-is-to,-0.35546875,-0.1015625,1,0,0,4.2833,text_option_1,,0,87,87,180,1
6167f106d8d301bd6433c8b1,63f3cfca20052e4ae7554ebf,6453cdced243a2e9c08191af,2023-05-04_17h23.27.383,ga_syllabified_check,2022.2.5,Win32,60.0024001,,,,,,,,,,,,,,./stim/p06_syllable_1_nhiape_hit.wav,p06,ñiape,hit,nhi-a-pe,ñia-pe,ñi-a-pe, ,0.412760417,-0.109375,1,0,0,1.4388,text_option_2,,0,88,88,125,1
6167f106d8d301bd6433c8b1,63f3cfca20052e4ae7554ebf,6453cdced243a2e9c08191af,2023-05-04_17h23.27.383,ga_syllabified_check,2022.2.5,Win32,60.0024001,,,,,,,,,,,,,,./stim/p05_syllable_1_lakapuaisto_hit.wav,p05,lakapuaisto,hit,la-ka-pais-to,la-ka-puais-to,la-ka-pu-ais-to,la-ka-pua-is-to,-0.361979167,-0.100260417,1,0,0,3.5288,text_option_1,,0,89,89,85,1
6167f106d8d301bd6433c8b1,63f3cfca20052e4ae7554ebf,6453cdced243a2e9c08191af,2023-05-04_17h23.27.383,ga_syllabified_check,2022.2.5,Win32,60.0024001,,,,,,,,,,,,,,./stim/p06_syllable_1_lakagiaisto_hit.wav,p06,lakagiaisto,hit,la-ka-gia-is-to,la-ka-giais-to,la-ka-gi-ais-to,la-ka-gia-is-to,0,-0.108072917,1,0,0,3.9475,text_option_3,,0,90,90,114,1
6167f106d8d301bd6433c8b1,63f3cfca20052e4ae7554ebf,6453cdced243a2e9c08191af,2023-05-04_17h23.27.383,ga_syllabified_check,2022.2.5,Win32,60.0024001,,,,,,,,,,,,,,./stim/p06_syllable_1_lakatuaisto_hit.wav,p06,lakatuaisto,hit,la-ka-tu-a-is,la-ka-tuais-to,la-ka-tu-ais-to,la-ka-tua-is-to,0.369791667,-0.104166667,1,0,0,3.8972,text_option_2,,0,91,91,121,1
6167f106d8d301bd6433c8b1,63f3cfca20052e4ae7554ebf,6453cdced243a2e9c08191af,2023-05-04_17h23.27.383,ga_syllabified_check,2022.2.5,Win32,60.0024001,,,,,,,,,,,,,,./stim/p04_syllable_1_falutraigo_hit.wav,p04,falutraigo,hit,fa-lu-trai-go,fa-lu-trai-go,fa-lu-tra-i-go, ,-0.385416667,-0.1015625,1,0,0,1.774,text_option_1,,0,92,92,38,1
6167f106d8d301bd6433c8b1,63f3cfca20052e4ae7554ebf,6453cdced243a2e9c08191af,2023-05-04_17h23.27.383,ga_syllabified_check,2022.2.5,Win32,60.0024001,,,,,,,,,,,,,,./stim/p08_syllable_1_ruyiola_hit.wav,p08,ruyiola,hit,ru-yio-la,ru-yio-la,ru-yi-o-la, ,-0.385416667,-0.106770833,1,0,0,2.0913,text_option_1,,0,93,93,202,1
6167f106d8d301bd6433c8b1,63f3cfca20052e4ae7554ebf,6453cdced243a2e9c08191af,2023-05-04_17h23.27.383,ga_syllabified_check,2022.2.5,Win32,60.0024001,,,,,,,,,,,,,,./stim/p06_syllable_1_lakabiaisto_hit.wav,p06,lakabiaisto,hit,la-ka-bia-is-to,la-ka-biais-to,la-ka-bi-ais-to,la-ka-bia-is-to,0.020833333,-0.109375,1,0,0,3.8629,text_option_3,,0,94,94,108,1
6167f106d8d301bd6433c8b1,63f3cfca20052e4ae7554ebf,6453cdced243a2e9c08191af,2023-05-04_17h23.27.383,ga_syllabified_check,2022.2.5,Win32,60.0024001,,,,,,,,,,,,,,./stim/p08_syllable_1_tuliafo_hit.wav,p08,tuliafo,hit,tu-li-a-fo,tu-lia-fo,tu-li-a-fo, ,0.395833333,-0.109375,1,0,0,1.9242,text_option_2,,0,95,95,203,1
6167f106d8d301bd6433c8b1,63f3cfca20052e4ae7554ebf,6453cdced243a2e9c08191af,2023-05-04_17h23.27.383,ga_syllabified_check,2022.2.5,Win32,60.0024001,,,,,,,,,,,,,,./stim/p03_syllable_1_palutrauco_hit.wav,p03,palutrauco,hit,pa-lu-trau-co,pa-lu-trau-co,pa-lu-tra-u-co, ,-0.37109375,-0.109375,1,0,0,1.4889,text_option_1,,0,96,96,29,1
6167f106d8d301bd6433c8b1,63f3cfca20052e4ae7554ebf,6453cdced243a2e9c08191af,2023-05-04_17h23.27.383,ga_syllabified_check,2022.2.5,Win32,60.0024001,,,,,,,,,,,,,,./stim/p04_syllable_1_ruyiola_hit.wav,p04,ruyiola,hit,ru-yio-la,ru-yio-la,ru-yi-o-la, ,-0.39453125,-0.104166667,1,0,0,0.9038,text_option_1,,0,97,97,66,1
6167f106d8d301bd6433c8b1,63f3cfca20052e4ae7554ebf,6453cdced243a2e9c08191af,2023-05-04_17h23.27.383,ga_syllabified_check,2022.2.5,Win32,60.0024001,,,,,,,,,,,,,,./stim/p05_syllable_1_lakafiaisto_hit.wav,p05,lakafiaisto,hit,la-ka-fi-ais-to,la-ka-fiais-to,la-ka-fi-ais-to,la-ka-fia-is-to,-0.359375,-0.108072917,1,0,0,1.9482,text_option_1,,0,98,98,78,1
6167f106d8d301bd6433c8b1,63f3cfca20052e4ae7554ebf,6453cdced243a2e9c08191af,2023-05-04_17h23.27.383,ga_syllabified_check,2022.2.5,Win32,60.0024001,,,,,,,,,,,,,,./stim/p06_syllable_1_palumaisto_hit.wav,p06,palumaisto,hit,pa-lu-ma-is-to,pa-lu-mais-to,pa-lu-ma-is-to, ,0.388020833,-0.1015625,1,0,0,3.0275,text_option_2,,0,99,99,130,1
6167f106d8d301bd6433c8b1,63f3cfca20052e4ae7554ebf,6453cdced243a2e9c08191af,2023-05-04_17h23.27.383,ga_syllabified_check,2022.2.5,Win32,60.0024001,,,,,,,,,,,,,,./stim/p07_syllable_1_manhiala_hit.wav,p07,mañiala,hit,ma-nhia-la,ma-ñia-la,ma-ñi-a-la, ,-0.3828125,-0.106770833,1,0,0,1.3216,text_option_1,,0,100,100,157,1
6167f106d8d301bd6433c8b1,63f3cfca20052e4ae7554ebf,6453cdced243a2e9c08191af,2023-05-04_17h23.27.383,ga_syllabified_check,2022.2.5,Win32,60.0024001,,,,,,,,,,,,,,./stim/p05_syllable_1_falufaisto_hit.wav,p05,falufaisto,hit,fa-lu-fais-to,fa-lu-fais-to,fa-lu-fa-is-to, ,-0.372395833,-0.10546875,1,0,0,0.87,text_option_1,,0,101,101,71,1
6167f106d8d301bd6433c8b1,63f3cfca20052e4ae7554ebf,6453cdced243a2e9c08191af,2023-05-04_17h23.27.383,ga_syllabified_check,2022.2.5,Win32,60.0024001,,,,,,,,,,,,,,./stim/p06_syllable_1_mebochiana_hit.wav,p06,mebochiana,hit,me-bo-shi-a-na,me-bo-chia-na,me-bo-chi-a-na, ,0.389322917,-0.098958333,1,0,0,3.0782,text_option_2,,0,102,102,124,1
6167f106d8d301bd6433c8b1,63f3cfca20052e4ae7554ebf,6453cdced243a2e9c08191af,2023-05-04_17h23.27.383,ga_syllabified_check,2022.2.5,Win32,60.0024001,,,,,,,,,,,,,,./stim/p05_syllable_1_payielo_hit.wav,p05,payielo,hit,pai-yu-we-lo,pa-yie-lo,pa-yi-e-lo, ,-0.3828125,-0.108072917,1,0,0,0.8535,text_option_1,,0,103,103,98,1
6167f106d8d301bd6433c8b1,63f3cfca20052e4ae7554ebf,6453cdced243a2e9c08191af,2023-05-04_17h23.27.383,ga_syllabified_check,2022.2.5,Win32,60.0024001,,,,,,,,,,,,,,./stim/p03_syllable_1_rausto_hit.wav,p03,rausto,hit,raus-to,raus-to,ra-us-to, ,-0.420572917,-0.100260417,1,0,0,0.683,text_option_1,,0,104,104,31,1
6167f106d8d301bd6433c8b1,63f3cfca20052e4ae7554ebf,6453cdced243a2e9c08191af,2023-05-04_17h23.27.383,ga_syllabified_check,2022.2.5,Win32,60.0024001,,,,,,,,,,,,,,./stim/p04_syllable_1_falufaisto_hit.wav,p04,falufaisto,hit,fa-lu-fais-to,fa-lu-fais-to,fa-lu-fa-is-to, ,-0.38671875,-0.096354167,1,0,0,0.8865,text_option_1,,0,105,105,37,1
6167f106d8d301bd6433c8b1,63f3cfca20052e4ae7554ebf,6453cdced243a2e9c08191af,2023-05-04_17h23.27.383,ga_syllabified_check,2022.2.5,Win32,60.0024001,,,,,,,,,,,,,,./stim/p05_syllable_1_lakadiaisto_hit.wav,p05,lakadiaisto,hit,la-ka-di-ais-to,la-ka-diais-to,la-ka-di-ais-to,la-ka-dia-is-to,0.028645833,-0.111979167,1,0,0,4.1977,text_option_3,,0,106,106,76,1
6167f106d8d301bd6433c8b1,63f3cfca20052e4ae7554ebf,6453cdced243a2e9c08191af,2023-05-04_17h23.27.383,ga_syllabified_check,2022.2.5,Win32,60.0024001,,,,,,,,,,,,,,./stim/p08_syllable_1_palufauro_hit.wav,p08,palufauro,hit,pa-lu-fau-ro,pa-lu-fau-ro,pa-lu-fa-u-ro, ,-0.388020833,-0.110677083,1,0,0,2.4925,text_option_1,,0,107,107,195,1
6167f106d8d301bd6433c8b1,63f3cfca20052e4ae7554ebf,6453cdced243a2e9c08191af,2023-05-04_17h23.27.383,ga_syllabified_check,2022.2.5,Win32,60.0024001,,,,,,,,,,,,,,./stim/p06_syllable_1_palutrauco_hit.wav,p06,palutrauco,hit,pa-lu-tra-u-co,pa-lu-trau-co,pa-lu-tra-u-co, ,0.380208333,-0.108072917,1,0,0,2.3083,text_option_2,,0,108,108,131,1
6167f106d8d301bd6433c8b1,63f3cfca20052e4ae7554ebf,6453cdced243a2e9c08191af,2023-05-04_17h23.27.383,ga_syllabified_check,2022.2.5,Win32,60.0024001,,,,,,,,,,,,,,./stim/p08_syllable_1_palumaisto_hit.wav,p08,palumaisto,hit,pa-lu-mais-to,pa-lu-mais-to,pa-lu-ma-is-to, ,-0.385416667,-0.108072917,1,0,0,2.074,text_option_1,,0,109,109,198,1
6167f106d8d301bd6433c8b1,63f3cfca20052e4ae7554ebf,6453cdced243a2e9c08191af,2023-05-04_17h23.27.383,ga_syllabified_check,2022.2.5,Win32,60.0024001,,,,,,,,,,,,,,./stim/p05_syllable_1_costonhialo_hit.wav,p05,costoñialo,hit,cos-to-nhia-lo,cos-to-ñia-lo,cos-to-ñi-a-lo, ,-0.346354167,-0.098958333,1,0,0,1.9741,text_option_1,,0,110,110,69,1
6167f106d8d301bd6433c8b1,63f3cfca20052e4ae7554ebf,6453cdced243a2e9c08191af,2023-05-04_17h23.27.383,ga_syllabified_check,2022.2.5,Win32,60.0024001,,,,,,,,,,,,,,./stim/p06_syllable_1_chiaba_hit.wav,p06,chiaba,hit,chi-a-ba,chia-ba,chi-a-ba, ,-0.390625,-0.104166667,1,0,0,1.8232,text_option_1,,0,111,111,102,1
6167f106d8d301bd6433c8b1,63f3cfca20052e4ae7554ebf,6453cdced243a2e9c08191af,2023-05-04_17h23.27.383,ga_syllabified_check,2022.2.5,Win32,60.0024001,,,,,,,,,,,,,,./stim/p03_syllable_1_palufauro_hit.wav,p03,palufauro,hit,pa-lu-fau-ro,pa-lu-fau-ro,pa-lu-fa-u-ro, ,-0.36328125,-0.1171875,1,0,0,1.2696,text_option_1,,0,112,112,25,1
6167f106d8d301bd6433c8b1,63f3cfca20052e4ae7554ebf,6453cdced243a2e9c08191af,2023-05-04_17h23.27.383,ga_syllabified_check,2022.2.5,Win32,60.0024001,,,,,,,,,,,,,,./stim/p04_syllable_1_costonhialo_hit.wav,p04,costoñialo,hit,cos-to-nhia-lo,cos-to-ñia-lo,cos-to-ñi-a-lo, ,-0.358072917,-0.110677083,1,0,0,1.5224,text_option_1,,0,113,113,35,1
6167f106d8d301bd6433c8b1,63f3cfca20052e4ae7554ebf,6453cdced243a2e9c08191af,2023-05-04_17h23.27.383,ga_syllabified_check,2022.2.5,Win32,60.0024001,,,,,,,,,,,,,,./stim/p07_syllable_1_tuliafo_hit.wav,p07,tuliafo,hit,tu-lia-fo,tu-lia-fo,tu-li-a-fo, ,-0.40625,-0.1015625,1,0,0,0.8033,text_option_1,,0,114,114,169,1
6167f106d8d301bd6433c8b1,63f3cfca20052e4ae7554ebf,6453cdced243a2e9c08191af,2023-05-04_17h23.27.383,ga_syllabified_check,2022.2.5,Win32,60.0024001,,,,,,,,,,,,,,./stim/p03_syllable_1_tuliafo_hit.wav,p03,tuliafo,hit,tu-lia-fo,tu-lia-fo,tu-li-a-fo, ,-0.384114583,-0.108072917,1,0,0,1.3724,text_option_1,,0,115,115,33,1
6167f106d8d301bd6433c8b1,63f3cfca20052e4ae7554ebf,6453cdced243a2e9c08191af,2023-05-04_17h23.27.383,ga_syllabified_check,2022.2.5,Win32,60.0024001,,,,,,,,,,,,,,./stim/p05_syllable_1_lakatuaisto_hit.wav,p05,lakatuaisto,hit,la-ka-tais-to,la-ka-tuais-to,la-ka-tu-ais-to,la-ka-tua-is-to,-0.376302083,-0.104166667,1,0,0,2.5261,text_option_1,,0,116,116,87,1
6167f106d8d301bd6433c8b1,63f3cfca20052e4ae7554ebf,6453cdced243a2e9c08191af,2023-05-04_17h23.27.383,ga_syllabified_check,2022.2.5,Win32,60.0024001,,,,,,,,,,,,,,./stim/p07_syllable_1_lakakuaisto_hit.wav,p07,lakakuaisto,hit,la-ka-kuais-to,la-ka-kuais-to,la-ka-ku-ais-to,la-ka-kua-is-to,-0.369791667,-0.100260417,1,0,0,2.1415,text_option_1,,0,117,117,151,1
6167f106d8d301bd6433c8b1,63f3cfca20052e4ae7554ebf,6453cdced243a2e9c08191af,2023-05-04_17h23.27.383,ga_syllabified_check,2022.2.5,Win32,60.0024001,,,,,,,,,,,,,,./stim/p04_syllable_1_lakaguaisto_hit.wav,p04,lakaguaisto,hit,la-ka-guais-to,la-ka-guais-to,la-ka-gu-ais-to,la-ka-gua-is-to,-0.350260417,-0.110677083,1,0,0,1.2548,text_option_1,,0,118,118,47,1
6167f106d8d301bd6433c8b1,63f3cfca20052e4ae7554ebf,6453cdced243a2e9c08191af,2023-05-04_17h23.27.383,ga_syllabified_check,2022.2.5,Win32,60.0024001,,,,,,,,,,,,,,./stim/p04_syllable_1_chiaba_hit.wav,p04,chiaba,hit,chia-ba,chia-ba,chi-a-ba, ,-0.384114583,-0.102864583,1,0,0,0.318,text_option_1,,0,119,119,34,1
6167f106d8d301bd6433c8b1,63f3cfca20052e4ae7554ebf,6453cdced243a2e9c08191af,2023-05-04_17h23.27.383,ga_syllabified_check,2022.2.5,Win32,60.0024001,,,,,,,,,,,,,,./stim/p05_syllable_1_lakakuaisto_hit.wav,p05,lakakuaisto,hit,la-ka-kais-to,la-ka-kuais-to,la-ka-ku-ais-to,la-ka-kua-is-to,-0.34765625,-0.106770833,1,0,0,3.0443,text_option_1,,0,120,120,83,1
6167f106d8d301bd6433c8b1,63f3cfca20052e4ae7554ebf,6453cdced243a2e9c08191af,2023-05-04_17h23.27.383,ga_syllabified_check,2022.2.5,Win32,60.0024001,,,,,,,,,,,,,,./stim/p08_syllable_1_falufaisto_hit.wav,p08,falufaisto,hit,fa-lu-fais-to,fa-lu-fais-to,fa-lu-fa-is-to, ,-0.385416667,-0.110677083,1,0,0,2.9104,text_option_1,,0,121,121,173,1
6167f106d8d301bd6433c8b1,63f3cfca20052e4ae7554ebf,6453cdced243a2e9c08191af,2023-05-04_17h23.27.383,ga_syllabified_check,2022.2.5,Win32,60.0024001,,,,,,,,,,,,,,./stim/p06_syllable_1_lakatiaisto_hit.wav,p06,lakatiaisto,hit,la-ka-pia-is-to,la-ka-tiais-to,la-ka-ti-ais-to,la-ka-tia-is-to,0.0078125,-0.108072917,1,0,0,3.1785,text_option_3,,0,122,122,120,1
6167f106d8d301bd6433c8b1,63f3cfca20052e4ae7554ebf,6453cdced243a2e9c08191af,2023-05-04_17h23.27.383,ga_syllabified_check,2022.2.5,Win32,60.0024001,,,,,,,,,,,,,,./stim/p05_syllable_1_lakabuaisto_hit.wav,p05,lakabuaisto,hit,la-ka-buais-to,la-ka-buais-to,la-ka-bu-ais-to,la-ka-bua-is-to,-0.34765625,-0.11328125,1,0,0,1.8911,text_option_1,,0,123,123,75,1
6167f106d8d301bd6433c8b1,63f3cfca20052e4ae7554ebf,6453cdced243a2e9c08191af,2023-05-04_17h23.27.383,ga_syllabified_check,2022.2.5,Win32,60.0024001,,,,,,,,,,,,,,./stim/p06_syllable_1_rausto_hit.wav,p06,rausto,hit,ra-us-to,raus-to,ra-us-to, ,0.384114583,-0.104166667,1,0,0,2.7921,text_option_2,,0,124,124,133,1
6167f106d8d301bd6433c8b1,63f3cfca20052e4ae7554ebf,6453cdced243a2e9c08191af,2023-05-04_17h23.27.383,ga_syllabified_check,2022.2.5,Win32,60.0024001,,,,,,,,,,,,,,./stim/p06_syllable_1_lakapuaisto_hit.wav,p06,lakapuaisto,hit,la-ka-pu-a-is,la-ka-puais-to,la-ka-pu-ais-to,la-ka-pua-is-to,0.454427083,-0.11328125,1,0,0,5.0692,text_option_2,,0,125,125,119,1
6167f106d8d301bd6433c8b1,63f3cfca20052e4ae7554ebf,6453cdced243a2e9c08191af,2023-05-04_17h23.27.383,ga_syllabified_check,2022.2.5,Win32,60.0024001,,,,,,,,,,,,,,./stim/p05_syllable_1_lakabiaisto_hit.wav,p05,lakabiaisto,hit,la-ka-bi-ais-to,la-ka-biais-to,la-ka-bi-ais-to,la-ka-bia-is-to,-0.381510417,-0.100260417,1,0,0,1.6558,text_option_1,,0,126,126,74,1
6167f106d8d301bd6433c8b1,63f3cfca20052e4ae7554ebf,6453cdced243a2e9c08191af,2023-05-04_17h23.27.383,ga_syllabified_check,2022.2.5,Win32,60.0024001,,,,,,,,,,,,,,./stim/p05_syllable_1_lakakiaisto_hit.wav,p05,lakakiaisto,hit,la-ka-ki-ais-to,la-ka-kiais-to,la-ka-ki-ais-to,la-ka-kia-is-to,-0.376302083,-0.108072917,1,0,0,1.2211,text_option_1,,0,127,127,82,1
6167f106d8d301bd6433c8b1,63f3cfca20052e4ae7554ebf,6453cdced243a2e9c08191af,2023-05-04_17h23.27.383,ga_syllabified_check,2022.2.5,Win32,60.0024001,,,,,,,,,,,,,,./stim/p05_syllable_1_manhiala_hit.wav,p05,mañiala,hit,ma-nhia-la,ma-ñia-la,ma-ñi-a-la, ,-0.380208333,-0.108072917,1,0,0,3.0281,text_option_1,,0,128,128,89,1
6167f106d8d301bd6433c8b1,63f3cfca20052e4ae7554ebf,6453cdced243a2e9c08191af,2023-05-04_17h23.27.383,ga_syllabified_check,2022.2.5,Win32,60.0024001,,,,,,,,,,,,,,./stim/p04_syllable_1_lliape_hit.wav,p04,lliape,hit,lia-pe,llia-pe,lli-a-pe, ,-0.41015625,-0.098958333,1,0,0,0.6023,text_option_1,,0,129,129,54,1
6167f106d8d301bd6433c8b1,63f3cfca20052e4ae7554ebf,6453cdced243a2e9c08191af,2023-05-04_17h23.27.383,ga_syllabified_check,2022.2.5,Win32,60.0024001,,,,,,,,,,,,,,./stim/p08_syllable_1_lakatuaisto_hit.wav,p08,lakatuaisto,hit,la-ka-tu-i-jis,la-ka-tuais-to,la-ka-tu-ais-to,la-ka-tua-is-to,-0.3515625,-0.109375,1,0,0,4.8846,text_option_1,,0,130,130,189,1
6167f106d8d301bd6433c8b1,63f3cfca20052e4ae7554ebf,6453cdced243a2e9c08191af,2023-05-04_17h23.27.383,ga_syllabified_check,2022.2.5,Win32,60.0024001,,,,,,,,,,,,,,./stim/p03_syllable_1_lakapuaisto_hit.wav,p03,lakapuaisto,hit,la-ka-puais-to,la-ka-puais-to,la-ka-pu-ais-to,la-ka-pua-is-to,-0.37109375,-0.108072917,1,0,0,1.2887,text_option_1,,0,131,131,17,1
6167f106d8d301bd6433c8b1,63f3cfca20052e4ae7554ebf,6453cdced243a2e9c08191af,2023-05-04_17h23.27.383,ga_syllabified_check,2022.2.5,Win32,60.0024001,,,,,,,,,,,,,,./stim/p06_syllable_1_lakafuaisto_hit.wav,p06,lakafuaisto,hit,la-ka-fu-a-is,la-ka-fuais-to,la-ka-fu-ais-to,la-ka-fua-is-to,0.451822917,-0.106770833,1,0,0,4.1148,text_option_2,,0,132,132,113,1
6167f106d8d301bd6433c8b1,63f3cfca20052e4ae7554ebf,6453cdced243a2e9c08191af,2023-05-04_17h23.27.383,ga_syllabified_check,2022.2.5,Win32,60.0024001,,,,,,,,,,,,,,./stim/p04_syllable_1_manhiala_hit.wav,p04,mañiala,hit,ma-nhia-la,ma-ñia-la,ma-ñi-a-la, ,-0.381510417,-0.102864583,1,0,0,2.1758,text_option_1,,0,133,133,55,1
6167f106d8d301bd6433c8b1,63f3cfca20052e4ae7554ebf,6453cdced243a2e9c08191af,2023-05-04_17h23.27.383,ga_syllabified_check,2022.2.5,Win32,60.0024001,,,,,,,,,,,,,,./stim/p03_syllable_1_lakatuaisto_hit.wav,p03,lakatuaisto,hit,la-ka-tuais-to,la-ka-tuais-to,la-ka-tu-ais-to,la-ka-tua-is-to,-0.365885417,-0.098958333,1,0,0,1.6059,text_option_1,,0,134,134,19,1
6167f106d8d301bd6433c8b1,63f3cfca20052e4ae7554ebf,6453cdced243a2e9c08191af,2023-05-04_17h23.27.383,ga_syllabified_check,2022.2.5,Win32,60.0024001,,,,,,,,,,,,,,./stim/p07_syllable_1_falufaisto_hit.wav,p07,falufaisto,hit,fa-lu-fais-to,fa-lu-fais-to,fa-lu-fa-is-to, ,-0.37109375,-0.106770833,1,0,0,2.2931,text_option_1,,0,135,135,139,1
6167f106d8d301bd6433c8b1,63f3cfca20052e4ae7554ebf,6453cdced243a2e9c08191af,2023-05-04_17h23.27.383,ga_syllabified_check,2022.2.5,Win32,60.0024001,,,,,,,,,,,,,,./stim/p08_syllable_1_flauro_hit.wav,p08,flauro,hit,flau-ro,flau-ro,fla-u-ro, ,-0.3984375,-0.096354167,1,0,0,0.7692,text_option_1,,0,136,136,175,1
6167f106d8d301bd6433c8b1,63f3cfca20052e4ae7554ebf,6453cdced243a2e9c08191af,2023-05-04_17h23.27.383,ga_syllabified_check,2022.2.5,Win32,60.0024001,,,,,,,,,,,,,,./stim/p04_syllable_1_flauro_hit.wav,p04,flauro,hit,flau-ro,flau-ro,fla-u-ro, ,-0.3828125,-0.1015625,1,0,0,0.618,text_option_1,,0,137,137,39,1
6167f106d8d301bd6433c8b1,63f3cfca20052e4ae7554ebf,6453cdced243a2e9c08191af,2023-05-04_17h23.27.383,ga_syllabified_check,2022.2.5,Win32,60.0024001,,,,,,,,,,,,,,./stim/p05_syllable_1_chiaba_hit.wav,p05,chiaba,hit,chia-ba,chia-ba,chi-a-ba, ,-0.3984375,-0.102864583,1,0,0,0.6356,text_option_1,,0,138,138,68,1
6167f106d8d301bd6433c8b1,63f3cfca20052e4ae7554ebf,6453cdced243a2e9c08191af,2023-05-04_17h23.27.383,ga_syllabified_check,2022.2.5,Win32,60.0024001,,,,,,,,,,,,,,./stim/p05_syllable_1_palufauto_hit.wav,p05,palufauto,hit,pa-lu-fau-to,pa-lu-fau-to,pa-lu-fa-u-to, ,-0.364583333,-0.10546875,1,0,0,1.0879,text_option_1,,0,139,139,94,1
6167f106d8d301bd6433c8b1,63f3cfca20052e4ae7554ebf,6453cdced243a2e9c08191af,2023-05-04_17h23.27.383,ga_syllabified_check,2022.2.5,Win32,60.0024001,,,,,,,,,,,,,,./stim/p08_syllable_1_lakakuaisto_hit.wav,p08,lakakuaisto,hit,la-ka-ku-ais-to,la-ka-kuais-to,la-ka-ku-ais-to,la-ka-kua-is-to,0.365885417,-0.10546875,1,0,0,5.3381,text_option_2,,0,140,140,185,1
6167f106d8d301bd6433c8b1,63f3cfca20052e4ae7554ebf,6453cdced243a2e9c08191af,2023-05-04_17h23.27.383,ga_syllabified_check,2022.2.5,Win32,60.0024001,,,,,,,,,,,,,,./stim/p05_syllable_1_lakatiaisto_hit.wav,p05,lakatiaisto,hit,la-ka-ti-ais-to,la-ka-tiais-to,la-ka-ti-ais-to,la-ka-tia-is-to,-0.33984375,-0.104166667,1,0,0,1.8563,text_option_1,,0,141,141,86,1
6167f106d8d301bd6433c8b1,63f3cfca20052e4ae7554ebf,6453cdced243a2e9c08191af,2023-05-04_17h23.27.383,ga_syllabified_check,2022.2.5,Win32,60.0024001,,,,,,,,,,,,,,./stim/p06_syllable_1_lakafiaisto_hit.wav,p06,lakafiaisto,hit,la-ka-fia-is-to,la-ka-fiais-to,la-ka-fi-ais-to,la-ka-fia-is-to,0.006510417,-0.098958333,1,0,0,4.1646,text_option_3,,0,142,142,112,1
6167f106d8d301bd6433c8b1,63f3cfca20052e4ae7554ebf,6453cdced243a2e9c08191af,2023-05-04_17h23.27.383,ga_syllabified_check,2022.2.5,Win32,60.0024001,,,,,,,,,,,,,,./stim/p07_syllable_1_lakapuaisto_hit.wav,p07,lakapuaisto,hit,la-ka-puais-to,la-ka-puais-to,la-ka-pu-ais-to,la-ka-pua-is-to,-0.364583333,-0.088541667,1,0,0,3.9977,text_option_1,,0,143,143,153,1
6167f106d8d301bd6433c8b1,63f3cfca20052e4ae7554ebf,6453cdced243a2e9c08191af,2023-05-04_17h23.27.383,ga_syllabified_check,2022.2.5,Win32,60.0024001,,,,,,,,,,,,,,./stim/p03_syllable_1_payielo_hit.wav,p03,payielo,hit,pa-yie-lo,pa-yie-lo,pa-yi-e-lo, ,-0.401041667,-0.109375,1,0,0,0.9536,text_option_1,,0,144,144,30,1
6167f106d8d301bd6433c8b1,63f3cfca20052e4ae7554ebf,6453cdced243a2e9c08191af,2023-05-04_17h23.27.383,ga_syllabified_check,2022.2.5,Win32,60.0024001,,,,,,,,,,,,,,./stim/p07_syllable_1_palumaisto_hit.wav,p07,palumaisto,hit,pa-lu-mais-to,pa-lu-mais-to,pa-lu-ma-is-to, ,-0.380208333,-0.102864583,1,0,0,2.577,text_option_1,,0,145,145,164,1
6167f106d8d301bd6433c8b1,63f3cfca20052e4ae7554ebf,6453cdced243a2e9c08191af,2023-05-04_17h23.27.383,ga_syllabified_check,2022.2.5,Win32,60.0024001,,,,,,,,,,,,,,./stim/p04_syllable_1_palumaisto_hit.wav,p04,palumaisto,hit,pa-lu-mais-to,pa-lu-mais-to,pa-lu-ma-is-to, ,-0.361979167,-0.106770833,1,0,0,1.4221,text_option_1,,0,146,146,62,1
6167f106d8d301bd6433c8b1,63f3cfca20052e4ae7554ebf,6453cdced243a2e9c08191af,2023-05-04_17h23.27.383,ga_syllabified_check,2022.2.5,Win32,60.0024001,,,,,,,,,,,,,,./stim/p07_syllable_1_lakatuaisto_hit.wav,p07,lakatuaisto,hit,la-ka-tuais-to,la-ka-tuais-to,la-ka-tu-ais-to,la-ka-tua-is-to,-0.389322917,-0.106770833,1,0,0,2.3252,text_option_1,,0,147,147,155,1
6167f106d8d301bd6433c8b1,63f3cfca20052e4ae7554ebf,6453cdced243a2e9c08191af,2023-05-04_17h23.27.383,ga_syllabified_check,2022.2.5,Win32,60.0024001,,,,,,,,,,,,,,./stim/p07_syllable_1_falutraigo_hit.wav,p07,falutraigo,hit,fa-lu-trai-go,fa-lu-trai-go,fa-lu-tra-i-go, ,-0.3671875,-0.104166667,1,0,0,4.8174,text_option_1,,0,148,148,140,1
6167f106d8d301bd6433c8b1,63f3cfca20052e4ae7554ebf,6453cdced243a2e9c08191af,2023-05-04_17h23.27.383,ga_syllabified_check,2022.2.5,Win32,60.0024001,,,,,,,,,,,,,,./stim/p06_syllable_1_paluguato_hit.wav,p06,paluguato,hit,pa-lu-gua-to,pa-lu-gua-to,pa-lu-gu-a-to, ,-0.377604167,-0.10546875,1,0,0,2.3414,text_option_1,,0,149,149,129,1
6167f106d8d301bd6433c8b1,63f3cfca20052e4ae7554ebf,6453cdced243a2e9c08191af,2023-05-04_17h23.27.383,ga_syllabified_check,2022.2.5,Win32,60.0024001,,,,,,,,,,,,,,./stim/p06_syllable_1_lakabuaisto_hit.wav,p06,lakabuaisto,hit,la-ka-bu-a-is,la-ka-buais-to,la-ka-bu-ais-to,la-ka-bua-is-to,0.395833333,-0.10546875,1,0,0,4.081,text_option_2,,0,150,150,109,1
6167f106d8d301bd6433c8b1,63f3cfca20052e4ae7554ebf,6453cdced243a2e9c08191af,2023-05-04_17h23.27.383,ga_syllabified_check,2022.2.5,Win32,60.0024001,,,,,,,,,,,,,,./stim/p04_syllable_1_mebochiana_hit.wav,p04,mebochiana,hit,me-bo-chia-na,me-bo-chia-na,me-bo-chi-a-na, ,-0.373697917,-0.110677083,1,0,0,1.338,text_option_1,,0,151,151,56,1
6167f106d8d301bd6433c8b1,63f3cfca20052e4ae7554ebf,6453cdced243a2e9c08191af,2023-05-04_17h23.27.383,ga_syllabified_check,2022.2.5,Win32,60.0024001,,,,,,,,,,,,,,./stim/p07_syllable_1_pachialo_hit.wav,p07,pachialo,hit,pa-cha-lo,pa-chia-lo,pa-chi-a-lo, ,-0.393229167,-0.108072917,1,0,0,1.3053,text_option_1,,0,152,152,160,1
6167f106d8d301bd6433c8b1,63f3cfca20052e4ae7554ebf,6453cdced243a2e9c08191af,2023-05-04_17h23.27.383,ga_syllabified_check,2022.2.5,Win32,60.0024001,,,,,,,,,,,,,,./stim/p05_syllable_1_palutrauco_hit.wav,p05,palutrauco,hit,pa-lu-trai-co,pa-lu-trau-co,pa-lu-tra-u-co, ,0.033854167,-0.291666667,1,0,0,3.6809,text_option_other,pa-lu-trai-co,0,153,153,97,1
6167f106d8d301bd6433c8b1,63f3cfca20052e4ae7554ebf,6453cdced243a2e9c08191af,2023-05-04_17h23.27.383,ga_syllabified_check,2022.2.5,Win32,60.0024001,,,,,,,,,,,,,,./stim/p03_syllable_1_chiaba_hit.wav,p03,chiaba,hit,chia-ba,chia-ba,chi-a-ba, ,-0.41796875,-0.10546875,1,0,0,0.7534,text_option_1,,0,154,154,0,1
6167f106d8d301bd6433c8b1,63f3cfca20052e4ae7554ebf,6453cdced243a2e9c08191af,2023-05-04_17h23.27.383,ga_syllabified_check,2022.2.5,Win32,60.0024001,,,,,,,,,,,,,,./stim/p07_syllable_1_lakafuaisto_hit.wav,p07,lakafuaisto,hit,la-ka-fuais-to,la-ka-fuais-to,la-ka-fu-ais-to,la-ka-fua-is-to,-0.399739583,-0.1015625,1,0,0,1.9066,text_option_1,,0,155,155,147,1
6167f106d8d301bd6433c8b1,63f3cfca20052e4ae7554ebf,6453cdced243a2e9c08191af,2023-05-04_17h23.27.383,ga_syllabified_check,2022.2.5,Win32,60.0024001,,,,,,,,,,,,,,./stim/p03_syllable_1_lakakiaisto_hit.wav,p03,lakakiaisto,hit,la-ka-kiais-to,la-ka-kiais-to,la-ka-ki-ais-to,la-ka-kia-is-to,-0.380208333,-0.106770833,1,0,0,1.7568,text_option_1,,0,156,156,14,1
6167f106d8d301bd6433c8b1,63f3cfca20052e4ae7554ebf,6453cdced243a2e9c08191af,2023-05-04_17h23.27.383,ga_syllabified_check,2022.2.5,Win32,60.0024001,,,,,,,,,,,,,,./stim/p07_syllable_1_chiaba_hit.wav,p07,chiaba,hit,chia-ba,chia-ba,chi-a-ba, ,-0.41015625,-0.108072917,1,0,0,0.619,text_option_1,,0,157,157,136,1
6167f106d8d301bd6433c8b1,63f3cfca20052e4ae7554ebf,6453cdced243a2e9c08191af,2023-05-04_17h23.27.383,ga_syllabified_check,2022.2.5,Win32,60.0024001,,,,,,,,,,,,,,./stim/p03_syllable_1_palumaisto_hit.wav,p03,palumaisto,hit,pa-lu-mais-to,pa-lu-mais-to,pa-lu-ma-is-to, ,-0.360677083,-0.106770833,1,0,0,1.7394,text_option_1,,0,158,158,28,1
6167f106d8d301bd6433c8b1,63f3cfca20052e4ae7554ebf,6453cdced243a2e9c08191af,2023-05-04_17h23.27.383,ga_syllabified_check,2022.2.5,Win32,60.0024001,,,,,,,,,,,,,,./stim/p08_syllable_1_faluduako_hit.wav,p08,faluduako,hit,fa-lu-duai-ko,fa-lu-dua-ko,fa-lu-du-a-ko, ,0.0078125,-0.298177083,1,0,0,4.8508,text_option_other,fa-lu-duai-co,0,159,159,172,1
6167f106d8d301bd6433c8b1,63f3cfca20052e4ae7554ebf,6453cdced243a2e9c08191af,2023-05-04_17h23.27.383,ga_syllabified_check,2022.2.5,Win32,60.0024001,,,,,,,,,,,,,,./stim/p08_syllable_1_mebochiana_hit.wav,p08,mebochiana,hit,me-bo-chi-a-na,me-bo-chia-na,me-bo-chi-a-na, ,0.421875,-0.104166667,1,0,0,2.1919,text_option_2,,0,160,160,192,1
6167f106d8d301bd6433c8b1,63f3cfca20052e4ae7554ebf,6453cdced243a2e9c08191af,2023-05-04_17h23.27.383,ga_syllabified_check,2022.2.5,Win32,60.0024001,,,,,,,,,,,,,,./stim/p04_syllable_1_faluduako_hit.wav,p04,faluduako,hit,fa-lu-dua-ko,fa-lu-dua-ko,fa-lu-du-a-ko, ,-0.419270833,-0.100260417,1,0,0,0.8359,text_option_1,,0,161,161,36,1
6167f106d8d301bd6433c8b1,63f3cfca20052e4ae7554ebf,6453cdced243a2e9c08191af,2023-05-04_17h23.27.383,ga_syllabified_check,2022.2.5,Win32,60.0024001,,,,,,,,,,,,,,./stim/p03_syllable_1_lliape_hit.wav,p03,lliape,hit,llia,llia-pe,lli-a-pe, ,-0.403645833,-0.10546875,1,0,0,0.9873,text_option_1,,0,162,162,20,1
6167f106d8d301bd6433c8b1,63f3cfca20052e4ae7554ebf,6453cdced243a2e9c08191af,2023-05-04_17h23.27.383,ga_syllabified_check,2022.2.5,Win32,60.0024001,,,,,,,,,,,,,,./stim/p08_syllable_1_lakakiaisto_hit.wav,p08,lakakiaisto,hit,la-ka-ki-jas-to,la-ka-kiais-to,la-ka-ki-ais-to,la-ka-kia-is-to,0.372395833,-0.102864583,1,0,0,4.6667,text_option_2,,0,163,163,184,1
6167f106d8d301bd6433c8b1,63f3cfca20052e4ae7554ebf,6453cdced243a2e9c08191af,2023-05-04_17h23.27.383,ga_syllabified_check,2022.2.5,Win32,60.0024001,,,,,,,,,,,,,,./stim/p05_syllable_1_lakaguaisto_hit.wav,p05,lakaguaisto,hit,la-ka-gais,la-ka-guais-to,la-ka-gu-ais-to,la-ka-gua-is-to,-0.313802083,-0.106770833,1,0,0,2.9106,text_option_1,,0,164,164,81,1
6167f106d8d301bd6433c8b1,63f3cfca20052e4ae7554ebf,6453cdced243a2e9c08191af,2023-05-04_17h23.27.383,ga_syllabified_check,2022.2.5,Win32,60.0024001,,,,,,,,,,,,,,./stim/p05_syllable_1_lakafuaisto_hit.wav,p05,lakafuaisto,hit,la-ka-fais-to,la-ka-fuais-to,la-ka-fu-ais-to,la-ka-fua-is-to,0.032552083,-0.298177083,1,0,0,3.9308,text_option_other,la-ka-fais-to,0,165,165,79,1
6167f106d8d301bd6433c8b1,63f3cfca20052e4ae7554ebf,6453cdced243a2e9c08191af,2023-05-04_17h23.27.383,ga_syllabified_check,2022.2.5,Win32,60.0024001,,,,,,,,,,,,,,./stim/p07_syllable_1_lakadiaisto_hit.wav,p07,lakadiaisto,hit,la-ka-dia-is-to,la-ka-diais-to,la-ka-di-ais-to,la-ka-dia-is-to,0.041666667,-0.110677083,1,0,0,4.014,text_option_3,,0,166,166,144,1
6167f106d8d301bd6433c8b1,63f3cfca20052e4ae7554ebf,6453cdced243a2e9c08191af,2023-05-04_17h23.27.383,ga_syllabified_check,2022.2.5,Win32,60.0024001,,,,,,,,,,,,,,./stim/p03_syllable_1_faluduako_hit.wav,p03,faluduako,hit,fa-lu-dua-ko,fa-lu-dua-ko,fa-lu-du-a-ko, ,-0.373697917,-0.1015625,1,0,0,1.4721,text_option_1,,0,167,167,2,1
6167f106d8d301bd6433c8b1,63f3cfca20052e4ae7554ebf,6453cdced243a2e9c08191af,2023-05-04_17h23.27.383,ga_syllabified_check,2022.2.5,Win32,60.0024001,,,,,,,,,,,,,,./stim/p07_syllable_1_palufauto_hit.wav,p07,palufauto,hit,pa-lu-fau-to,pa-lu-fau-to,pa-lu-fa-u-to, ,-0.380208333,-0.109375,1,0,0,1.8924,text_option_1,,0,168,168,162,1
6167f106d8d301bd6433c8b1,63f3cfca20052e4ae7554ebf,6453cdced243a2e9c08191af,2023-05-04_17h23.27.383,ga_syllabified_check,2022.2.5,Win32,60.0024001,,,,,,,,,,,,,,./stim/p04_syllable_1_lakakiaisto_hit.wav,p04,lakakiaisto,hit,la-ka-kiais-to,la-ka-kiais-to,la-ka-ki-ais-to,la-ka-kia-is-to,-0.3828125,-0.11328125,1,0,0,2.7102,text_option_1,,0,169,169,48,1
6167f106d8d301bd6433c8b1,63f3cfca20052e4ae7554ebf,6453cdced243a2e9c08191af,2023-05-04_17h23.27.383,ga_syllabified_check,2022.2.5,Win32,60.0024001,,,,,,,,,,,,,,./stim/p06_syllable_1_faluduako_hit.wav,p06,faluduako,hit,fa-lu-dua-ko,fa-lu-dua-ko,fa-lu-du-a-ko, ,0.395833333,-0.10546875,1,0,0,8.9149,text_option_2,,0,170,170,104,1
6167f106d8d301bd6433c8b1,63f3cfca20052e4ae7554ebf,6453cdced243a2e9c08191af,2023-05-04_17h23.27.383,ga_syllabified_check,2022.2.5,Win32,60.0024001,,,,,,,,,,,,,,./stim/p07_syllable_1_lakaduaisto_hit.wav,p07,lakaduaisto,hit,la-ka-duais-to,la-ka-duais-to,la-ka-du-ais-to,la-ka-dua-is-to,-0.352864583,-0.104166667,1,0,0,2.1913,text_option_1,,0,171,171,145,1
6167f106d8d301bd6433c8b1,63f3cfca20052e4ae7554ebf,6453cdced243a2e9c08191af,2023-05-04_17h23.27.383,ga_syllabified_check,2022.2.5,Win32,60.0024001,,,,,,,,,,,,,,./stim/p07_syllable_1_payielo_hit.wav,p07,payielo,hit,pa-yie-lo,pa-yie-lo,pa-yi-e-lo, ,-0.39453125,-0.1015625,1,0,0,1.0879,text_option_1,,0,172,172,166,1
6167f106d8d301bd6433c8b1,63f3cfca20052e4ae7554ebf,6453cdced243a2e9c08191af,2023-05-04_17h23.27.383,ga_syllabified_check,2022.2.5,Win32,60.0024001,,,,,,,,,,,,,,./stim/p04_syllable_1_palufauto_hit.wav,p04,palufauto,hit,pa-lu-fau-to,pa-lu-fau-to,pa-lu-fa-u-to, ,-0.393229167,-0.106770833,1,0,0,2.6925,text_option_1,,0,173,173,60,1
6167f106d8d301bd6433c8b1,63f3cfca20052e4ae7554ebf,6453cdced243a2e9c08191af,2023-05-04_17h23.27.383,ga_syllabified_check,2022.2.5,Win32,60.0024001,,,,,,,,,,,,,,./stim/p08_syllable_1_pachialo_hit.wav,p08,pachialo,hit,pa-chi-ja-lo,pa-chia-lo,pa-chi-a-lo, ,0.404947917,-0.108072917,1,0,0,1.4056,text_option_2,,0,174,174,194,1
6167f106d8d301bd6433c8b1,63f3cfca20052e4ae7554ebf,6453cdced243a2e9c08191af,2023-05-04_17h23.27.383,ga_syllabified_check,2022.2.5,Win32,60.0024001,,,,,,,,,,,,,,./stim/p06_syllable_1_falutraigo_hit.wav,p06,falutraigo,hit,fa-lu-tra-i-go,fa-lu-trai-go,fa-lu-tra-i-go, ,0.403645833,-0.109375,1,0,0,3.8638,text_option_2,,0,175,175,106,1
6167f106d8d301bd6433c8b1,63f3cfca20052e4ae7554ebf,6453cdced243a2e9c08191af,2023-05-04_17h23.27.383,ga_syllabified_check,2022.2.5,Win32,60.0024001,,,,,,,,,,,,,,./stim/p04_syllable_1_rausto_hit.wav,p04,rausto,hit,raus-to,raus-to,ra-us-to, ,-0.419270833,-0.09765625,1,0,0,0.368,text_option_1,,0,176,176,65,1
6167f106d8d301bd6433c8b1,63f3cfca20052e4ae7554ebf,6453cdced243a2e9c08191af,2023-05-04_17h23.27.383,ga_syllabified_check,2022.2.5,Win32,60.0024001,,,,,,,,,,,,,,./stim/p08_syllable_1_lakapiaisto_hit.wav,p08,lakapiaisto,hit,la-ka-pi-as-to,la-ka-piais-to,la-ka-pi-ais-to,la-ka-pia-is-to,0.451822917,-0.104166667,1,0,0,4.7166,text_option_2,,0,177,177,186,1
6167f106d8d301bd6433c8b1,63f3cfca20052e4ae7554ebf,6453cdced243a2e9c08191af,2023-05-04_17h23.27.383,ga_syllabified_check,2022.2.5,Win32,60.0024001,,,,,,,,,,,,,,./stim/p06_syllable_1_costonhialo_hit.wav,p06,costoñialo,hit,cos-to-nhia-lo,cos-to-ñia-lo,cos-to-ñi-a-lo, ,-0.364583333,-0.098958333,1,0,0,2.4588,text_option_1,,0,178,178,103,1
6167f106d8d301bd6433c8b1,63f3cfca20052e4ae7554ebf,6453cdced243a2e9c08191af,2023-05-04_17h23.27.383,ga_syllabified_check,2022.2.5,Win32,60.0024001,,,,,,,,,,,,,,./stim/p04_syllable_1_palufauro_hit.wav,p04,palufauro,hit,pa-lu-fau-ro,pa-lu-fau-ro,pa-lu-fa-u-ro, ,-0.358072917,-0.104166667,1,0,0,1.4555,text_option_1,,0,179,179,59,1
6167f106d8d301bd6433c8b1,63f3cfca20052e4ae7554ebf,6453cdced243a2e9c08191af,2023-05-04_17h23.27.383,ga_syllabified_check,2022.2.5,Win32,60.0024001,,,,,,,,,,,,,,./stim/p03_syllable_1_lakadiaisto_hit.wav,p03,lakadiaisto,hit,la-ka-diais-to,la-ka-diais-to,la-ka-di-ais-to,la-ka-dia-is-to,-0.361979167,-0.1015625,1,0,0,1.6726,text_option_1,,0,180,180,8,1
6167f106d8d301bd6433c8b1,63f3cfca20052e4ae7554ebf,6453cdced243a2e9c08191af,2023-05-04_17h23.27.383,ga_syllabified_check,2022.2.5,Win32,60.0024001,,,,,,,,,,,,,,./stim/p08_syllable_1_paluguato_hit.wav,p08,paluguato,hit,pa-lu-gua-to,pa-lu-gua-to,pa-lu-gu-a-to, ,-0.375,-0.106770833,1,0,0,1.5561,text_option_1,,0,181,181,197,1
6167f106d8d301bd6433c8b1,63f3cfca20052e4ae7554ebf,6453cdced243a2e9c08191af,2023-05-04_17h23.27.383,ga_syllabified_check,2022.2.5,Win32,60.0024001,,,,,,,,,,,,,,./stim/p04_syllable_1_lakapuaisto_hit.wav,p04,lakapuaisto,hit,la-ka-puais-to,la-ka-puais-to,la-ka-pu-ais-to,la-ka-pua-is-to,-0.356770833,-0.100260417,1,0,0,1.088,text_option_1,,0,182,182,51,1
6167f106d8d301bd6433c8b1,63f3cfca20052e4ae7554ebf,6453cdced243a2e9c08191af,2023-05-04_17h23.27.383,ga_syllabified_check,2022.2.5,Win32,60.0024001,,,,,,,,,,,,,,./stim/p08_syllable_1_lakabuaisto_hit.wav,p08,lakabuaisto,hit,la-ka-bu-ais-to,la-ka-buais-to,la-ka-bu-ais-to,la-ka-bua-is-to,0.373697917,-0.10546875,1,0,0,4.7166,text_option_2,,0,183,183,177,1
6167f106d8d301bd6433c8b1,63f3cfca20052e4ae7554ebf,6453cdced243a2e9c08191af,2023-05-04_17h23.27.383,ga_syllabified_check,2022.2.5,Win32,60.0024001,,,,,,,,,,,,,,./stim/p06_syllable_1_lakakuaisto_hit.wav,p06,lakakuaisto,hit,la-ka-ku-a-is,la-ka-kuais-to,la-ka-ku-ais-to,la-ka-kua-is-to,0.408854167,-0.098958333,1,0,0,4.0311,text_option_2,,0,184,184,117,1
6167f106d8d301bd6433c8b1,63f3cfca20052e4ae7554ebf,6453cdced243a2e9c08191af,2023-05-04_17h23.27.383,ga_syllabified_check,2022.2.5,Win32,60.0024001,,,,,,,,,,,,,,./stim/p06_syllable_1_flauro_hit.wav,p06,flauro,hit,fla-u-ro,flau-ro,fla-u-ro, ,0.377604167,-0.108072917,1,0,0,1.0876,text_option_2,,0,185,185,107,1
6167f106d8d301bd6433c8b1,63f3cfca20052e4ae7554ebf,6453cdced243a2e9c08191af,2023-05-04_17h23.27.383,ga_syllabified_check,2022.2.5,Win32,60.0024001,,,,,,,,,,,,,,./stim/p03_syllable_1_palufauto_hit.wav,p03,palufauto,hit,pa-lu-fau,pa-lu-fau-to,pa-lu-fa-u-to, ,-0.373697917,-0.109375,1,0,0,1.0705,text_option_1,,0,186,186,26,1
6167f106d8d301bd6433c8b1,63f3cfca20052e4ae7554ebf,6453cdced243a2e9c08191af,2023-05-04_17h23.27.383,ga_syllabified_check,2022.2.5,Win32,60.0024001,,,,,,,,,,,,,,./stim/p04_syllable_1_lakabuaisto_hit.wav,p04,lakabuaisto,hit,la-ka-buais-to,la-ka-buais-to,la-ka-bu-ais-to,la-ka-bua-is-to,-0.345052083,-0.108072917,1,0,0,0.9199,text_option_1,,0,187,187,41,1
6167f106d8d301bd6433c8b1,63f3cfca20052e4ae7554ebf,6453cdced243a2e9c08191af,2023-05-04_17h23.27.383,ga_syllabified_check,2022.2.5,Win32,60.0024001,,,,,,,,,,,,,,./stim/p04_syllable_1_lakakuaisto_hit.wav,p04,lakakuaisto,hit,la-ka-kuais-to,la-ka-kuais-to,la-ka-ku-ais-to,la-ka-kua-is-to,-0.359375,-0.098958333,1,0,0,0.8029,text_option_1,,0,188,188,49,1
6167f106d8d301bd6433c8b1,63f3cfca20052e4ae7554ebf,6453cdced243a2e9c08191af,2023-05-04_17h23.27.383,ga_syllabified_check,2022.2.5,Win32,60.0024001,,,,,,,,,,,,,,./stim/p03_syllable_1_lakagiaisto_hit.wav,p03,lakagiaisto,hit,la-ka-giais-to,la-ka-giais-to,la-ka-gi-ais-to,la-ka-gia-is-to,-0.3359375,-0.10546875,1,0,0,2.7935,text_option_1,,0,189,189,12,1
6167f106d8d301bd6433c8b1,63f3cfca20052e4ae7554ebf,6453cdced243a2e9c08191af,2023-05-04_17h23.27.383,ga_syllabified_check,2022.2.5,Win32,60.0024001,,,,,,,,,,,,,,./stim/p06_syllable_1_tuliafo_hit.wav,p06,tuliafo,hit,tu-li-a-fo,tu-lia-fo,tu-li-a-fo, ,0.36328125,-0.104166667,1,0,0,1.8235,text_option_2,,0,190,190,135,1
6167f106d8d301bd6433c8b1,63f3cfca20052e4ae7554ebf,6453cdced243a2e9c08191af,2023-05-04_17h23.27.383,ga_syllabified_check,2022.2.5,Win32,60.0024001,,,,,,,,,,,,,,./stim/p06_syllable_1_lakakiaisto_hit.wav,p06,lakakiaisto,hit,la-ka-kia-is-to,la-ka-kiais-to,la-ka-ki-ais-to,la-ka-kia-is-to,0.002604167,-0.109375,1,0,0,3.8809,text_option_3,,0,191,191,116,1
6167f106d8d301bd6433c8b1,63f3cfca20052e4ae7554ebf,6453cdced243a2e9c08191af,2023-05-04_17h23.27.383,ga_syllabified_check,2022.2.5,Win32,60.0024001,,,,,,,,,,,,,,./stim/p03_syllable_1_flauro_hit.wav,p03,flauro,hit,flau-ro,flau-ro,fla-u-ro, ,-0.39453125,-0.104166667,1,0,0,0.4855,text_option_1,,0,192,192,5,1
6167f106d8d301bd6433c8b1,63f3cfca20052e4ae7554ebf,6453cdced243a2e9c08191af,2023-05-04_17h23.27.383,ga_syllabified_check,2022.2.5,Win32,60.0024001,,,,,,,,,,,,,,./stim/p06_syllable_1_ruyiola_hit.wav,p06,ruyiola,hit,ru-yi-o-la,ru-yio-la,ru-yi-o-la, ,0.388020833,-0.111979167,1,0,0,1.6228,text_option_2,,0,193,193,134,1
6167f106d8d301bd6433c8b1,63f3cfca20052e4ae7554ebf,6453cdced243a2e9c08191af,2023-05-04_17h23.27.383,ga_syllabified_check,2022.2.5,Win32,60.0024001,,,,,,,,,,,,,,./stim/p08_syllable_1_lakagiaisto_hit.wav,p08,lakagiaisto,hit,la-ka-gi-jas-to,la-ka-giais-to,la-ka-gi-ais-to,la-ka-gia-is-to,0.41015625,-0.100260417,1,0,0,3.5972,text_option_2,,0,194,194,182,1
6167f106d8d301bd6433c8b1,63f3cfca20052e4ae7554ebf,6453cdced243a2e9c08191af,2023-05-04_17h23.27.383,ga_syllabified_check,2022.2.5,Win32,60.0024001,,,,,,,,,,,,,,./stim/p04_syllable_1_lakatuaisto_hit.wav,p04,lakatuaisto,hit,la-ka-kuais-to,la-ka-tuais-to,la-ka-tu-ais-to,la-ka-tua-is-to,-0.3828125,-0.110677083,1,0,0,1.3371,text_option_1,,0,195,195,53,1
6167f106d8d301bd6433c8b1,63f3cfca20052e4ae7554ebf,6453cdced243a2e9c08191af,2023-05-04_17h23.27.383,ga_syllabified_check,2022.2.5,Win32,60.0024001,,,,,,,,,,,,,,./stim/p08_syllable_1_palutrauco_hit.wav,p08,palutrauco,hit,pa-lu-trau-ko,pa-lu-trau-co,pa-lu-tra-u-co, ,-0.372395833,-0.108072917,1,0,0,2.8772,text_option_1,,0,196,196,199,1
6167f106d8d301bd6433c8b1,63f3cfca20052e4ae7554ebf,6453cdced243a2e9c08191af,2023-05-04_17h23.27.383,ga_syllabified_check,2022.2.5,Win32,60.0024001,,,,,,,,,,,,,,./stim/p04_syllable_1_payielo_hit.wav,p04,payielo,hit,pa-yie-lo,pa-yie-lo,pa-yi-e-lo, ,-0.388020833,-0.108072917,1,0,0,0.7365,text_option_1,,0,197,197,64,1
6167f106d8d301bd6433c8b1,63f3cfca20052e4ae7554ebf,6453cdced243a2e9c08191af,2023-05-04_17h23.27.383,ga_syllabified_check,2022.2.5,Win32,60.0024001,,,,,,,,,,,,,,./stim/p07_syllable_1_costonhialo_hit.wav,p07,costoñialo,hit,cos-to-nhia-lo,cos-to-ñia-lo,cos-to-ñi-a-lo, ,-0.346354167,-0.10546875,1,0,0,1.8068,text_option_1,,0,198,198,137,1
6167f106d8d301bd6433c8b1,63f3cfca20052e4ae7554ebf,6453cdced243a2e9c08191af,2023-05-04_17h23.27.383,ga_syllabified_check,2022.2.5,Win32,60.0024001,,,,,,,,,,,,,,./stim/p04_syllable_1_pachialo_hit.wav,p04,pachialo,hit,pa-chia-lo,pa-chia-lo,pa-chi-a-lo, ,-0.380208333,-0.104166667,1,0,0,0.6187,text_option_1,,0,199,199,58,1
6167f106d8d301bd6433c8b1,63f3cfca20052e4ae7554ebf,6453cdced243a2e9c08191af,2023-05-04_17h23.27.383,ga_syllabified_check,2022.2.5,Win32,60.0024001,,,,,,,,,,,,,,./stim/p08_syllable_1_lakaguaisto_hit.wav,p08,lakaguaisto,hit,la-ka-gu-ais-to,la-ka-guais-to,la-ka-gu-ais-to,la-ka-gua-is-to,0.411458333,-0.106770833,1,0,0,2.5265,text_option_2,,0,200,200,183,1
6167f106d8d301bd6433c8b1,63f3cfca20052e4ae7554ebf,6453cdced243a2e9c08191af,2023-05-04_17h23.27.383,ga_syllabified_check,2022.2.5,Win32,60.0024001,,,,,,,,,,,,,,./stim/p07_syllable_1_lakakiaisto_hit.wav,p07,lakakiaisto,hit,la-ka-kais-to,la-ka-kiais-to,la-ka-ki-ais-to,la-ka-kia-is-to,-0.360677083,-0.111979167,1,0,0,6.2009,text_option_1,,0,201,201,150,1
6167f106d8d301bd6433c8b1,63f3cfca20052e4ae7554ebf,6453cdced243a2e9c08191af,2023-05-04_17h23.27.383,ga_syllabified_check,2022.2.5,Win32,60.0024001,,,,,,,,,,,,,,./stim/p04_syllable_1_paluguato_hit.wav,p04,paluguato,hit,pa-lu-gua,pa-lu-gua-to,pa-lu-gu-a-to, ,-0.360677083,-0.109375,1,0,0,3.8134,text_option_1,,0,202,202,61,1
6167f106d8d301bd6433c8b1,63f3cfca20052e4ae7554ebf,6453cdced243a2e9c08191af,2023-05-04_17h23.27.383,ga_syllabified_check,2022.2.5,Win32,60.0024001,,,,,,,,,,,,,,./stim/p08_syllable_1_lakaduaisto_hit.wav,p08,lakaduaisto,hit,la-ka-du-ais-to,la-ka-duais-to,la-ka-du-ais-to,la-ka-dua-is-to,0.4140625,-0.108072917,1,0,0,3.4969,text_option_2,,0,203,203,179,1
6167f106d8d301bd6433c8b1,63f3cfca20052e4ae7554ebf,6453cdced243a2e9c08191af,2023-05-04_17h23.27.383,ga_syllabified_check,2022.2.5,Win32,60.0024001,,,,,,,,,,,,,,,,,,,,,,,,,,,,,,,,,,
